sample,t_ms,t_s,ax,ay,az,gx,gy,gz,tremor
0,7622113,0.0,-0.36730551900116315,-0.23601056097616682,-0.9563651986646873,-0.9001025890022222,-9.804696105691104,-0.08162810609308498,tremor
1,7622118,0.005,-0.36631030969673384,-0.23619341073616248,-0.957197592658606,0.17144766110905713,-13.661898474869611,-0.1961294502881685,tremor
2,7622128,0.015,-0.3650800446697697,-0.23645962812199656,-0.9581844814932772,1.28662563845252,-17.723769034453557,-0.3462371809756843,tremor
3,7622132,0.019,-0.3636849805091236,-0.2368250503083274,-0.9592359391951536,2.4429235776998737,-21.981798252990522,-0.5334718126861503,tremor
4,7622142,0.029,-0.36226491717840525,-0.23729327221753038,-0.9602025062189959,3.6374706094421434,-26.425835279255207,-0.7592074790988409,tremor
5,7622151,0.038,-0.360978006266544,-0.23785992267101125,-0.960923515659458,4.867039069220667,-31.04411679948789,-1.0246524365674345,tremor
6,7622156,0.043,-0.3599658048664686,-0.23851773234996304,-0.9612579638251882,6.12805526626529,-35.82331843038315,-1.3308290546872512,tremor
7,7622161,0.048,-0.35934037814301467,-0.23925971401273774,-0.9610946212701824,7.416614931153505,-40.74862962613673,-1.678553432896811,tremor
8,7622193,0.08,-0.35918458503934103,-0.2400804974046191,-0.9603504256964603,8.728503503337532,-45.80385275064688,-2.0684148187084785,tremor
9,7622203,0.09,-0.35955732806070234,-0.24097654873999919,-0.9589648643870355,10.05922135493697,-50.971526580989405,-2.5007550456346395,tremor
10,7622208,0.095,-0.36049932140607543,-0.24194589535350605,-0.9568942946997514,11.404013975650612,-56.23307405913299,-2.9756482594333082,tremor
11,7622212,0.099,-0.362037737191465,-0.24298770969559552,-0.9541075370521871,12.757907062714796,-61.568973591040994,-3.492881260662306,tremor
12,7622217,0.104,-0.36418947200645174,-0.24410190957320205,-0.9505828514602176,14.115746366668505,-66.9589526112835,-4.051934856158841,tremor
13,7622222,0.109,-0.3669632712748109,-0.24528882543518424,-0.9463060056531074,15.472242037605506,-72.3822015050901,-4.651966674297944,tremor
14,7622227,0.114,-0.37036104106679685,-0.24654893921444476,-0.9412690944522092,16.822017100675218,-77.81760532992452,-5.291795951166966,tremor
15,7622232,0.119,-0.3743786294395128,-0.2478826835390241,-0.9354698351198348,18.159659569413456,-83.24399012107675,-5.969890833456519,tremor
16,7622237,0.124,-0.3790062839585557,-0.24929028763910702,-0.9289111440003424,19.479777586619917,-88.64037991149235,-6.684358768988142,tremor
17,7622251,0.138,-0.3842289264431321,-0.25077165848416577,-0.9216008656589653,20.777056869080546,-93.98625995734442,-7.432940568440822,tremor
18,7622256,0.143,-0.39002633790737007,-0.25232628893363085,-0.9135515724719149,22.046319627423397,-99.26184106009198,-8.21300872127268,tremor
19,7622261,0.148,-0.3963733140285807,-0.25395318762810076,-0.9047803836644133,23.282584038578012,-104.44831935604174,-9.021570531077696,tremor
20,7622266,0.153,-0.4032398300777484,-0.25565082760991553,-0.8953087727237485,24.48112326807219,-109.52812556473074,-9.855276594468698,tremor
21,7622271,0.158,-0.41059124036541367,-0.2574171122299604,-0.8851623447174307,25.637522973399385,-114.48515749365325,-10.710435078021995,tremor
22,7622275,0.162,-0.4183885281464726,-0.25924935787695225,-0.8743705730102552,26.74773616742394,-119.3049895992891,-11.583032148563555,tremor
23,7622280,0.167,-0.42658861575153245,-0.2611442935850568,-0.8629664899836799,27.808134283960012,-123.97505359010498,-12.46875878434476,tremor
24,7622285,0.172,-0.43514474029613964,-0.26309807775278826,-0.8509863297616606,28.815553272089222,-128.48478441505185,-13.36304403908065,tremor
25,7622290,0.177,-0.4440068969299032,-0.265106332134705,-0.8384691233603956,29.767333559276327,-132.82572650948327,-14.261094646236543,tremor
26,7622317,0.204,-0.45312234877161206,-0.26716419301774547,-0.8254562485548994,30.66135277315402,-136.9915958769519,-15.157940636410245,tremor
27,7622322,0.209,-0.4624362001568372,-0.2692663791174296,-0.8119909383672066,31.496050206368352,-140.97829449943532,-16.048486400272264,tremor
28,7622327,0.214,-0.4718920274429801,-0.2714072752637595,-0.7981177535817386,32.27044216066039,-144.78387475199787,-16.927566377469113,tremor
29,7622332,0.219,-0.4814325593011293,-0.2735810304232237,-0.7838820261420938,32.98412752706847,-148.4084530094745,-17.790004311241862,tremor
30,7622337,0.224,-0.49100039616439256,-0.2757816680490853,-0.7693292816695628,33.637283246423216,-151.85407345504714,-18.630674801556,tremor
31,7622347,0.234,-0.5005387563306815,-0.27800320619302765,-0.7545046506121171,34.2306496269688,-155.12452511393153,-19.444565729213366,tremor
32,7622351,0.238,-0.5099922341992326,-0.28023978427435586,-0.7394522786045605,34.765505845656634,-158.22511717232473,-20.22684001516249,tremor
33,7622356,0.243,-0.5193075543541879,-0.28248579291960574,-0.7242147474054705,35.243636304488845,-161.16241954354047,-20.972895127872643,tremor
34,7622361,0.248,-0.5284343038228587,-0.2847360028904871,-0.7088325181863456,35.66728883935429,-163.943977267334,-21.678418762711466,tremor
35,7622366,0.253,-0.5373256239576009,-0.2869856888436528,-0.6933434089187265,36.03912607449188,-166.5780085468513,-22.339439192798775,tremor
36,7622371,0.258,-0.5459388431155943,-0.2892307435349922,-0.6777821171120763,36.36217146667289,-169.07309694616205,-22.95236892787027,tremor
37,7622376,0.263,-0.5542360317081051,-0.29146777810939917,-0.6621797982120747,36.63975177133331,-171.43788844877247,-23.51404051249615,tremor
38,7622381,0.268,-0.5621844623226728,-0.2936942043168832,-0.6465637086106643,36.87543777055894,-173.6808037251382,-24.021733546949903,tremor
39,7622386,0.273,-0.5697569595588724,-0.29590829487807013,-0.6309569204951382,37.07298511791733,-175.80977511863088,-24.473192324136647,tremor
40,7622391,0.278,-0.5769321270234538,-0.29810921879154245,-0.6153781137405959,37.236277071326775,-177.83201658536262,-24.86663384009868,tremor
41,7622401,0.288,-0.5836944426293084,-0.30029704912947275,-0.5998414478132246,37.36927069920715,-179.7538331583306,-25.200746336658366,tremor
42,7622405,0.292,-0.5900342179080494,-0.30247274179746036,-0.5843565143021907,37.47594785693609,-181.5804744966703,-25.474678940767813,tremor
43,7622415,0.302,-0.595947422395502,-0.3046380848244872,-0.5689283683543236,37.56027184720475,-183.31603479742563,-25.688023336802274,tremor
44,7622442,0.329,-0.6014353801175086,-0.3067956189740266,-0.5535576350872459,37.62615022007362,-184.9633989099625,-25.84078871092742,tremor
45,7622452,0.339,-0.6065043514479018,-0.3089485317754086,-0.538240685156956,37.67740367952043,-186.52423209362266,-25.933371416817828,tremor
46,7622457,0.344,-0.6111650194935652,-0.3111005283640206,-0.5229698722077983,37.717740612498766,-187.99900877525144,-25.966520912092825,tremor
47,7622462,0.349,-0.6154319048006516,-0.31325568364032963,-0.5077338240535345,37.75073642119266,-189.38707419739026,-25.94130349492569,tremor
48,7622466,0.353,-0.6193227347883183,-0.315418281063941,-0.4925177791582509,37.77981666241371,-190.68673216819374,-25.859065240008487,tremor
49,7622471,0.358,-0.6228577946063364,-0.3175926438106326,-0.4773039602228363,37.80824296564747,-191.8953521624265,-25.721395325939007,tremor
50,7622476,0.363,-0.6260592843270547,-0.3197829640444897,-0.46207197727878596,37.83910076759876,-193.00948956604375,-25.53009070308898,tremor
51,7622481,0.368,-0.6289507040451522,-0.32199313575271565,-0.44679925348017,37.8752880326496,-194.0250137103532,-25.287122802658377,tremor
52,7622485,0.372,-0.6315562841100383,-0.32422659602766746,-0.4314614676345475,37.919504318046826,-194.93723938711884,-24.994606752116155,tremor
53,7622490,0.377,-0.6339004728098666,-0.3264861789235561,-0.416033008331747,37.974239794240454,-195.74105869378928,-24.65477335121786,tremor
54,7622500,0.387,-0.6360074887324932,-0.32877398512170186,-0.400487435252407,38.04176414175716,-196.43107125624914,-24.26994388505157,tremor
55,7622505,0.392,-0.6379009400613287,-0.3310912696635955,-0.38479794381736,38.1241155952887,-197.00171204409725,-23.842507713456552,tremor
56,7622515,0.402,-0.6396035085193799,-0.3334383490155075,-0.36893782972586386,38.22309075142597,-197.44737704840432,-23.37490248310295,tremor
57,7622520,0.407,-0.6411366918544397,-0.33581452778332865,-0.35288095007076065,38.340236039417114,-197.76254792303666,-22.86959675257889,tremor
58,7622525,0.412,-0.6425205959461776,-0.338218044583349,-0.33660217755811667,38.476841909693995,-197.94191716352233,-22.32907478632821,tremor
59,7622540,0.427,-0.6437737660256849,-0.3406460359770825,-0.32007784386175014,38.633940776392066,-197.9805153963998,-21.75582325455169,tremor
60,7622567,0.454,-0.6449130462443884,-0.34309451706944677,-0.30328616732021635,38.81230955582768,-197.87384183183704,-21.152319594824373,tremor
61,7622572,0.459,-0.6459534579278564,-0.3455583773964685,-0.28620765914091256,39.01247731933213,-197.61799794785708,-20.521021875903788,tremor
62,7622576,0.463,-0.6469080891881611,-0.3480313910772648,-0.2688255012522931,39.23473819536963,-197.20982318893977,-19.86436013703547,tremor
63,7622581,0.468,-0.6477879918330111,-0.3505062407657039,-0.2511258882709467,39.47916927427914,-196.6470301265259,-19.18472927734282,tremor
64,7622586,0.473,-0.6486020851828027,-0.3529745555234758,-0.2330983259997877,39.745652929699084,-195.92833539986518,-18.48448356733418,tremor
65,7622591,0.478,-0.6493570698998625,-0.3554269631654971,-0.21473587952929224,40.03390269385452,-195.0535819900253,-17.765932754346135,tremor
66,7622596,0.483,-0.6500573577551888,-0.3578531577899857,-0.19603536526675097,40.343491616057754,-194.02384801819102,-17.031339599269202,tremor
67,7622605,0.492,-0.6507050250797133,-0.3602419830676759,-0.17699748287231237,40.67388189650029,-192.8415372805072,-16.28291856608471,tremor
68,7622610,0.497,-0.651299798290467,-0.3625815314503849,-0.15762688493553045,41.02445452290012,-191.51044709478572,-15.52283530833792,tremor
69,7622625,0.512,-0.6518390792865317,-0.36485925882857667,-0.1379321841018265,41.39453765042191,-190.03580969335135,-14.753206564315963,tremor
70,7622635,0.522,-0.6523180167338168,-0.36706211341066247,-0.11792589909292239,41.78343256070723,-188.42430430378732,-13.976100092672437,tremor
71,7622640,0.527,-0.6527296265169004,-0.3691766768232756,-0.09762434252691717,42.190436212973395,-186.68403814919054,-13.1935343535127,tremor
72,7622645,0.532,-0.6530649613263808,-0.37118931475193007,-0.07704745454951077,42.614859642368074,-184.82449576557548,-12.407477749674642,tremor
73,7622649,0.536,-0.6533133259814354,-0.3730863339396134,-0.056218587015237916,43.056041733628824,-182.85645714808481,-11.61984735658693,tremor
74,7622659,0.546,-0.6534625321403715,-0.37485414207438966,-0.03516424334047625,43.513358161405186,-180.7918861997871,-10.83250715502396,tremor
75,7622664,0.551,-0.6534991838679426,-0.3764794070173515,-0.01391377926349125,43.9862255118966,-178.64379172369902,-10.047265822652822,tremor
76,7622691,0.578,-0.6534089842907556,-0.37794921191601877,0.0075009303161836256,44.47410076628308,-176.4260637686356,-9.26587413633532,tremor
77,7622696,0.583,-0.6531770533289573,-0.37925120298138154,0.029045853395487695,44.97647642496625,-174.15328853215297,-8.490021996474923,tremor
78,7622701,0.588,-0.65278824715171,-0.3803737270550863,0.05068518695626941,45.492871581287424,-171.84054528192905,-7.721335024362877,tremor
79,7622706,0.593,-0.652227471329495,-0.38130595653997473,0.07238176232495741,46.02281922697679,-169.5031889469214,-6.9613706283867804,tremor
80,7622710,0.597,-0.6514799813228441,-0.38203799979328973,0.09409746506540449,46.565850015447246,-167.15662221657217,-6.211613410720802,tremor
81,7622715,0.602,-0.6505316656430302,-0.3825609956591021,0.11579366459044005,47.12147265250579,-164.8160612050958,-5.473469807489528,tremor
82,7622720,0.607,-0.6493693085185442,-0.3828671914087571,0.13743164850828665,47.689151050035804,-162.49629899241228,-4.74826192051035,tremor
83,7622740,0.627,-0.6479808300655426,-0.38295000392744044,0.15897305647229087,48.268278381705464,-160.21147163248705,-4.037220593235843,tremor
84,7622745,0.632,-0.6463555027209288,-0.38280406449361726,0.18038030799965676,48.85814823241195,-157.974831497793,-3.341477890400835,tremor
85,7622749,0.636,-0.6444841430342608,-0.3824252479063366,0.20161701840425966,49.45792314908026,-155.79853304748886,-2.66205924887792,tremor
86,7622754,0.641,-0.6423592778631426,-0.3818106869849882,0.2226483967033287,50.06660109296708,-153.69343617999232,-1.999875670861951,tremor
87,7622759,0.646,-0.6399752836684868,-0.3809587735751061,0.24344161916721052,50.682980558452314,-151.66893218346004,-1.3557164204657772,tremor
88,7622764,0.651,-0.6373284971017085,-0.37986914715036335,0.26396617213834844,51.30562542828044,-149.73279690270812,-0.730242741925298,tremor
89,7622774,0.661,-0.6344172945799861,-0.37854267194129065,0.28419415789430064,51.93283093492057,-147.89107510391486,-0.12398312113618366,tremor
90,7622778,0.665,-0.6312421382298556,-0.37698140329748236,0.3041005577114512,52.56259235225519,-146.14799914267013,0.4626694455365141,tremor
91,7622783,0.67,-0.6278055856207823,-0.375188543760873,0.3236634469404569,53.19257821740218,-144.5059439151486,1.0294578188241914,tremor
92,7622814,0.701,-0.6241122612794728,-0.3731683891550374,0.34286415785886565,53.820109946990755,-142.96541868913778,1.5762584970686155,tremor
93,7622819,0.706,-0.6201687891896319,-0.37092626494075615,0.361687387310414,54.442149637558835,-141.52509482309333,2.103076722178148,tremor
94,7622824,0.711,-0.6159836873389464,-0.36846845320576976,0.38012124759274357,55.05529760130172,-140.181866763049,2.6100389569546967,tremor
95,7622828,0.715,-0.6115672277125292,-0.3658021109812475,0.39815726055825734,55.65580077149702,-138.93094233752075,3.0973829212820556,tremor
96,7622833,0.72,-0.606931267638093,-0.3629351811010803,0.4157902962644185,56.23957254101584,-137.7659574824382,3.565445531910262,tremor
97,7622838,0.725,-0.6020890606721898,-0.35987629747845234,0.4330184586166856,56.80222395162216,-136.67911018084297,4.014649250569883,tremor
98,7622848,0.735,-0.5970550569072781,-0.3566346873630425,0.44984292123873915,57.339105530529785,-135.661308516137,4.445487476403622,tremor
99,7622857,0.744,-0.5918447033953077,-0.35322007374949543,0.46626771729596905,57.84535854814573,-134.70232820635297,4.858509685641304,tremor
100,7622862,0.749,-0.5864742551538501,-0.3496425815290957,0.48229948724513766,58.31597409046242,-133.79097571505238,5.254306998978151,tremor
101,7622867,0.754,-0.5809606058847114,-0.34591265111532254,0.4979471885730009,58.745858126064725,-132.91525391528444,5.633498742917438,tremor
102,7622872,0.759,-0.5753211451702226,-0.34204096305310594,0.5132217716309166,59.12990070144548,-132.06252819701228,5.996720390988173,tremor
103,7622877,0.764,-0.5695736457679915,-0.3380383765117371,0.5281358257826452,59.46304748582785,-131.21969175521662,6.344613066605974,tremor
104,7622881,0.768,-0.5637361810930751,-0.3339158835985795,0.542703200338192,59.74037205689715,-130.37332951728465,6.6778145992006595,tremor
105,7622886,0.773,-0.5578270694975421,-0.32968458020674835,0.5569386051784179,59.95714752938145,-129.50988073981856,6.996951969983645,tremor
106,7622891,0.778,-0.5518648389236183,-0.325355652747575,0.5708571965709517,60.10891635333123,-128.61580071442282,7.30263487058306,tremor
107,7622896,0.783,-0.5458682032177065,-0.32094037875082815,0.5844741543970089,60.191557330288475,-127.67772225657124,7.595450027902723,tremor
108,7622901,0.788,-0.5398560400528306,-0.31645013807237066,0.5978042577930369,60.201349097143094,-126.68261769327967,7.875955920529229,tremor
109,7622906,0.793,-0.5338473601323468,-0.3118964304485188,0.6108614669917017,60.13502949502476,-125.61796188907053,8.144677522825472,tremor
110,7622910,0.797,-0.5278612581702772,-0.3072908944781726,0.6236585198490368,59.98985036283886,-124.47189643265897,8.402100759361899,tremor
111,7622936,0.823,-0.521916838013185,-0.3026453228710637,0.636206552092896,59.763627365156395,-123.23339445073076,8.64866643207704,tremor
112,7622941,0.828,-0.5160331070358498,-0.2979716690114927,0.6485147506442237,59.45478448132667,-121.89242466913107,8.884763492709011,tremor
113,7622946,0.833,-0.5102288383189896,-0.2932820405416206,0.6605900493605653,59.062392752082644,-120.44011240855458,9.110721667292195,tremor
114,7622951,0.838,-0.5045224026687262,-0.2885886766967317,0.6724368761440275,58.58620281026253,-118.86889431953982,9.326803584484688,tremor
115,7622956,0.843,-0.4989315757926772,-0.28390390740323007,0.684056959493994,58.026670624636836,-117.17266295971119,9.533196695906673,tremor
116,7622961,0.848,-0.493473328553446,-0.2792400935313188,0.6954492012918216,57.384975775332464,-115.34689687638836,9.730005387146878,tremor
117,7622966,0.853,-0.48816361000737335,-0.27460954904419926,0.706609620968283,56.663031477238846,-113.38877171460757,9.917243753461333,tremor
118,7622970,0.857,-0.48301713386594236,-0.2700244470034886,0.7175313743348877,55.8634855003443,-111.29724803615517,10.09482955120995,tremor
119,7622975,0.862,-0.4780471791086223,-0.2654967124090649,0.7282048483589323,54.9897111287007,-109.07313200465877,10.262579831940293,tremor
120,7622980,0.867,-0.47326541477594275,-0.26103790562670426,0.738617831115373,54.04578737062188,-106.71910583512515,10.420208717961955,tremor
121,7622985,0.872,-0.46868175755381253,-0.25665910065939834,0.7487557541282981,53.03646778970523,-104.2397258710927,10.567327687406786,tremor
122,7622990,0.877,-0.4643042687334329,-0.25237076273222486,0.7586020023781458,51.96713756836602,-101.64138727746911,10.703448610436917,tremor
123,7622995,0.882,-0.4601390946427937,-0.24818262958598464,0.7681382854408586,50.84375873396255,-98.93225556102405,10.827989628232316,tremor
124,7623000,0.887,-0.45619045187033674,-0.24410360052689786,0.7773450615732043,49.672803855987866,-96.1221663947177,10.940283805421886,tremor
125,7623019,0.906,-0.45246065572517286,-0.24014163668656113,0.7862020050872239,48.46117893900073,-93.22249646965528,11.039590325643923,tremor
126,7623029,0.916,-0.44895018760200595,-0.2363036751525668,0.7946885060867989,47.21613666381982,-90.24600926303118,11.125107847596318,tremor
127,7623034,0.921,-0.44565779448502413,-0.23259555871031495,0.8027841906033021,45.94518153981938,-87.20668059050409,11.195989504539526,tremor
128,7623060,0.947,-0.44258061202020893,-0.22902198200407747,0.8104694484216916,44.65596889371825,-84.1195094662169,11.251358927690937,tremor
129,7623065,0.952,-0.4397143016667936,-0.2255864541119821,0.8177259555098478,43.356199907299704,-81.00031999333007,11.290326621699297,tremor
130,7623070,0.957,-0.4370531925277395,-0.22229127693925213,0.8245371780351367,42.05351510171151,-77.86555969835868,11.312006034409874,tremor
131,7623075,0.962,-0.434590419504772,-0.21913753850793768,0.8308888455423569,40.755388723863014,-74.73209895080409,11.31552874709008,tremor
132,7623079,0.966,-0.43231805124093364,-0.21612512013734267,0.8367693819969929,39.46902640912429,-71.61703501744633,11.300058350033565,tremor
133,7623084,0.971,-0.43022720364139627,-0.2132527166064754,0.8421702850053714,38.2012682889138,-68.53750309136741,11.26480273177422,tremor
134,7623089,0.976,-0.4283081373126812,-0.21051786859798685,0.8470864454754028,36.958499413667795,-65.51049550529862,11.20902466629719,tremor
135,7623094,0.981,-0.4265503397579615,-0.20791700698319338,0.851516402121567,35.74656900056244,-62.55268942010557,11.132050710824865,tremor
136,7623099,0.986,-0.4249425953796052,-0.2054455087780367,0.855462527405393,34.57071961503058,-59.68028263804634,11.033278519428993,tremor
137,7623104,0.991,-0.4234730480864862,-0.20309776485066158,0.8589311436230287,33.43552698193072,-56.90883684331339,10.912182735273285,tremor
138,7623109,0.996,-0.42212926244954435,-0.20086725966730007,0.8619325698098381,32.3448507269339,-54.253127496223186,10.768319649408124,tremor
139,7623114,1.001,-0.4208982898120013,-0.1987466634972789,0.8644811018502981,31.30179600068642,-51.72699975075029,10.601330810273234,tremor
140,7623119,1.006,-0.41976674551281196,-0.19672793753096812,0.8665949296027792,30.308685660601007,-49.3432300639592,10.410945741953627,tremor
141,7623124,1.011,-0.4187209024587095,-0.1948024522684826,0.8682959959434278,29.367042492580104,-47.11339355622698,10.196983891483743,tremor
142,7623129,1.016,-0.4177468047833614,-0.19296111928933785,0.8696098033989794,28.47758085258938,-45.047737605948676,9.95935588862625,tremor
143,7623134,1.021,-0.4168304034177495,-0.1911945360993406,0.8705651744932001,27.64020708788536,-43.155062575664594,9.698064175759352,tremor
144,7623144,1.031,-0.4159577132519057,-0.18949314316696148,0.8711939721079944,26.854028137574392,-41.442610933805014,9.413203055574227,tremor
145,7623148,1.035,-0.4151149893984834,-0.18784739152002106,0.8715307861018845,26.11736778000505,-39.91596633057325,9.104958208773795,tremor
146,7623153,1.04,-0.41428891808495055,-0.1862479184116697,0.8716125921916411,25.42779005908174,-38.57896438150812,8.773605746811505,tremor
147,7623158,1.045,-0.4134668161030583,-0.18468572764680175,0.8714783887540958,24.782129462648367,-37.43361698044313,8.419510878955819,tremor
148,7623184,1.071,-0.41263683168201754,-0.18315237027179673,0.8711688168141389,24.176527437869897,-36.48005188452741,8.04312628445178,tremor
149,7623189,1.076,-0.41178813920354435,-0.18164012057201026,0.8707257681115796,23.60647481689769,-35.71646908139758,7.644990288290465,tremor
150,7623194,1.081,-0.410911120363761,-0.1801421418103909,0.8701919858232486,23.06685970289469,-35.13911506596479,7.225724942741261,tremor
151,7623198,1.085,-0.40999752519442306,-0.17865263600159603,0.8696106622690182,22.55202034370997,-34.742275634636904,6.786034115488268,tremor
152,7623203,1.09,-0.40904060772099027,-0.17716697233135575,0.869025037734398,22.055802504415826,-34.51828718511427,6.3267016792253905,tremor
153,7623208,1.095,-0.4080352328238234,-0.17568178958940672,0.868478004362028,21.571620838201515,-34.45756585501529,5.8485898894164485,tremor
154,7623213,1.1,-0.40697795289380156,-0.17419506908816565,0.8680117188613575,21.09252374035419,-34.54865321173282,5.3526380301711765,tremor
155,7623218,1.105,-0.4058670549403046,-0.17270617585858739,0.8676672275334618,20.6112611466297,-34.778276669354376,4.839861406183294,tremor
156,7623227,1.114,-0.4047025807477432,-0.1712158673320323,0.8674841067963984,20.120354704818862,-35.13142238944023,4.311350763901403,tremor
157,7623237,1.124,-0.40348632434214293,-0.16972627013750077,0.8675001220303141,19.61216971058291,-35.59141815225154,3.7682722367361507,tremor
158,7623242,1.129,-0.4022218122857885,-0.16824082698457055,0.8677509071552743,19.078988162157852,-36.14002360102529,3.2118679194420605,tremor
159,7623252,1.139,-0.40091427302743804,-0.16676421678205686,0.8682696669280947,18.513082262158782,-36.75752540090471,2.643457172004495,tremor
160,7623256,1.143,-0.39957060158025776,-0.1653022520815105,0.8690869035161117,17.906787688270786,-37.422835231272785,2.0644387211940955,tremor
161,7623261,1.148,-0.3981993251336685,-0.16386175857207644,0.8702301684887209,17.252575974434727,-38.11358911850422,1.4762935660839611,tremor
162,7623266,1.153,-0.3968105738886534,-0.16245044166083597,0.8717238409670963,16.5431253887225,-38.80624734903461,0.8805886106483923,tremor
163,7623271,1.158,-0.395416059586797,-0.16107674515680384,0.8735889322891955,15.771389754552787,-39.476194997404754,0.27898085564506486,tremor
164,7623276,1.163,-0.39402906207159805,-0.15974970676916908,0.8758429171800098,14.930664727242425,-40.097843883415216,-0.32677810411825053,tremor
165,7623281,1.168,-0.3926644219728766,-0.15847881457796614,0.8784995910661901,14.014651100672657,-40.64473747627774,-0.9348376045508358,tremor
166,7623307,1.194,-0.39133853543248065,-0.1572738678923459,0.8815689528421599,13.01751477683949,-41.08966084959606,-1.5432438448000645,tremor
167,7623312,1.199,-0.3900693448876259,-0.15614484504115364,0.8850571120873227,11.933943084939756,-41.40475822213878,-2.149936655738329,tremor
168,7623316,1.203,-0.3888763185133973,-0.155101779724259,0.8889662194616114,10.75919718718977,-41.56166084253631,-2.7527475569875945,tremor
169,7623321,1.208,-0.3877804102157305,-0.1541546466905135,0.8932944187844076,9.489160355616072,-41.531627929964685,-3.3493995570915915,tremor
170,7623326,1.213,-0.38680399219912837,-0.15331325679016705,0.8980358191429602,8.120381947032298,-41.28570304869267,-3.9375091293900106,tremor
171,7623331,1.218,-0.3859707530918831,-0.15258716092461158,0.9031804852851771,6.6501169421196495,-40.79488772796642,-4.514590753811049,tremor
172,7623336,1.223,-0.3853055562356428,-0.1519855620844762,0.9087144445248909,5.0763609485667995,-40.03033343446481,-5.078064358964442,tremor
173,7623341,1.228,-0.3848342548187887,-0.15151723450170138,0.9146197084223826,3.397880595394672,-38.96355223744325,-5.625265934486747,tremor
174,7623346,1.233,-0.38458346284809586,-0.15119044891085145,0.9208743076012179,1.6142392616848455,-37.566645716979636,-6.153461512241303,tremor
175,7623350,1.237,-0.38458028333470945,-0.15101290299149506,0.9274523382304035,-0.2741819161612826,-35.812550876888935,-6.659864636979001,tremor
176,7623355,1.242,-0.38485199737399983,-0.15099165622268643,0.9343240189459132,-2.266167830298679,-33.67530105626304,-7.141657362114348,tremor
177,7623360,1.247,-0.3854257199120792,-0.15113306860171274,0.9414557573144363,-4.3596580823721895,-31.13029910737528,-7.596014712094123,tremor
178,7623374,1.261,-0.3863280298302073,-0.15144274294514204,0.9488102253583254,-6.551740700696365,-28.154599445524067,-8.020132445180256,tremor
179,7623379,1.266,-0.38758458346768565,-0.15192547078559213,0.9563464441601803,-8.838651076222602,-24.727195011285865,-8.41125782826636,tremor
180,7623384,1.271,-0.389219721753357,-0.15258518218550515,0.9640198781299997,-11.215776336488789,-20.82930476679024,-8.766723008128286,tremor
181,7623389,1.276,-0.3912560816090078,-0.15342490008683615,0.9717825401094461,-13.677665402489637,-16.444657127399008,-9.083980451350767,tremor
182,7623394,1.281,-0.39371422211824686,-0.1544467000746429,0.9795831090515535,-16.218044982445065,-11.559764731527004,-9.360639847407667,tremor
183,7623399,1.286,-0.39661227508363694,-0.1556516766240424,0.9873670624890621,-18.829841744015503,-6.16418614852913,-9.594505832872024,tremor
184,7623404,1.291,-0.3999656280769817,-0.15703991699930261,0.9950768263351094,-21.505210869961584,-0.25077046079719323,-9.783615893202107,tremor
185,7623430,1.317,-0.40378664604833236,-0.15861048396324873,1.0026519447028914,-24.235571141425087,6.184118928054361,-9.926277819193972,tremor
186,7623435,1.322,-0.4080844351853794,-0.16036140832629223,1.010029272356864,-27.01164661094094,13.14040446923143,-10.021106123626438,tremor
187,7623444,1.331,-0.4128646502825339,-0.16228969212452413,1.0171431921040681,-29.823514832117862,20.61412144351576,-10.06705684712705,tremor
188,7623449,1.336,-0.4181293447484185,-0.1643913228948688,1.0239258589103843,-32.66066151740941,28.597274253093964,-10.063460194905023,tremor
189,7623454,1.341,-0.42387686088132187,-0.16666129916098069,1.030307471825277,-35.51204141068418,37.07772436800766,-10.010050452288084,tremor
190,7623459,1.346,-0.43010175732259004,-0.16909366690934796,1.0362165739931388,-38.366145090982194,46.03911215934271,-9.906992638362512,tremor
191,7623464,1.351,-0.4367947705887978,-0.17168156656029462,1.041580380204451,-41.21107136549989,55.460814759230985,-9.754905382254401,tremor
192,7623469,1.356,-0.4439428080897545,-0.17441728974000614,1.0463251306672616,-44.03460486035579,65.31794196550808,-9.55487954588999,tremor
193,7623474,1.361,-0.45152897084424953,-0.17729234503442026,1.0503764690067947,-46.82429837489976,75.58137203901079,-9.308492164375762,tremor
194,7623479,1.366,-0.45953260502039905,-0.18029753183990962,1.0536598419561858,-49.56755952637918,86.21782901914153,-9.017815324209467,tremor
195,7623483,1.37,-0.46792938230227193,-0.18342302140155378,1.0561009177985339,-52.25174117244509,97.1900029062937,-8.685419647276449,tremor
196,7623488,1.375,-0.4766914098063713,-0.18665844413013394,1.057626020360868,-54.86423505531672,108.45671372617853,-8.314372094857172,tremor
197,7623493,1.38,-0.4857873707659185,-0.18999298229864392,1.0581625752320973,-57.39256806145599,119.9731200992005,-7.9082278524395395,tremor
198,7623498,1.385,-0.4951826974317012,-0.19341546722627137,1.0576395648563983,-59.824500434622976,131.69097248566516,-7.471016106049143,tremor
199,7623503,1.39,-0.504839777602281,-0.1969144800543862,1.0559879892121915,-62.1481252201006,143.5589107627311,-7.007219577541302,tremor
200,7623508,1.395,-0.5147181959120269,-0.2004784552005597,1.053141328895392,-64.35196815638565,155.5228052111534,-6.521747752471695,tremor
201,7623513,1.4,-0.5247750105027543,-0.20409578554151386,1.0490360075561822,-66.42508717012845,167.52613935133155,-6.01990381114253,tremor
202,7623518,1.405,-0.5349650650195336,-0.20775492832510786,1.0436118507668315,-68.35717057187018,179.51043237391218,-5.50734536177257,tremor
203,7623522,1.409,-0.5452413350423303,-0.2114445107478439,1.0368125385058953,-70.13863299461343,191.41569816680365,-4.990039174237123,tremor
204,7623527,1.414,-0.5555553071325691,-0.21515343406184473,1.0285860485217675,-71.76070806464091,203.18093715564282,-4.474210221777148,tremor
205,7623554,1.441,-0.5658573876773011,-0.218870974998247,1.0188850878848943,-73.21553674448215,214.74465635908174,-3.9662854530466327,tremor
206,7623559,1.446,-0.5760973376963775,-0.22258688321816028,1.0076675100572876,-74.49625024230929,226.04541223651205,-3.472832832532423,tremor
207,7623564,1.451,-0.5862247287955545,-0.22629147343690717,0.9948967148049309,-75.5970463425613,237.02237012257496,-3.000496295992445,tremor
208,7623569,1.456,-0.5961894145703595,-0.2299757108246777,0.9805420282550819,-76.51325798262985,247.6158733660707,-2.555927360438054,tremor
209,7623579,1.466,-0.6059420110527419,-0.23363128827733648,0.96457906035742,-77.24141288278409,257.76801476464647,-2.1457142005345733,tremor
210,7623589,1.476,-0.6154343792691556,-0.2372506941769355,0.9469900369486609,-77.77928303318545,267.4232025094814,-1.7763090569710176,tremor
211,7623594,1.481,-0.6246201026321595,-0.24082726931717455,0.9277641035472132,-78.12592285704899,276.5287126084924,-1.4539548824036952,tremor
212,7623598,1.485,-0.633454951694366,-0.24435525174908382,0.9068975979138257,-78.28169491111161,285.0352196458254,-1.1846121604863233,tremor
213,7623603,1.49,-0.6418973287382077,-0.2478298084059568,0.8843942882977447,-78.24828206278615,292.8972977789353,-0.9738868548533028,tremor
214,7623613,1.5,-0.6499086847494663,-0.25124705249764934,0.8602655741432959,-78.02868520257039,300.073884082895,-0.8269604593774256,tremor
215,7623618,1.505,-0.6574539015203171,-0.2546040458280155,0.8345306458692386,-77.62720571127186,306.5286967263747,-0.7485231299728233,tremor
216,7623623,1.51,-0.6645016319461858,-0.2578987853921256,0.8072166001720404,-77.0494121074816,312.2306010162996,-0.7427108805335725,tremor
217,7623632,1.519,-0.6710245920265664,-0.2611301738613317,0.7783585071657677,-76.30209056141946,317.1539170976975,-0.8130478171261517,tremor
218,7623637,1.524,-0.6769997986679369,-0.26429797387585313,0.7479994255767024,-75.39317929150083,321.2786640393181,-0.9623943605188354,tremor
219,7623642,1.529,-0.6824087481349869,-0.2674027464481824,0.7161903621827634,-74.3316872728428,324.59073613071916,-1.192902364954935,tremor
220,7623647,1.534,-0.6872375309203486,-0.2704457742456365,0.6829901717516594,-73.12759818543132,327.0820083947876,-1.5059779820542405,tremor
221,7623652,1.539,-0.6914768799089136,-0.2734289710701611,0.6484653939139572,-71.79176109810213,328.7503695223479,-1.9022530491133032,tremor
222,7623679,1.566,-0.695122149987875,-0.2763547794809768,0.6126900237342026,-70.33576998516068,329.59968163064747,-2.381565709975821,tremor
223,7623689,1.576,-0.6981732286634685,-0.2792260591852137,0.5757452132407821,-68.77183474336623,329.6396674257791,-2.9429509070110806,tremor
224,7623693,1.58,-0.700634378738024,-0.28204596949441996,0.5377189018696178,-67.1126468241252,328.88572651218124,-3.5846413009542526,tremor
225,7623698,1.585,-0.702514015617123,-0.2848178497117759,0.4987053746923224,-65.37124280901054,327.35868374495607,-4.30407905341985,tremor
226,7623703,1.59,-0.703824423307885,-0.2875451016626326,0.4588047484501468,-63.56086917342118,325.0844736679738,-5.097938720192013,tremor
227,7623708,1.595,-0.7045814146137259,-0.2902310786294756,0.4181223867947852,-61.69485113926804,322.09376622729286,-5.962161245987375,tremor
228,7623713,1.6,-0.7048039424297788,-0.2928789846798191,0.3767682477165047,-59.78646801675136,318.4215400970437,-6.8919987336728985,tremor
229,7623718,1.605,-0.7045136704009823,-0.2954917878054965,0.33485616787223926,-57.84883687584001,314.1066110937789,-7.882069299290166,tremor
230,7623727,1.614,-0.7037345125093319,-0.29807214947051147,0.29250309035339833,-55.89480583028366,309.1911242493925,-8.926420938478843,tremor
231,7623732,1.619,-0.7024921523673334,-0.3006223721519388,0.2498282442847096,-53.936857699048346,303.72001908608013,-10.01860294897911,tremor
232,7623737,1.624,-0.7008135540351768,-0.3031443653296771,0.20695228642775246,-51.987024368542485,297.74047837478713,-11.15174312217095,tremor
233,7623742,1.629,-0.6987264769390459,-0.30563962922708915,0.16399641655401587,-50.056811848011165,291.3013710404202,-12.318628691063243,tremor
234,7623747,1.634,-0.696259007821517,-0.3081092545249441,0.12108147961830695,-48.15713580436177,284.4526998296191,-13.511788954022974,tremor
235,7623752,1.639,-0.693439122487284,-0.3105539353621309,0.07832706858945121,-46.29826726559604,277.24506387863744,-14.723577602608723,tremor
236,7623756,1.643,-0.6902942893251356,-0.3129739922830919,0.03585064211050708,-44.48978815686111,269.7291454496434,-15.946253043061704,tremor
237,7623766,1.653,-0.6868511251172111,-0.31536940145748465,-0.0062333290571392475,-42.74055633701627,261.95522888610833,-17.172055352247565,tremor
238,7623771,1.658,-0.6831351114460854,-0.3177398265139916,-0.047814173588563845,-41.058679796193005,253.972758313271,-18.393278872705803,tremor
239,7623776,1.663,-0.6791703770860732,-0.32008464969059336,-0.08878577715658525,-39.45149962020506,245.82993883124144,-19.60233975966508,tremor
240,7623803,1.69,-0.6749795481948255,-0.32240299966027175,-0.12904727567727176,-37.92558119776953,237.5733839940531,-20.79183800774459,tremor
241,7623813,1.7,-0.670583664098649,-0.32469377424866086,-0.16850367596510687,-36.486712935088136,229.24781037204423,-21.954613613061976,tremor
242,7623818,1.705,-0.6660021523826323,-0.3269556571680024,-0.20706639783436565,-35.13991148569136,220.895778186121,-23.08379661315963,tremor
243,7623823,1.71,-0.6612528534584725,-0.32918712866849265,-0.24465373409754265,-33.88943228073391,212.55747565887071,-24.172850846416996,tremor
244,7623832,1.719,-0.656352082418013,-0.3313864705164525,-0.2811912272544546,-32.73878403958811,204.27054401619654,-25.215611408460862,tremor
245,7623837,1.724,-0.6513147151579778,-0.3335517659272587,-0.31661196378905715,-31.69074599098872,196.06993993390307,-26.206315938640824,tremor
246,7623842,1.729,-0.646154286465308,-0.3356808951003686,-0.3508567887950419,-30.74738672227103,187.98783244347567,-27.139630010362293,tremor
247,7623847,1.734,-0.640883089684105,-0.33777152695640555,-0.3838744450781552,-29.910083850446732,180.05353168476017,-28.010667000734927,tremor
248,7623851,1.738,-0.6355122703286383,-0.33982110766765466,-0.4156216419043262,-29.17954402655799,172.29344729285106,-28.81500287277473,tremor
249,7623856,1.743,-0.6300519091361955,-0.3418268466548328,-0.44606305917349776,-28.55582310614475,164.73107456029135,-29.548686325820956,tremor
250,7623861,1.748,-0.6245110931842852,-0.3437857008981793,-0.4751712930182549,-28.03834661335681,157.3870067783989,-30.208244769029662,tremor
251,7623866,1.753,-0.6188979765103532,-0.3456943586533852,-0.5029267486931884,-27.625930869466828,150.2789723080247,-30.79068655760458,tremor
252,7623871,1.758,-0.6132198339248383,-0.3475492239314961,-0.529317486191454,-27.31680532980358,143.42189495458265,-31.293499905857438,tremor
253,7623875,1.762,-0.607483113231647,-0.34934640334963857,-0.5543390233707792,-27.108636764745498,136.82797613151706,-31.71464885664391,tremor
254,7623880,1.767,-0.6016934917675658,-0.3510816971383396,-0.5779941005797824,-26.99855592455101,130.50679710061934,-32.052566643899894,tremor
255,7623885,1.772,-0.595855943012713,-0.3527505961559229,-0.6002924099471845,-26.983187244048437,124.46543928662611,-32.30614673437392,tremor
256,7623895,1.782,-0.5899748180365277,-0.35434828667194435,-0.6212502917337498,-27.05868197719704,118.70862028949593,-32.47473177624382,tremor
257,7623900,1.787,-0.5840539448170259,-0.3558696644131214,-0.6408903995424464,-27.220754913582574,113.2388427811134,-32.55810061554769,tremor
258,7623926,1.813,-0.578096746161277,-0.3573093589090112,-0.659241335815906,-27.464724532210795,108.05655301220493,-32.556453466502745,tremor
259,7623931,1.818,-0.5721063743037893,-0.3586617685514276,-0.6763372589842854,-27.785556115172458,103.16030524301755,-32.470395246472556,tremor
260,7623936,1.823,-0.5660858576211951,-0.35992110605369076,-0.6922174638874642,-28.17790702139167,98.54692816787426,-32.30091703407731,tremor
261,7623941,1.828,-0.5600382527199997,-0.36108145326882113,-0.7069259376480402,-28.636173076483033,94.21168946268922,-32.04937561269131,tremor
262,7623946,1.833,-0.5539667938272316,-0.36213682371641115,-0.7205108939164995,-29.154534923567006,90.14845500803683,-31.717471137148436,tremor
263,7623950,1.837,-0.5478750311327594,-0.363081230757039,-0.7330242892129902,-29.727003212121307,86.34984006815368,-31.30722308950672,tremor
264,7623955,1.842,-0.5417669504492673,-0.3639087591671949,-0.7445213258213035,-30.347461650573763,82.80735060374208,-30.820944830450777,tremor
265,7623960,1.847,-0.5356470680832465,-0.36461363789491386,-0.7550599462493268,-31.009707175992023,79.51151383789214,-30.26121717349971,tremor
266,7623965,1.852,-0.5295204969168186,-0.3651903119872265,-0.7647003245910056,-31.70748676704093,76.45199809576003,-29.63086149377015,tremor
267,7623970,1.857,-0.5233929821449292,-0.3656335120362368,-0.7735043601727642,-32.43453071522782,73.61772274584973,-28.932912927374037,tremor
268,7623975,1.862,-0.5172709076438149,-0.365938319943866,-0.7815351786326611,-33.18458245023662,70.99695974516496,-28.170594223380167,tremor
269,7623979,1.866,-0.5111612763064297,-0.3661002303026974,-0.7888566450769653,-33.95142526871631,68.57742880291956,-27.347290783043352,tremor
270,7623989,1.876,-0.5050716696269112,-0.3661152071766652,-0.7955328932229909,-34.72890652633912,66.34638850615406,-26.466527367399728,tremor
271,7623999,1.886,-0.49901019314926987,-0.36597973648639803,-0.8016278735274809,-35.51096000528916,64.29072587439124,-25.531946878895575,tremor
272,7624008,1.895,-0.49298541496155207,-0.3656908745061422,-0.8072049223004746,-36.29162724701578,62.39704669391222,-24.54729152445353,tremor
273,7624018,1.905,-0.4870063041036434,-0.36524629310950474,-0.8123263528334101,-37.065078625120265,60.65176857171492,-23.51638653917994,tremor
274,7624023,1.91,-0.48108217451873403,-0.36464432231790855,-0.8170530687783742,-37.8256348117589,59.04121790388051,-22.443126483587903,tremor
275,7624050,1.937,-0.47522263808689974,-0.3638839903975112,-0.8214441995568326,-38.56778906058213,57.55173089577173,-21.331463922692862,tremor
276,7624064,1.951,-0.4694375675607993,-0.3629650612541272,-0.8255567575506529,-39.28623040645548,56.16975752824895,-20.18540007124765,tremor
277,7624069,1.956,-0.46373706726727565,-0.36188806828020886,-0.8294453172266312,-39.975867511987175,54.88196617837191,-19.00897679037094,tremor
278,7624074,1.961,-0.45813144676262896,-0.360654343240054,-0.8331617170355401,-40.63185254802688,53.675345782444815,-17.80626920713002,tremor
279,7624079,1.966,-0.45263119075995717,-0.3592660383678632,-0.8367547857015671,-41.24960425812604,52.5373021919483,-16.58137824041047,tremor
280,7624084,1.971,-0.447246917935469,-0.35772613968387207,-0.8402700951871923,-41.82482926688452,51.45574571089715,-15.338422443302088,tremor
281,7624088,1.975,-0.44198932173938255,-0.3560384696289872,-0.8437497430713469,-42.353540741902016,50.41916752196247,-14.081528765039058,tremor
282,7624098,1.985,-0.43686908793580104,-0.35420767745339926,-0.8472321672845968,-42.832073677191964,49.416703589745026,-12.814822044059449,tremor
283,7624103,1.99,-0.43189678601988934,-0.35223921632502153,-0.8507519961160361,-43.257096300409366,48.438185530879366,-11.542413237008903,tremor
284,7624108,1.995,-0.4270827346094242,-0.3501393067981118,-0.8543399361639306,-43.62561738827986,47.474178785339845,-10.268386548598112,tremor
285,7624117,2.004,-0.42243684404333925,-0.3479148870433846,-0.8580227004632502,-43.93498957606867,46.516009158626915,-8.996785740581755,tremor
286,7624127,2.014,-0.417968442383901,-0.3455735510229605,-0.8618229784009567,-44.18290904087433,45.5557793847903,-7.731599956882741,tremor
287,7624132,2.019,-0.41368609346324187,-0.3431234765235991,-0.8657594482364959,-44.36741219754711,44.586377741977564,-6.476749407130922,tremor
288,7624137,2.024,-0.4095974172232692,-0.3405733455600682,-0.8698468320953873,-44.48687023907844,43.60148089016969,-5.23607121104211,tremor
289,7624142,2.029,-0.40570892312640255,-0.33793226005001986,-0.8740959922206232,-44.53998245069501,42.59555296337555,-4.013305634090913,tremor
290,7624147,2.034,-0.40202586675761404,-0.3352096557862859,-0.8785140660867875,-44.525769212813415,41.56384254728932,-2.812082856605923,tremor
291,7624173,2.06,-0.3985521379660777,-0.3324152175699918,-0.8831046367618386,-44.443565486807444,40.50237856781927,-1.6359103284349195,tremor
292,7624178,2.065,-0.39529018623287937,-0.32955879793112175,-0.8878679337234754,-44.2930153688702,39.40796539519661,-0.48816067896166476,tremor
293,7624183,2.07,-0.39224098574993876,-0.32665034120092645,-0.8928010583199967,-44.07406803101525,38.27817674787465,0.6279399173876531,tremor
294,7624188,2.075,-0.389404039395729,-0.3236998138997603,-0.8978982273586821,-43.78697508281792,37.11134739596074,1.7093230704886375,tremor
295,7624192,2.079,-0.3867774178371442,-0.3207171415750402,-0.9031510280336753,-43.43228912277831,35.90656132195342,2.7530893711651805,tremor
296,7624197,2.084,-0.3843578276945389,-0.31771215146973447,-0.9085486776078604,-43.010863034379035,34.66363492155689,3.7565196144647435,tremor
297,7624202,2.089,-0.3821407012271701,-0.31469451979432617,-0.9140782818815221,-42.5238494341647,33.383093974934326,4.717086160792676,tremor
298,7624212,2.099,-0.3801202993469682,-0.3116737219559652,-0.9197250874109705,-41.97269959985239,32.06614342876048,5.63246446979487,tremor
299,7624216,2.103,-0.3782898198996925,-0.3086589838885146,-0.9254727235793659,-41.359161188309436,30.71462945162735,6.500544747009499,tremor
300,7624221,2.108,-0.37664150397985063,-0.3056592326334073,-0.9313034318796805,-40.68527408165782,29.330993710720666,7.319443540331115,tremor
301,7624226,2.113,-0.3751667344571055,-0.30268304453692335,-0.93719828106565,-39.95336375851466,27.91822030774017,8.087515022160131,tremor
302,7624231,2.118,-0.37385612274346003,-0.2997385898318117,-0.9431373680879113,-39.16603166758623,26.479776246683176,8.803361602284761,tremor
303,7624236,2.123,-0.3726995819494299,-0.29683357292102164,-0.9491000058956375,-38.32614218616382,25.019546645469354,9.465843443959916,tremor
304,7624241,2.128,-0.37168638677559346,-0.29397516832846493,-0.9550649001931669,-37.43680588648063,23.541766140435552,10.074086410702861,tremor
305,7624245,2.132,-0.37080522257490667,-0.2911699529723433,-0.9610103180426701,-36.50135901174541,22.050948081464867,10.627487964950431,tremor
306,7624250,2.137,-0.3700442278181156,-0.28842383609912103,-0.9669142517427232,-35.52333927065689,20.55181318797237,11.125720580446057,tremor
307,7624255,2.142,-0.3693910355269115,-0.2857419888456725,-0.972754581637431,-34.506458273834475,19.049219331125354,11.568732319105706,tremor
308,7624260,2.147,-0.3688328199618446,-0.2831287759374713,-0.9785092413839059,-33.45457113527135,17.54809401719803,11.956744351349975,tremor
309,7624265,2.152,-0.3683563548690514,-0.2805876924539592,-0.984156388709614,-32.371643927024834,16.053370966109927,12.290245348947725,tremor
310,7624270,2.157,-0.3679480888658304,-0.2781213088747983,-0.9896745838274236,-31.261719789373213,14.569931912525856,12.5699828287088,tremor
311,7624295,2.182,-0.3675942421023833,-0.2757312277388768,-0.9950429764690469,-30.12888454694001,13.10255441936351,12.796951651947387,tremor
312,7624300,2.187,-0.3672809262711552,-0.2734180551720455,-1.000241501009059,-28.977232654588338,11.655866113056788,12.972379973851027,tremor
313,7624305,2.192,-0.3669942875581202,-0.271181390228996,-1.0052510775136883,-27.81083420041828,10.234305370376122,13.097712986162517,tremor
314,7624310,2.197,-0.366720669585995,-0.2690198344097681,-1.0100538149706901,-26.633703551762732,8.842088160583607,13.174594815395324,tremor
315,7624315,2.202,-0.3664467911779879,-0.26693102284991943,-1.0146332116667922,-25.449770079825104,7.483180514609244,13.204848942992363,tremor
316,7624320,2.207,-0.3661599321618717,-0.26491167761106277,-1.018974346832894,-24.262851270099564,6.161275968235776,13.190457517039563,tremor
317,7624325,2.212,-0.36584811955076774,-0.2629576823359357,-1.0230640573218255,-23.07662843294458,4.879777302113641,13.133539932655657,tremor
318,7624329,2.216,-0.3655003062536951,-0.2610641764114204,-1.0268910931919126,-21.894625169993546,3.6417819636549305,13.036331066536835,tremor
319,7624334,2.221,-0.3651065348959176,-0.2592256658128755,-1.0304462465842918,-20.720188716694153,2.450070684518894,12.90115955216946,tremor
320,7624339,2.226,-0.3646580802546032,-0.25743614705828444,-1.0337224491337784,-19.556474255160015,1.3070989738101768,12.73042646827593,tremor
321,7624344,2.231,-0.3641475651188611,-0.2556892402218954,-1.0367148342654577,-18.406432262411933,0.21499133851825059,12.526584780946218,tremor
322,7624349,2.236,-0.36356904593975353,-0.2539783267547841,-1.0394207620194726,-17.2727989200032,-0.8244617690051728,12.292119832133876,tremor
323,7624353,2.24,-0.36291806631732715,-0.2522966879188626,-1.0418398054294198,-16.15808956062647,-1.809804170154079,12.029531110038048,tremor
324,7624358,2.245,-0.36219167805046826,-0.25063763992545957,-1.0439736988729356,-15.06459506782351,-2.73991118289407,11.741315477133853,tremor
325,7624363,2.25,-0.36138843103341606,-0.24899466232928785,-1.045826250143519,-13.99438108018555,-3.613983679244903,11.429951974424721,tremor
326,7624368,2.255,-0.36050833462254733,-0.24736151680565824,-1.0474032192008933,-12.949289785842174,-4.4315388480024245,11.097888269101267,tremor
327,7624373,2.26,-0.35955279414653535,-0.2457323540763087,-1.0487121675978148,-11.930944031559942,-5.192397613114095,10.7475287689266,tremor
328,7624382,2.269,-0.35852452694381093,-0.24410180739808157,-1.0497622834210565,-10.940753419730996,-5.89666877249341,10.381224391338279,tremor
329,7624387,2.274,-0.35742746265470093,-0.2424650716509516,-1.0505641871995561,-9.979922033534969,-6.544730063859422,10.001263949925812,tremor
330,7624392,2.279,-0.3562666324591924,-0.24081796763086039,-1.051129724604072,-9.049457421889299,-7.137206523222774,9.609867107918658,tremor
331,7624418,2.305,-0.3550480515404195,-0.2391569916515224,-1.0514717518726324,-8.150180492359294,-7.674946665128336,9.209178848508916,tremor
332,7624428,2.315,-0.3537785983079903,-0.23747935097820497,-1.051603919731771,-7.282735995472624,-8.158997165930982,8.80126541990096,tremor
333,7624433,2.32,-0.3524658929342909,-0.23578298594767613,-1.051540461144281,-6.447603326963476,-8.59057684876676,8.38811171495749,tremor
334,7624437,2.324,-0.3511181767094596,-0.23406657986136586,-1.05129598752074,-5.645107417046241,-8.971050820809827,7.971620025923597,tremor
335,7624442,2.329,-0.3497441928006816,-0.23232955786391915,-1.0508852971359481,-4.875429517159487,-9.3019055788225,7.553610071090295,tremor
336,7624447,2.334,-0.3483530683552229,-0.23057207603965857,-1.050323198474712,-4.138617739251798,-9.584725784879378,7.135820135774117,tremor
337,7624452,2.339,-0.34695419757176,-0.22879500189460242,-1.0496243501910067,-3.4345972535852205,-9.821173250488394,6.71990912237551,tremor
338,7624457,2.344,-0.34555712536388405,-0.22699988727110168,-1.048803118391211,-2.7631801059893677,-10.012968485360277,6.307459273329879,tremor
339,7624461,2.348,-0.34417143149671736,-0.22518893459604739,-1.0478734511162784,-2.124074668724918,-10.16187498658808,5.899979317363183,tremor
340,7624476,2.363,-0.342806615519459,-0.22336495721749972,-1.0468487692444797,-1.5168947844652192,-10.269686275822547,5.49890779039379,tremor
341,7624481,2.368,-0.3414719833609546,-0.22153133445735906,-1.0457418725875074,-0.9411686954102334,-10.33821554438492,5.105616293602104,tremor
342,7624486,2.373,-0.34017653701107076,-0.21969196191115237,-1.0445648597129857,-0.39634786500838504,-10.369287648476567,4.7214124691735835,tremor
343,7624490,2.377,-0.3389288691844687,-0.21785119746532547,-1.0433290599869798,0.11818420511692415,-10.364733118177043,4.347542496989814,tremor
344,7624495,2.382,-0.3377370651784156,-0.21601380347681534,-1.0420449764667703,0.6031030854192738,-10.326383808513036,3.9851929424120094,tremor
345,7624500,2.387,-0.3366086142519527,-0.2141848855636374,-1.0407222385463355,1.059134417626744,-10.256069822708598,3.6354918163676495,tremor
346,7624505,2.392,-0.33555033276760854,-0.21236982848103075,-1.039369563613438,1.4870448099814388,-10.155617365370157,3.299508744564499,tremor
347,7624510,2.397,-0.3345683010700346,-0.21057422959806896,-1.037994727366104,1.8876326801972296,-10.0268472262873,2.9782541829512486,tremor
348,7624515,2.402,-0.3336678156595896,-0.2088038305393873,-1.0366045428133017,2.261719137938481,-9.871573645963743,2.6726776611297356,tremor
349,7624541,2.428,-0.332853357689104,-0.20706444761306006,-1.0352048483156484,2.6101390316025115,-9.691603365607426,2.383665083243294,tremor
350,7624546,2.433,-0.33212857820969305,-0.20536190170741975,-1.0338005052795967,2.933732306637766,-9.488734711741666,2.1120351648382543,tremor
351,7624551,2.438,-0.3314962999639182,-0.20370194840494882,-1.0323954062741219,3.2333358312656575,-9.264756605015513,1.8585351307328115,tremor
352,7624556,2.443,-0.330958534923848,-0.20209020912603845,-1.0309924943615136,3.5097758398625687,-9.021447412885728,1.623835838444726,tremor
353,7624560,2.447,-0.33051651624287853,-0.20053210417252496,-1.0295937943039042,3.76386112833141,-8.760573588656396,1.4085265205459865,tremor
354,7624565,2.452,-0.33017074285819614,-0.1990327885825582,-1.0282004560326443,3.9963771155989005,-8.48388805898605,1.2131093561767143,tremor
355,7624575,2.462,-0.32992103464832606,-0.19759709172718679,-1.0268128103829923,4.208080865166219,-8.193128341214212,1.03799408762174,tremor
356,7624579,2.466,-0.3297665958102772,-0.1962294615687676,-1.0254304366472224,4.399697141253798,-7.890014390205326,0.8834928938058477,tremor
357,7624584,2.471,-0.32970608396858975,-0.19493391445668665,-1.024052241029672,4.571915554105985,-7.576246188909321,0.749815720487352,tremor
358,7624589,2.476,-0.3297376824652841,-0.19371399125345531,-1.0226765446374142,4.725388826721912,-7.253501104401511,0.6370662488898269,tremor
359,7624598,2.485,-0.3298591733088819,-0.19257272046415325,-1.0213011792440654,4.860732190003321,-6.923431030674686,0.5452386627910795,tremor
360,7624604,2.491,-0.3300680083831655,-0.19151258888966682,-1.019923588747274,4.9785238858949725,-6.587659332487811,0.4742153505406659,tremor
361,7624608,2.495,-0.3303613767282592,-0.19053552014925107,-1.0185409340211102,5.079306730290023,-6.247777593998403,0.4237656540528541,tremor
362,7624613,2.5,-0.3307362659999558,-0.18964286123338875,-1.0171501987560716,5.1635906611233,-5.905342164154032,0.3935457517857969,tremor
363,7624618,2.505,-0.33118951657583573,-0.18883537706653244,-1.015748293887858,5.231856173590668,-5.561870479860053,0.3830997371889875,tremor
364,7624623,2.51,-0.33171786719163876,-0.18811325289141745,-1.014332158336435,5.284558524725871,-5.218837139974877,0.39186192819827925,tremor
365,7624628,2.515,-0.3323179914377019,-0.18747610413859409,-1.0128988539936912,5.322132574308016,-4.877669700487015,0.4191604170261364,tremor
366,7624632,2.519,-0.33298652490110614,-0.18692299331918605,-1.0114456531903637,5.344998118740025,-4.539744165664335,0.4642218426366874,tremor
367,7624637,2.524,-0.33372008318372254,-0.18645245337537553,-1.009970117219345,5.353565569099784,-4.2063801629067825,0.5261773412056283,tremor
368,7624663,2.55,-0.33451527144060156,-0.18606251683978672,-1.00847016487226,5.348241823294632,-3.878835811323849,0.6040696035340319,tremor
369,7624668,2.555,-0.3353686864476672,-0.1857507500892313,-1.0069441303373117,5.329436184082372,-3.5583023257078583,0.6968609446457943,tremor
370,7624673,2.56,-0.33627691249854347,-0.18551429192840346,-1.0053908101815567,5.29756617910758,-3.2458984370119026,0.8034422721656461,tremor
371,7624677,2.564,-0.33723651262001253,-0.1853498957049975,-1.0038094994677051,5.2530631464618285,-2.942664753563112,0.922642828595083,tremor
372,7624682,2.569,-0.3382440166643548,-0.18525397414048927,-1.0022000173074395,5.196377460198351,-2.649558227800623,1.0532405782275986,tremor
373,7624692,2.579,-0.33929590778605123,-0.18522264606122785,-1.000562722321648,5.127983284414569,-2.367446925217448,1.1939731098318493,tremor
374,7624697,2.584,-0.3403886086632851,-0.18525178423205274,-0.99889851857356,5.0483827608728475,-2.097105310798338,1.34354892821048,tremor
375,7624701,2.588,-0.3415184686157335,-0.18533706352812263,-0.997208852583411,4.958109552263382,-1.8392102690909506,1.5006590085556064,tremor
376,7624706,2.593,-0.34268175253464783,-0.18547400872858918,-0.9954957020424516,4.857731679266009,-1.5943380524144146,1.663988485251384,tremor
377,7624711,2.598,-0.3438746323101324,-0.18565804127660473,-0.9937615568356324,4.747853602458204,-1.3629623063411447,1.8322283408129412,tremor
378,7624716,2.603,-0.34509318123737387,-0.18588452442185732,-0.9920093929679074,4.629117508707807,-1.1454532576513026,2.0040869520848803,tremor
379,7624721,2.608,-0.3463333717231877,-0.18614880624180835,-0.9902426399769123,4.502203766575669,-0.9420780767228192,2.178301341978007,tremor
380,7624725,2.612,-0.34759107650335663,-0.18644626012318447,-0.988465142409581,4.367830518378243,-0.7530023531630043,2.353647978448619,tremor
381,7624730,2.617,-0.3488620735190685,-0.1867723223731032,-0.9866811159444439,4.226752380240629,-0.5782925587356532,2.528952960177463,tremor
382,7624736,2.623,-0.3501420545789848,-0.18712252671652518,-0.9848950987555348,4.0797582275454465,-0.41791932280035254,2.703101431969212,tremor
383,7624740,2.627,-0.35142663793659906,-0.18749253552059772,-0.9831118987377451,3.9276680528868875,-0.2717613186698767,2.87504608328927,tremor
384,7624745,2.632,-0.35271138491998166,-0.18787816766405532,-0.9813365372463261,3.7713288980994664,-0.1396095584300632,3.043814600971757,tremor
385,7624750,2.637,-0.3539918207402787,-0.18827542303857567,-0.97957419004399,3.6116098820689873,-0.021171920161673678,3.20851597143398,tremor
386,7624760,2.647,-0.3552634595551841,-0.18868050372664635,-0.9778301261961627,3.449396371629033,0.08392221657046141,3.3683455572858336,tremor
387,7624785,2.672,-0.3565218337565277,-0.18908983194536608,-0.9761096457059184,3.2855833722230376,0.17611727853159134,3.522588906236301,tremor
388,7624795,2.682,-0.3577625272769144,-0.18950006487664145,-0.9744180167301012,3.121068245768342,0.25592671663556854,3.6706242851567463,tremor
389,7624800,2.687,-0.35898121247317566,-0.189908106521569,-0.972760413258502,2.95674289258417,0.3239280168822464,3.8119239674769796,tremor
390,7624805,2.692,-0.3601736898695595,-0.19031111672238812,-0.9711418541578011,2.7934855590912395,0.38075732460708944,3.94605433472618,tremor
391,7624810,2.697,-0.36133592977397716,-0.19070651749311215,-0.9695671444731997,2.632152449953527,0.4271034785431839,4.072674878302851,tremor
392,7624815,2.702,-0.3624641145611256,-0.19109199679433045,-0.9680408198422673,2.4735693304343336,0.46370127390969196,4.19153620154142,tremor
393,7624820,2.707,-0.36355468028002624,-0.19146550988256275,-0.9665670948127177,2.318523301899081,0.4913238359668883,4.302477124296215,tremor
394,7624825,2.712,-0.36460435620917075,-0.19182527836252164,-0.9651498157755507,2.167754921598759,0.5107740738139136,4.405420985444671,tremor
395,7624839,2.726,-0.365610201057141,-0.19216978707320267,-0.9637924191327805,2.0219508185116024,0.5228752859632332,4.500371227236685,tremor
396,7624844,2.731,-0.3665696346859656,-0.19249777894645212,-0.9624978952184204,1.8817369325814772,0.5284610921505252,4.5874063335634,tremor
397,7624854,2.741,-0.36748046450091904,-0.19280824798919222,-0.9612687583848352,1.7476724794631049,0.5283649547014329,4.666674185803941,tremor
398,7624864,2.751,-0.36834090597158564,-0.1931004305562486,-0.960107023556195,1.620244721924278,0.5234096111868035,4.738385897658896,tremor
399,7624869,2.756,-0.36914959707903655,-0.19337379509650796,-0.9590141894398992,1.4998646155672606,0.5143967585413752,4.802809194726992,tremor
400,7624873,2.76,-0.369905606770621,-0.1936280305660122,-0.9579912284806675,1.386863390223067,0.502097309999992,4.860261413491968,tremor
401,7624878,2.765,-0.3706084377022188,-0.19386303370211516,-0.9570385835467601,1.2814901263510712,0.487242501367875,4.911102204913159,tremor
402,7624883,2.77,-0.37125802363481236,-0.19407889533912556,-0.9561561712587063,1.1839103845857601,0.4705160645089888,4.955726037796534,tremor
403,7624909,2.796,-0.371854721831886,-0.19427588591725037,-0.9553433918106892,1.0942059434572329,0.4525476223313373,4.9945546057272034,tremor
404,7624914,2.801,-0.37239930070264915,-0.1944544402964185,-0.9545991450927025,1.0123756934637556,0.43390739647475746,5.0280292484143185,tremor
405,7624919,2.806,-0.3728929227961069,-0.1946151419426301,-0.9539218528931501,0.9383377239570763,0.41510226133846967,5.056603503017626,tremor
406,7624923,2.81,-0.37333712312507883,-0.1947587065187434,-0.9533094869378776,0.8719326220789115,0.39657313212433853,5.080735901450023,tremor
407,7624933,2.82,-0.3737337827344654,-0.1948859648955923,-0.9527596024920698,0.8129279804409414,0.3786936447462249,5.100883124346959,tremor
408,7624938,2.825,-0.37408509744860663,-0.19499784560853048,-0.9522693772073365,0.7610240834732572,0.36177007096560176,5.117493612148657,tremor
409,7624943,2.83,-0.3743935418362525,-0.19509535681674875,-0.9518356548332682,0.7158607127545237,0.34604240738313846,5.131001720933536,tremor
410,7624948,2.835,-0.37466182860045677,-0.19517956787103008,-0.9514549933303017,0.677024980291184,0.3316865753826201,5.141822497511889,tremor
411,7624952,2.839,-0.37489286381186915,-0.19525159065183992,-0.9511237168214176,0.6440600666682466,0.31881766600547295,5.150347136304434,tremor
412,7624962,2.849,-0.375089698634715,-0.19531256089642776,-0.9508379707089787,0.616474709576702,0.3074941566830758,5.156939170432259,tremor
413,7624967,2.854,-0.37525547842361195,-0.19536361978499128,-0.9505937791666139,0.5937532590379614,0.2977230153959043,5.161931440959041,tremor
