sample,t_ms,t_s,ax,ay,az,gx,gy,gz,tremor
0,7646729,0.0,-0.27118030037269014,-0.3759463845145915,-0.9553164410484712,-2.3244252957150504,21.370691113592972,3.8529671715854246,tremor
1,7646734,0.005,-0.2699582248573207,-0.37509023789693846,-0.9571058344960082,-1.4835395321903986,16.560882552527193,3.4500957349629116,tremor
2,7646739,0.01,-0.268328494594009,-0.37388834950172756,-0.9593979821803748,-0.5406700653911714,11.1255813808642,3.0610263741709276,tremor
3,7646744,0.015,-0.2663026327787509,-0.372304121302342,-0.9621111686552999,0.5028379064994832,5.060325633242512,2.6857932775749234,tremor
4,7646754,0.025,-0.2639850518289198,-0.3703638623608591,-0.9650286571560894,1.644792187499903,-1.6350944350634091,2.324181649890093,tremor
5,7646758,0.029,-0.2615247457362451,-0.3681307785312402,-0.9678813050753603,2.882138210538171,-8.956453038762156,1.9757240036776067,tremor
6,7646763,0.034,-0.25907447277225026,-0.3656787429345612,-0.9704100175867925,4.210952208566131,-16.894941985442077,1.6397000526946386,tremor
7,7646768,0.039,-0.2567706858615962,-0.3630773329055817,-0.9723927322689915,5.626443521129071,-25.43706389961396,1.315140401803466,tremor
8,7646773,0.044,-0.2547284693482719,-0.3603864201121013,-0.9736481722963103,7.122966553546799,-34.56456891489234,1.0008341806127388,tremor
9,7646778,0.049,-0.25304362782630996,-0.35765599552996796,-0.9740296847929257,8.694042819600954,-44.25443782293905,0.695340712592,tremor
10,7646783,0.054,-0.2517968504363007,-0.3549280006776276,-0.9734170125724633,10.332393399221427,-54.478914212991214,0.39700524887108196,tremor
11,7646787,0.058,-0.25105762183678515,-0.35223848088605597,-0.9717092490777062,12.029982029287936,-65.20558760476227,0.10397872700631408,tremor
12,7646792,0.063,-0.2508871481142666,-0.3496193990383607,-0.9688197712415956,13.778068917635748,-76.39752897002921,-0.18575856021954518,tremor
13,7646797,0.068,-0.2513402682488898,-0.34709995503842656,-0.9646729646741069,15.56727522702041,-88.01347935446844,-0.4743695822480296,tremor
14,7646802,0.073,-0.25246655020797837,-0.3447074560409218,-0.9592022977456234,17.3876580164108,-100.00809155240965,-0.7641297574186774,tremor
15,7646806,0.077,-0.2543107989801755,-0.3424678369705471,-0.9523493216670239,19.22879525095647,-112.33222395511206,-1.0573930824504507,tremor
16,7646838,0.109,-0.256913166333342,-0.3404059283808573,-0.944063269685853,21.07988029967151,-124.93328479113374,-1.3565556713282578,tremor
17,7646848,0.119,-0.26030900374333316,-0.3385455494747278,-0.9343010241821779,22.929825134230537,-137.75562401490475,-1.6640172642658342,tremor
18,7646853,0.124,-0.26452855893675464,-0.33690948382190294,-0.9230272948532473,24.767371230818256,-150.74096910293179,-1.9821413609252054,tremor
19,7646873,0.144,-0.2695965862671389,-0.335519378805781,-0.9102149034870586,26.581206971431413,-163.8289000318584,-2.31321472209677,tremor
20,7646877,0.148,-0.275531920274202,-0.3343955977316208,-0.8958451058085358,28.360090152623478,-176.95735779139832,-2.6594070651639745,tremor
21,7646882,0.153,-0.2823470478099951,-0.33355704509964,-0.879907903712872,30.09297404481255,-190.06317997552785,-3.0227318418482505,tremor
22,7646887,0.158,-0.29004770486213766,-0.33302097982017725,-0.8624023159957003,31.76913530672288,-203.08265633744975,-3.4050090202967116,tremor
23,7646892,0.163,-0.2986325180147175,-0.33280282728691096,-0.8433365853659847,33.378301949982706,-215.95209671057285,-3.807830787868964,tremor
24,7646902,0.173,-0.30809270621571644,-0.33291599860130555,-0.8227283060326939,34.91077947174844,-228.60840338233567,-4.232531042583059,tremor
25,7646907,0.178,-0.3184118554016858,-0.3333717234188432,-0.8006044607463314,36.35757323133931,-240.9896398362705,-4.680159452032659,tremor
26,7646912,0.183,-0.32956577606359655,-0.334178901566508,-0.7770013596450759,37.71050514139359,-253.0355877380286,-5.151460731798513,tremor
27,7646917,0.188,-0.34152245169136297,-0.3353439775576672,-0.7519644760982989,38.96232277377479,-264.6882841417448,-5.6468596335860495,tremor
28,7646921,0.192,-0.35424208399446383,-0.3368708412670871,-0.7255481772614697,40.10679904210744,-275.8925311455478,-6.166451941240242,tremor
29,7646926,0.197,-0.36767723873544184,-0.3387607572368407,-0.697815349435983,41.13882071229673,-286.59637062631384,-6.710001559330163,tremor
30,7646931,0.202,-0.3817730938700157,-0.3410123243122641,-0.6688369206661425,42.05446410598766,-296.7515172207433,-7.276943554913437,tremor
31,7646963,0.234,-0.3964677894458522,-0.3436214665316668,-0.6386912853516937,42.85105649722665,-306.3137433829635,-7.866392787531122,tremor
32,7646968,0.239,-0.4116928763959572,-0.3465814554108498,-0.6074636380050797,43.52722185973079,-315.24321113774533,-8.477157545834325,tremor
33,7646973,0.244,-0.427373859050702,-0.3498829629916559,-0.575245225560827,44.08290980615461,-323.504746067203,-9.107757421621633,tremor
34,7646978,0.249,-0.4434308240191942,-0.35351414429949424,-0.5421325296937168,44.51940678095623,-331.0680501127599,-9.756444522888948,tremor
35,7646983,0.254,-0.45977914620055715,-0.35746074721713145,-0.5082263922496227,44.839328832110525,-337.907850913373,-10.421227077593636,tremor
36,7646988,0.259,-0.4763302611696298,-0.36170624725169626,-0.4736310980411017,45.04659559295668,-344.00398658223514,-11.099894505282723,tremor
37,7646992,0.263,-0.4929924920585881,-0.3662320042455405,-0.4384534299170632,45.14638544602555,-349.34142599644264,-11.790043112204591,tremor
38,7646997,0.268,-0.5096719183015316,-0.3710174377430211,-0.4028017112474709,45.14507220554151,-353.9102258103711,-12.489101673800755,tremor
39,7647002,0.273,-0.5262732731835038,-0.37604021745707655,-0.36678485083844836,45.050144033727754,-357.70542649838865,-13.194356290548852,tremor
40,7647007,0.278,-0.5427008569940559,-0.3812764650683724,-0.33051140486270064,44.87010568752508,-360.72689078933445,-13.902974029706694,tremor
41,7647017,0.288,-0.5588594526824765,-0.386700963427554,-0.2940886696932045,44.61436556626769,-362.9790888781591,-14.612024993089088,tremor
42,7647027,0.298,-0.5746552312048049,-0.3922873691165416,-0.25762181859041666,44.293109383183584,-364.4708357895075,-15.318502579686111,tremor
43,7647031,0.302,-0.5899966342081816,-0.3980084242687493,-0.2212130940229741,43.91716259258616,-365.2149872098231,-16.019341840238294,tremor
44,7647041,0.312,-0.6047952222959454,-0.4038361635781036,-0.18496106598918402,43.49784394306783,-365.22810095810473,-16.711435942112708,tremor
45,7647046,0.317,-0.6189664778498546,-0.4097421125825123,-0.14895996504206171,43.04681267351208,-364.5300719625995,-17.39165086746655,tremor
46,7647051,0.322,-0.6324305522515071,-0.4156974736270015,-0.11329909682422863,42.575911920034294,-363.14374907260805,-18.056838549837856,tremor
47,7647056,0.327,-0.6451129483376893,-0.4216732964175371,-0.0780623428522568,42.097010874689985,-361.0945421994202,-18.703848715259365,tremor
48,7647060,0.331,-0.6569451300315116,-0.42764063076857317,-0.043327750142515185,41.6218481590126,-358.4100281295186,-19.32953974024351,tremor
49,7647088,0.359,-0.6678650522956446,-0.43357066000146216,-0.009167210136693235,41.161878775204,-355.1195629147286,-19.930788877576372,tremor
50,7647093,0.364,-0.6778176058416335,-0.43943481441642745,0.02435377465151828,40.72812689126437,-351.25390806310486,-20.504502234376034,tremor
51,7647098,0.369,-0.6867549724001722,-0.4452048652569169,0.05717623972051036,40.33104659866397,-346.8448768594133,-21.047624909289574,tremor
52,7647103,0.374,-0.6946368878275965,-0.45085300050836336,0.08924782850880902,39.98039263052952,-341.9250060519008,-21.55715169394572,tremor
53,7647108,0.379,-0.701430811909546,-0.45635188463066817,0.12052278969469138,39.68510282536215,-336.5272568949162,-22.03013870739688,tremor
54,7647113,0.384,-0.7071120054169929,-0.461674704870479,0.1509619095371859,39.45319386529065,-330.68474821759867,-22.463716262090834,tremor
55,7647117,0.388,-0.7116635167373847,-0.4667952071456722,0.18053238777742342,39.29167152376635,-324.43052289129685,-22.855103166167005,tremor
56,7647122,0.393,-0.7150760821913297,-0.4716877246798853,0.20920766615516084,39.20645634332185,-317.79734786392333,-23.20162256145796,tremor
57,7647127,0.398,-0.7173479458924498,-0.47632720263238465,0.23696721879897917,39.20232534375494,-310.81754686212264,-23.50071928805671,tremor
58,7647132,0.403,-0.7184846066487546,-0.4806892219529029,0.2637963136066303,39.28287004440561,-303.52286396047833,-23.749978659099263,tremor
59,7647137,0.408,-0.7184985008644229,-0.4847500256163633,0.2896857532419436,39.450470774807144,-295.944355499966,-23.94714642555494,tremor
60,7647142,0.413,-0.7174086315999728,-0.48848655027076604,0.31463160355169806,39.70628694602439,-288.11230731388366,-24.09014961397478,tremor
61,7647147,0.418,-0.7152401548062051,-0.4918764661634172,0.3386349160862999,40.050262665296835,-280.0561738861962,-24.17711783846457,tremor
62,7647152,0.423,-0.7120239341966828,-0.49489822798686545,0.3617014500483468,40.481146814437466,-271.8045359155323,-24.20640463174511,tremor
63,7647157,0.428,-0.7077960762205616,-0.4975311389904687,0.38384139746496587,40.99652649762698,-263.38507277742883,-24.176608315185696,tremor
64,7647162,0.433,-0.7025974561199662,-0.49975543031688197,0.4050691137671697,41.592872610061455,-254.8245465566456,-24.086591933355376,tremor
65,7647167,0.438,-0.6964732451007498,-0.5015523570241581,0.42540285435830083,42.265596187850456,-246.14879464436882,-23.93550180925816,tremor
66,7647171,0.442,-0.6894724472282753,-0.5029043116247823,0.4448645162685962,43.00911416736853,-237.38272833832136,-23.722784324797946,tremor
67,7647176,0.447,-0.6816474528191647,-0.5037949552013018,0.4634793827251947,43.8169232025343,-228.55033541979986,-23.448200589914574,tremor
68,7647181,0.452,-0.6730536129027515,-0.5042093652453383,0.48127586749869783,44.68168025321429,-219.6746852842068,-23.111838725966123,tremor
69,7647186,0.457,-0.66374883687079,-0.5041341983283412,0.49828525527451895,45.595288756428346,-210.77793584642558,-22.714123547500872,tremor
70,7647213,0.484,-0.6537932128502364,-0.5035578645795604,0.5145414340721705,46.54898931139528,-201.88134210070416,-22.255823477440128,tremor
71,7647218,0.489,-0.643248647796565,-0.5024707097772702,0.5300806159129513,47.53345393460458,-193.00526683410843,-21.738054574387526,tremor
72,7647223,0.494,-0.6321785220713239,-0.5008651997618526,0.5449410425133343,48.538883052463866,-184.16919447477113,-21.162281591012952,tremor
73,7647228,0.499,-0.6206473516692123,-0.4987361010159169,0.5591626737249452,49.5551044757675,-175.39174927980636,-20.530316022563508,tremor
74,7647233,0.504,-0.6087204505842873,-0.4960806507884507,0.572786857668225,50.571673633073004,-166.6907189709007,-19.844311146076425,tremor
75,7647238,0.509,-0.5964635861472536,-0.4928987101528059,0.5858559828761637,51.57797433987136,-158.0830845587324,-19.106754094733784,tremor
76,7647243,0.514,-0.5839426214048496,-0.48919289386842396,0.5984131141147848,52.563319368698544,-149.58505657612497,-18.32045505837867,tremor
77,7647247,0.518,-0.5712231405097068,-0.4849686717832452,0.6105016147402405,53.51705007941203,-141.2121173639296,-17.48853374835969,tremor
78,7647252,0.523,-0.5583700553890275,-0.4802344376609439,0.6221647593991271,54.428634377418675,-132.97906848146485,-16.614403306786848,tremor
79,7647257,0.528,-0.545447194431109,-0.4750015426351774,0.633445341536794,55.28776229356526,-124.9000817811746,-15.701751869231996,tremor
80,7647262,0.533,-0.5325168763695722,-0.46928429188161364,0.6443852805424448,56.084438521734576,-116.98875222577868,-14.754521999530052,tremor
81,7647267,0.538,-0.5196394747875019,-0.46309990446994886,0.6550252334523167,56.809071304948404,-109.25815016314702,-13.776888203151271,tremor
82,7647272,0.543,-0.5068729805702411,-0.4564684376364138,0.6654042159974128,57.452557122692916,-101.72087052986049,-12.773232694081896,tremor
83,7647277,0.548,-0.49427257109783745,-0.44941267783617234,0.6755592374793424,58.00636069634645,-94.38907634111689,-11.748119546775477,tremor
84,7647281,0.552,-0.48189019590243903,-0.4419580018393431,0.685524953552381,58.462589891855444,-87.27453385037067,-10.706267320620388,tremor
85,7647286,0.557,-0.4697741888638646,-0.43413221178594646,0.6953333405446732,58.814065155761284,-80.3886369340548,-9.652520210847458,tremor
86,7647291,0.562,-0.45796891675543794,-0.42596534849912737,0.7050133945197519,59.054383169815836,-73.74241857921962,-8.591817765036161,tremor
87,7647296,0.567,-0.4465144731064307,-0.4174894874804255,0.7145908579019096,59.17797444865576,-67.34654782216951,-7.529163211930692,tremor
88,7647301,0.572,-0.43544642498659275,-0.4087385218989673,0.724087976193261,59.18015463153458,-61.21131109090198,-6.469590478330371,tremor
89,7647305,0.576,-0.4247956185421064,-0.3997479365697128,0.7335232871121533,59.05716922913687,-55.34657761609914,-5.418130015800381,tremor
90,7647310,0.581,-0.41458804703660007,-0.39055457642992647,0.7429114443863712,58.80623157659316,-49.76174935188647,-4.3797736149583795,tremor
91,7647337,0.608,-0.40484478290050696,-0.3811964124057211,0.7522630784345927,58.42555371276733,-44.46569663483188,-3.3594384444210923,tremor
92,7647343,0.614,-0.39558197300749726,-0.37171230685221335,0.7615846962487898,57.914369856100905,-39.46668154726693,-2.361930608694789,tremor
93,7647347,0.618,-0.3868108942500563,-0.36214177999688996,0.7708786229170794,57.272952085683414,-34.77227156934467,-1.3919085683066303,tremor
94,7647352,0.623,-0.3785380646734308,-0.3525247780672641,0.7801429873543694,56.50261777321256,-30.389246535167995,-0.45384679951973167,tremor
95,7647367,0.638,-0.3707654041067309,-0.3429014430913442,0.7893717548862749,55.60572825758376,-26.323502122670313,0.4479999121758907,tremor
96,7647377,0.648,-0.3634904374558362,-0.333311883764577,0.7985548093214139,54.58567821782683,-22.579953132812996,1.3096311446105777,tremor
97,7647381,0.652,-0.3567065335462099,-0.3237959463125435,0.807678087027535,53.44687519239572,-19.162439695709608,2.1273340719092944,tremor
98,7647386,0.657,-0.3504031725358856,-0.3143929839748744,0.8167237652867959,52.19470872738243,-16.073639292185213,2.897714841866956,tremor
99,7647396,0.667,-0.3445662353811296,-0.30514162362087094,0.825670506830759,50.8355087246922,-13.3149870888091,3.617727668759762,tremor
100,7647401,0.672,-0.33917830957029765,-0.2960795281007153,0.8344937619203872,49.37649270533903,-10.886606561940527,4.28470120405716,tremor
101,7647410,0.681,-0.33421900629424534,-0.28724315324475336,0.8431661285974814,47.825701896061894,-8.787251775002547,4.896361749718721,tremor
102,7647420,0.691,-0.3296652853388277,-0.2786674989441448,0.8516577707323151,46.191926281138635,-7.014262031418624,5.450852895215898,tremor
103,7647425,0.696,-0.32549178519203825,-0.27038585447065533,0.8599368921652526,44.48461902635646,-5.563529012798761,5.9467511893149005,tremor
104,7647430,0.701,-0.3216711570498998,-0.26242953910923217,0.8679702635470337,42.713800962217505,-4.4294759890315705,6.383077495866824,tremor
105,7647435,0.706,-0.3181744024505895,-0.25482764026914495,0.8757237964321496,40.88995608378051,-3.605048309934895,6.759303723904788,tremor
106,7647472,0.743,-0.3149712150343975,-0.24760675248721495,0.8831631568552398,39.02391926144505,-3.0817141902781247,7.075354666884847,tremor
107,7647477,0.748,-0.3120303273083825,-0.24079072209610067,0.8902544082033185,37.126757551396786,-2.849474782821025,7.331604741982484,tremor
108,7647482,0.753,-0.3093198632075705,-0.2344004036991166,0.8969646709917906,35.20964665644684,-2.896882670171297,7.5288694963757195,tremor
109,7647492,0.763,-0.3068076966552103,-0.22845343579340877,0.9032627855458746,33.28374423635014,-3.2110681394166325,7.66839184390983,tremor
110,7647497,0.768,-0.30446181529260846,-0.22296404371192108,0.9091199628812259,31.36006190918199,-3.777772850917959,7.751823104587728,tremor
111,7647501,0.772,-0.30225068725466947,-0.2179428783610253,0.9145104093047494,29.44933790848904,-4.581390689876263,7.781199031383202,tremor
112,7647506,0.777,-0.30014362756891344,-0.21339689895158803,0.9194119111957171,27.5619124404538,-5.605015647947853,7.758911117692395,tremor
113,7647511,0.782,-0.2981111597010136,-0.20932930706385502,0.923806367765603,25.70760780506515,-6.830496528201944,7.687673580646567,tremor
114,7647516,0.787,-0.2961253671242216,-0.20573953801017092,0.9276802610832995,23.895615303597246,-8.238498144166275,7.570486506957134,tremor
115,7647520,0.791,-0.29416022961599686,-0.2026233136651445,0.9310250541492889,22.134390856773948,-9.808568543606423,7.410595725387569,tremor
116,7647525,0.796,-0.29219193925882636,-0.19997275884523466,0.9338375092534972,20.43156110799061,-11.519211667855894,7.2114500307976,tremor
117,7647530,0.801,-0.2901991917619811,-0.19777658106797394,0.9361199202594163,18.793841585885758,-13.347964779844409,6.976656427920486,tremor
118,7647535,0.806,-0.28816344961348495,-0.19602031122808114,0.9378802538586611,17.226968252691922,-15.271479969323662,6.7099340889808055,tremor
119,7647540,0.811,-0.28606917459026254,-0.19468660050705316,0.9391321962897665,15.735643474168029,-17.265609076130122,6.415067729176359,tremor
120,7647544,0.815,-0.2839040281712797,-0.19375556678670386,0.9398951035695347,14.323497123268888,-19.305491459767214,6.095861099226428,tremor
121,7647550,0.821,-0.2816590392928872,-0.19320518205439954,0.940193854991526,12.993063187653215,-21.365644177305985,5.756091275935179,tremor
122,7647554,0.825,-0.2793287395511911,-0.19301169084284667,0.9400586115321238,11.745771906594678,-23.420054295646853,5.399464401929147,tremor
123,7647559,0.83,-0.27691126630638996,-0.19315004870072996,0.939524482872832,10.581957127789583,-25.442273237961235,5.029573486454125,tremor
124,7647595,0.866,-0.2744084341225547,-0.19359436908784902,0.9386311089694059,9.500878255232157,-27.40551322512145,4.649858830897822,tremor
125,7647600,0.871,-0.2718257745892845,-0.19431836695664667,0.9374221643930324,8.50075586151524,-29.28274599701792,4.263571584058974,tremor
126,7647605,0.876,-0.2691725439335796,-0.19529578762789498,0.9359447958669722,7.578819774615885,-31.04680406178574,3.873740862173676,tremor
127,7647609,0.88,-0.26646169716773077,-0.1965008103756985,0.9342490052710545,6.7313682398751,-32.670484710014414,3.4831447900388812,tremor
128,7647614,0.885,-0.2637098270808779,-0.19790841735544581,0.9323869916462783,5.953836615479322,-34.12665695922159,3.0942857376343214,tremor
129,7647619,0.89,-0.2609370663156645,-0.19949472004494023,0.9304124662963801,5.2408739813462475,-35.388371499070075,2.7093699451718263,tremor
130,7647623,0.894,-0.25816695108089305,-0.2012372371041891,0.9283799550001814,4.586426014631032,-36.42897362804839,2.330291648156305,tremor
131,7647628,0.899,-0.2554262456486836,-0.2031151193779613,0.9263441007398338,3.9838225004862866,-37.222219124005136,1.9586217300168782,tremor
132,7647633,0.904,-0.2527447275585247,-0.20510931957526038,0.9243589793368232,3.425867900082807,-37.742392968198324,1.5956008410550147,tremor
133,7647638,0.909,-0.2501549342990311,-0.20720270589424708,0.9224774390672192,2.9049334867830057,-37.96443082899391,1.242136829772769,tremor
134,7647643,0.914,-0.24769187308065774,-0.20938012047325533,0.9207504737784498,2.413049683042054,-37.864043190448264,0.8988062404574265,tremor
135,7647653,0.924,-0.2453926960933137,-0.2116283850085602,0.9192266373180277,1.941997382951848,-37.41784197258473,0.5658595455631789,tremor
136,7647662,0.933,-0.24329634433085084,-0.21393625717155845,0.9179515052699432,1.483397226981104,-36.603469433867964,0.2432297090235996,tremor
137,7647672,0.943,-0.24144316365170823,-0.21629434257664357,0.9169671881379508,1.0287960035505768,-35.39972908154957,-0.06945637853637009,tremor
138,7647677,0.948,-0.23987449724296162,-0.21869496799875415,0.9163118982868163,0.5697495792224894,-33.78671825858612,-0.3728640867911859,tremor
139,7647682,0.953,-0.2386322590878925,-0.2211320223261718,0.9160195712325196,0.09790199266299901,-31.745962045050423,-0.6679353610373632,tremor
140,7647713,0.984,-0.23775849342864666,-0.2236007723754893,0.9161195403390051,-0.3949394287840968,-29.260548118845907,-0.9558716574217125,tremor
141,7647718,0.989,-0.23729492556614762,-0.22609766120140767,0.9166362626978796,-0.9167328735067252,-26.315262257559674,-1.2381159461312194,tremor
142,7647727,0.998,-0.23728250960274921,-0.22862009688252266,0.917589092991424,-1.4751345601600734,-22.896724196975153,-1.51633415905827,tremor
143,7647732,1.003,-0.23776097881940778,-0.2311662398891336,0.918992101509007,-2.0774346559254413,-18.9935235462025,-1.7923963644657823,tremor
144,7647737,1.008,-0.23876840420656165,-0.23373479695532912,0.9208539322104188,-2.7304962614960133,-14.596355367632157,-2.068357845531615,tremor
145,7647742,1.013,-0.24034076622345463,-0.23632482883115402,0.9231776967604934,-3.4406971513663835,-9.698154870652447,-2.346440156019099,tremor
146,7647747,1.018,-0.24251154420982005,-0.23893557838538304,0.9259609007114781,-4.213874024019444,-4.29423046844393,-2.629012135344055,tremor
147,7647751,1.022,-0.24531132711885192,-0.24156632431730093,0.929195398398842,-5.055269110951247,1.6176057724347075,-2.918570790673354,tremor
148,7647757,1.028,-0.2487674484780456,-0.24421626429495052,0.9328673735894296,-5.969479109202538,8.036911491649853,-3.217721894439904,tremor
149,7647761,1.032,-0.2529036477900527,-0.24688442975738129,0.9369573434574796,-6.960406534003482,14.960492646663766,-3.529160101096757,tremor
150,7647766,1.037,-0.2577397600121541,-0.24956963299421317,0.9414401840639846,-8.031213731134859,22.382289064982032,-3.855648358616849,tremor
151,7647771,1.042,-0.26329143433187324,-0.25227044554002964,0.94628517618531,-9.184279937105101,30.293268870401793,-4.199996380595797,tremor
152,7647781,1.052,-0.26956988319643493,-0.25498520547642384,0.9514560710818954,-10.42116192259387,38.68133395097227,-4.565037955445421,tremor
153,7647786,1.057,-0.27658166244090143,-0.2577120499901228,0.9569111766100256,-11.742558891926507,47.531238849087146,-4.953606900909114,tremor
154,7647791,1.062,-0.2843284833610397,-0.26044896854998867,0.9626034649329801,-13.14828242655388,56.82452563062377,-5.368511525337125,tremor
155,7647795,1.066,-0.2928070576496768,-0.26319387138702455,0.9684807039314148,-14.637232340407072,66.5394774133564,-5.8125075304053535,tremor
156,7647800,1.071,-0.3020089762160761,-0.26594466761843555,0.9744856151739086,-16.207379350829545,76.65109328895673,-6.288269378698071,tremor
157,7647805,1.076,-0.3119206229992864,-0.2686993473469748,0.9805560619069495,-17.855755459708647,87.13108734605096,-6.798360246993626,tremor
158,7647831,1.102,-0.322523124940764,-0.27145606235657277,0.9866252708873385,-19.57845288943968,97.94791438642005,-7.3452007852998396,tremor
159,7647836,1.107,-0.33379233928074353,-0.27421320056033394,0.9926220919513634,-21.37063233180784,109.06682471687932,-7.931036997647551,tremor
160,7647841,1.112,-0.34569887927542664,-0.27696945007445695,0.9984712989498379,-23.226541149443776,120.44995009329105,-8.557907651618997,tremor
161,7647846,1.117,-0.35820817929104176,-0.2797238496283312,1.0040939350554658,-25.13954202678722,132.05642249717908,-9.227611710323236,tremor
162,7647851,1.122,-0.37128060001519414,-0.28247582292074713,1.009407704497278,-27.10215241097461,143.8425269590469,-9.941676362223635,tremor
163,7647856,1.127,-0.3848715742445922,-0.285225195451511,1.0143274115862033,-29.106094922324623,155.76188913326692,-10.70132629525961,tremor
164,7647861,1.132,-0.3989317933810212,-0.287972193267551,1.018765446594936,-31.142358753703398,167.76569780214467,-11.507454913442018,tremor
165,7647865,1.136,-0.41340743442072503,-0.29071742394328104,1.0226323167704998,-33.201271917265295,179.8029619577143,-12.360598218549526,tremor
166,7647870,1.141,-0.42824042688237074,-0.2934618409506412,1.0258372195871663,-35.27258403299486,191.8208015897201,-13.26091207014447,tremor
167,7647875,1.146,-0.44336875880623655,-0.2962066933483986,1.0282886543543468,-37.34555918411387,203.76477080765912,-14.208153488177695,tremor
168,7647885,1.156,-0.458726820683841,-0.2989534634134879,1.0298950675105054,-39.40907818944459,215.57921145295225,-15.201666571384813,tremor
169,7647890,1.161,-0.47424578594185524,-0.30170379542385756,1.030565526361969,-41.4517494632722,227.20763491446178,-16.240373475663336,tremor
170,7647895,1.166,-0.48985402638878867,-0.30445941924674885,1.0302104156383511,-43.46202745149682,238.59312943420966,-17.322770740938044,tremor
171,7647899,1.17,-0.5054775608014939,-0.3072220726440405,1.0287421509832522,-45.4283374525958,249.67878976182428,-18.446931087278955,tremor
172,7647904,1.175,-0.5210405345333001,-0.30999342623701037,1.026075903314867,-47.339205457383606,260.4081655707481,-19.610510634988277,tremor
173,7647909,1.18,-0.5364657276205671,-0.3127750148575132,1.0221303278123242,-49.18339147684745,270.72572457920575,-20.810761349915065,tremor
174,7647914,1.185,-0.551675088318377,-0.3155681785584329,1.0168282910611746,-50.95002467643336,280.57732582675027,-22.044548381408664,tremor
175,7647919,1.19,-0.5665902882997697,-0.31837401588961,1.0100975895980286,-52.62873850180344,289.91069805494266,-23.308371848441475,tremor
176,7647924,1.195,-0.5811332949214992,-0.3211933512032726,1.0018716527248943,-54.20980386751297,298.6759176450575,-24.598392538559406,tremor
177,7647929,1.2,-0.5952269550323646,-0.3240267167800114,0.9920902220341197,-55.684258385683954,306.8258800909473,-25.910460913203984,tremor
178,7647956,1.227,-0.6087955838434093,-0.3268743495161383,0.9806999996294614,-57.044029533953875,314.3167585437036,-27.240148761432188,tremor
179,7647961,1.232,-0.6217655514926816,-0.32973620085460675,0.9676552566012002,-58.28204960014789,321.1084425837681,-28.582782812935942,tremor
180,7647971,1.242,-0.6340658592648168,-0.3326119576673145,0.9529183929892446,-59.39236020198191,327.16495012143673,-29.933479612711196,tremor
181,7647976,1.247,-0.6456286971338999,-0.33550107101600063,0.936460440338937,-60.3702041782119,332.4548052935889,-31.28718097655792,tremor
182,7647986,1.257,-0.6563899745014394,-0.33840278922024647,0.918261498096468,-61.212102698507785,336.9513754806828,-32.638689389116735,tremor
183,7647990,1.261,-0.6662898166893184,-0.3413161914699857,0.8983110955335302,-61.91591555324452,340.6331611079125,-33.98270277039522,tremor
184,7647995,1.266,-0.6752730207900903,-0.3442402182985687,0.8766084716122386,-62.48088276872857,343.48403265716723,-35.31384811627771,tremor
185,7648000,1.271,-0.6832894656977173,-0.3471736955148808,0.8531627661536412,-62.90764595703552,345.4934102312447,-36.6267136071387,tremor
186,7648005,1.276,-0.6902944723893546,-0.35011534861830584,0.827993116807744,-63.19824816030566,346.65638201726074,-37.915878872074174,tremor
187,7648010,1.281,-0.6962491117082257,-0.3530638052445658,0.8011286576009167,-63.35611138618057,346.9737590423478,-39.17594319298057,tremor
188,7648015,1.286,-0.7011204579690484,-0.3560175837862501,0.7726084162285554,-63.3859915417445,346.45206466820935,-40.40155153393723,tremor
189,7648019,1.29,-0.7048817876653045,-0.35897506698436676,0.742481108744266,-63.29391103698701,345.1034583182911,-41.58741838995288,tremor
190,7648025,1.296,-0.7075127234093509,-0.36193445998982504,0.71080483185243,-63.08706992090684,342.9455939719642,-42.72834956992565,tremor
191,7648029,1.3,-0.7089993239910956,-0.36489373314334955,0.6776466546217942,-62.77373701059527,340.0014149987238,-43.81926216799886,tremor
192,7648034,1.305,-0.709334122105751,-0.3678505505154563,0.6430821130872708,-62.36312305608076,336.2988879472049,-44.85520313688631,tremor
193,7648039,1.31,-0.7085161118783724,-0.3708021860773159,0.6071946128780537,-61.86523853118486,331.87067895343756,-45.83136704156997,tremor
194,7648044,1.315,-0.7065506887976022,-0.3737454302240651,0.5700747466838192,-61.29073912653151,326.7537774911023,-46.7431137064336,tremor
195,7648049,1.32,-0.7034495450506186,-0.3766764902208063,0.5318195350312466,-60.65076241272911,320.9890732437858,-47.58598652746491,tremor
196,7648080,1.351,-0.6992305235083656,-0.3795908889524615,0.49253160047910133,-59.9567594073849,314.62089290745223,-48.35573216787586,tremor
197,7648085,1.356,-0.6939174337266352,-0.38248336706903957,0.45231828692973164,-59.22032488526977,307.6965046775974,-49.048322181516966,tremor
198,7648090,1.361,-0.6875398332884683,-0.3853477941098149,0.4112907372301018,-58.45303017387446,300.26559895743804,-49.659976837389706,tremor
199,7648104,1.375,-0.6801327776100378,-0.38817709429279584,0.36956294346722557,-57.66626184381207,292.379754348539,-50.187191099086505,tremor
200,7648109,1.38,-0.671736540984319,-0.3909631922244988,0.32725078520269946,-56.87106916391268,284.0918981974109,-50.62676240198891,tremor
201,7648114,1.385,-0.6623963111985663,-0.3936969828024251,0.2844710712310035,-56.078022557294354,275.4557708694085,-50.97581961777058,tremor
202,7648119,1.39,-0.652161859609505,-0.3963683281825873,0.2413406002334668,-55.297084706708766,266.52540252591206,-51.23185243230579,tremor
203,7648124,1.395,-0.6410871881638355,-0.39896608308216935,0.19797525492366796,-54.53749549860366,257.3546105166339,-51.39274029655109,tremor
204,7648129,1.4,-0.6292301545524869,-0.4014781480968826,0.1544891429747439,-53.80767166915099,247.99652460803827,-51.45678012113487,tremor
205,7648133,1.404,-0.61665207649795,-0.4038915493023193,0.11099379626791946,-53.11512178201096,238.50314620914324,-51.42271194315888,tremor
206,7648138,1.409,-0.6034173160912866,-0.40619254128940774,0.06759743792041896,-52.466376983512035,228.92494657789783,-51.28974187302532,tremor
207,7648144,1.415,-0.5895928451097707,-0.4083667300120174,0.02440432426445112,-51.86693781229768,219.31050773180897,-51.05756171549508,tremor
208,7648148,1.419,-0.575247792348449,-0.4103992114109249,-0.01848583342375692,-51.32123716024042,209.70620847983935,-50.726364743947215,tremor
209,7648153,1.424,-0.5604529741831212,-0.4122747216990969,-0.06097836499606339,-50.83261926806263,200.15595667735064,-50.29685718450951,tremor
210,7648158,1.429,-0.5452804098471689,-0.41397779539723467,-0.10298405508560377,-50.40333437979178,190.7009675237974,-49.77026503632063,tremor
211,7648168,1.439,-0.5298028232558031,-0.4154929276218805,-0.14441947613695325,-50.03454837550357,181.37958651638334,-49.14833591898942,tremor
212,7648173,1.444,-0.5140931336643219,-0.4168047376628166,-0.18520724432601704,-49.72636636921823,172.22715458587092,-48.43333570426834,tremor
213,7648178,1.449,-0.4982239380331508,-0.417898131452745,-0.22527620322019476,-49.47786893152683,163.27591202380222,-47.62803976438387,tremor
214,7648235,1.506,-0.48226698874070667,-0.41875846105685305,-0.26456154092319434,-49.287159317031275,154.5549371273523,-46.73571876592337,tremor
215,7648245,1.516,-0.46629267129063345,-0.41937167975501105,-0.3030048468727356,-49.15141989044578,146.0901151252345,-45.76011906650013,tremor
216,7648255,1.526,-0.4503694879305506,-0.4197244916708509,-0.34055411445603956,-49.066975898695404,137.9041330120321,-44.70543793151539,tremor
217,7648260,1.531,-0.4345635545753611,-0.41980449528180486,-0.37716369528586624,-49.02936486638195,130.01649647313684,-43.576293961761195,tremor
218,7648270,1.541,-0.418938119904303,-0.4196003205837423,-0.41279421045225384,-49.033410197476385,122.44356604574301,-42.37769327801197,tremor
219,7648279,1.55,-0.4035531166420342,-0.4191017601945075,-0.44741242338401305,-49.0732979903737,115.1986107939095,-41.11499211771463,tremor
220,7648284,1.555,-0.3884647554849922,-0.41829989521573324,-0.4809910781137941,-49.14265652358132,108.29187880796447,-39.79385654897108,tremor
221,7648294,1.565,-0.37372517164298025,-0.4171872171493733,-0.5135087057415924,-49.23463825210804,101.73068458909204,-38.42022000380627,tremor
222,7648299,1.57,-0.3593821324412615,-0.4157577474839188,-0.5449494007912535,-49.34200440093467,95.51951377126682,-37.00023929366878,tremor
223,7648326,1.597,-0.3454788119482038,-0.41400715661706533,-0.575302568072194,-49.457212317142286,89.6601456584313,-35.540249714857254,tremor
224,7648331,1.602,-0.33205363540217286,-0.41193288347070034,-0.6045626397617415,-49.57250564798049,84.1517937524818,-34.04671979158197,tremor
225,7648335,1.606,-0.31914019270366856,-0.4095342564279895,-0.6327287619182874,-49.68000718211139,78.99126388365539,-32.52620613799833,tremor
226,7648345,1.616,-0.3067672168911571,-0.40681261510181366,-0.6598044497302326,-49.771813881119606,74.17312882206345,-30.985308840119757,tremor
227,7648355,1.626,-0.2949586207556052,-0.40377143103579444,-0.6857972116191503,-49.84009329770893,69.68991746273203,-29.430627665285126,tremor
228,7648360,1.631,-0.28373358281892347,-0.40041642392494536,-0.7107181437887203,-49.87718027292034,65.53231595677278,-27.868719317873268,tremor
229,7648364,1.635,-0.2731066728709143,-0.3967556685417875,-0.7345814987171306,-49.875672558284215,61.689377608299054,-26.306055897703345,tremor
230,7648369,1.64,-0.263088007083835,-0.39279968646768704,-0.75740423313435,-49.82852383793592,58.1487380262713,-24.748984693424788,tremor
231,7648374,1.645,-0.2536834233065638,-0.3885615160904903,-0.7792055429395959,-49.729132535603334,54.896831911574544,-23.20368945198831,tremor
232,7648379,1.65,-0.2448946683474813,-0.3840567541811589,-0.8000063941004376,-49.57142477736282,51.919107929795864,-21.676153292655588,tremor
233,7648384,1.655,-0.23671959072544918,-0.3793035626786904,-0.8198290597021491,-49.34992993561522,49.2002383208908,-20.172123465964024,tremor
234,7648389,1.66,-0.22915233432933024,-0.3743226350346514,-0.8386966739063841,-49.05984729644632,46.7243201965008,-18.697078185444365,tremor
235,7648394,1.665,-0.2221835305067889,-0.36913711752459477,-0.8566328135989704,-48.697102565087945,44.47506585643883,-17.256195778393415,tremor
236,7648398,1.669,-0.21580048813945785,-0.3637724822504428,-0.8736611179613002,-48.25839314534532,42.43597990385633,-15.85432640984312,tremor
237,7648403,1.674,-0.2099873831049263,-0.3582563500679321,-0.8898049551174124,-47.74122139113369,40.59052144152354,-14.495966629380069,tremor
238,7648408,1.679,-0.20472545004585038,-0.35261826331821305,-0.9050871434343583,-47.14391532384744,38.92225018234523,-13.185236973234128,tremor
239,7648413,1.684,-0.1999931804551291,-0.3468894099744884,-0.9195297330441528,-46.465636628619315,37.414955903316276,-11.925862828808302,tremor
240,7648418,1.689,-0.19576653166305494,-0.34110230259348456,-0.933153850781781,-45.706376074432676,36.052771308501164,-10.721158746340535,tremor
241,7648451,1.722,-0.19201915132914105,-0.33529041725121855,-0.9459796090850565,-44.86693683730677,34.82026902399465,-9.574016373469115,tremor
242,7648456,1.727,-0.1887226214940775,-0.32948779939348477,-0.9580260766151903,-43.94890653317149,33.702544074346925,-8.48689619222425,tremor
243,7648461,1.732,-0.18584672519921355,-0.32372864515266053,-0.9693113056628667,-42.954619072094005,32.68528368287746,-7.461823232518609,tremor
244,7648466,1.737,-0.1833597372675722,-0.31804686803205795,-0.9798524091290122,-41.887107700744636,31.75482646998788,-6.5003868878926365,tremor
245,7648471,1.742,-0.18122873922741034,-0.3124756617886205,-0.9896656783165654,-40.750050774929825,30.89821302660921,-5.603744851455391,tremor
246,7648485,1.756,-0.1794199566798271,-0.3070470707627867,-0.9987667320702786,-39.54771188079176,30.10322946313826,-4.772631040592689,tremor
247,7648490,1.761,-0.17789911574407527,-0.30179157879156515,-1.0071706878778603,-38.284875899731034,29.35844499990457,-4.007367225824986,tremor
248,7648495,1.766,-0.1766318136129579,-0.29673772721621927,-1.0148923461993788,-36.96678249536291,28.65324409599448,-3.307877955485703,tremor
249,7648500,1.771,-0.1755838967862492,-0.291911771391815,-1.0219463803020357,-35.59905830758071,27.97785310549498,-2.6737082927190086,tremor
250,7648505,1.776,-0.17472183931385116,-0.28733738357720534,-1.0283475250491538,-34.18764890098868,27.323361070382195,-2.1040438583426573,tremor
251,7648510,1.781,-0.1740131124665854,-0.2830354082244574,-1.0341107592727798,-32.738751275062675,26.6817340365097,-1.5977326924188955,tremor
252,7648514,1.785,-0.17342653674508376,-0.27902367362486846,-1.0392514774423767,-31.258747538595912,26.045822211098983,-1.1533084933189515,tremor
253,7648519,1.79,-0.172932607106506,-0.27531686174747855,-1.0437856472649159,-29.75414020150732,25.409359350657244,-0.7690148530412572,tremor
254,7648524,1.795,-0.17250378278170167,-0.2719264360605778,-1.0477299505896287,-28.231489446522648,24.766953955985137,-0.44283017365107674,tremor
255,7648529,1.8,-0.17211473407956526,-0.2688606252701076,-1.051101905549582,-26.69735270428541,24.114072127921162,-0.17249301619827226,tremor
256,7648534,1.805,-0.17174254009281842,-0.2661244593258423,-1.0539199682786615,-25.158226854239246,23.44701226863029,0.044472305155188116,tremor
257,7648539,1.81,-0.17136683315370707,-0.2637198527936384,-1.0562036128353156,-23.620493392217416,22.7628721590776,0.21073002004063773,tremor
258,7648544,1.815,-0.17096988813364353,-0.2616457298008526,-1.0579733881888838,-22.09036692499444,22.059509263930316,0.32910718881608464,tremor
259,7648568,1.839,-0.1705366571069625,-0.2598981842393171,-1.0592509513289652,-20.573847355931118,21.335495375190796,0.4025680554057185,tremor
260,7648573,1.844,-0.17005475233575443,-0.2584706687401914,-1.060059075794475,-19.07667610405023,20.59006687713256,0.434188531544102,tremor
261,7648588,1.859,-0.1695143827418797,-0.2573542060776901,-1.0604216352402254,-17.604296647343567,19.823071975323078,0.4271308800473719,tremor
262,7648592,1.863,-0.16890825071974083,-0.25653761704870537,-1.0603635621083394,-16.161819602591688,19.034916171314077,0.3846186805940728,tremor
263,7648597,1.868,-0.1682314170663532,-0.2560077594278307,-1.0599107820554787,-14.753992460654201,18.22650709886403,0.3099121903562367,tremor
264,7648607,1.878,-0.16748114190040542,-0.25574977322589604,-1.0590901254562577,-13.385174007103258,17.39919961313392,0.2062842483606379,tremor
265,7648612,1.883,-0.16665670884511505,-0.25574732811832485,-1.0579292179721753,-12.059313388532127,16.554741792433628,0.07699690849413669,tremor
266,7648617,1.888,-0.16575923870351633,-0.25598286952085153,-1.0564563527560693,-10.779933738629232,15.695222307184602,-0.07472098610764429,tremor
267,7648622,1.893,-0.16479149760792303,-0.2564378603621126,-1.0547003472879564,-9.550120250646845,14.823019449064331,-0.24569506046656786,tremor
268,7648636,1.907,-0.16375770337769818,-0.2570930161343686,-1.0526903880696101,-8.37251256897879,13.940752000092834,-0.4328252726103271,tremor
269,7648641,1.912,-0.1626633327079066,-0.2579285312949981,-1.0504558664306547,-7.249301368907931,13.05123205451499,-0.6331041803018007,tremor
270,7648646,1.917,-0.16151493092016372,-0.25892429553755675,-1.0480262085336267,-6.182228996861576,12.157419878834036,-0.8436334365332525,tremor
271,7648651,1.922,-0.1603199253840368,-0.26006009884166437,-1.0454307023483687,-5.1725940486902635,11.262380898014516,-1.0616383828977372,tremor
272,7648661,1.932,-0.15908644337592265,-0.2613158245338582,-1.0426983239545038,-4.2212597648784,10.369244916354289,-1.284480657589075,tremor
273,7648666,1.937,-0.15782313505411658,-0.2626716298387294,-1.0398575650932818,-3.3286661146724543,9.4811677038853,-1.5096687831236866,tremor
274,7648690,1.961,-0.15653900232857357,-0.26410811356807096,-1.0369362634997457,-2.4948454225629226,8.601295087266745,-1.7348667434863827,tremor
275,7648705,1.976,-0.15524323460443715,-0.2656064706863436,-1.0339614372717798,-1.7194413577524819,7.7327296674117045,-1.957900598277927,tremor
276,7648710,1.981,-0.15394505258505514,-0.2671486335109297,-1.0309591244232363,-1.0017310596266922,6.87850024407564,-2.1767632117061675,tremor
277,7648715,1.986,-0.15265356144871067,-0.2687173992741846,-1.0279542288323371,-0.34065011368801684,6.041533970247285,-2.389617197630309,tremor
278,7648725,1.996,-0.1513776147144356,-0.27029654372002804,-1.0249703739923623,0.26517996882256767,5.224631201573703,-2.59479619961767,tremor
279,7648729,2.0,-0.15012568998608075,-0.2718709203598262,-1.022029766223442,0.8174221689844046,4.430442961197568,-2.7908046384860716,tremor
280,7648734,2.005,-0.1489057775489561,-0.2734265449904557,-1.0191530692306099,1.3179927185157208,3.661450914917011,-2.976316070608058,tremor
281,7648739,2.01,-0.1477252825415746,-0.27495066509109356,-1.0163592920271103,1.7690286658265244,2.9199497465668913,-3.1501703098632325,tremor
282,7648744,2.015,-0.1465909411806228,-0.2764318137671934,-1.0136656922398006,2.172854725909656,2.208031836884678,-3.311369475443683,tremor
283,7648754,2.025,-0.14550875130897264,-0.27785984799967617,-1.0110876966618119,2.531949884287061,1.5275741769958149,-3.4590731362419924,tremor
284,7648758,2.029,-0.14448391737763996,-0.27922597108208586,-1.008638840631747,2.8489142071441576,0.8802274848597709,-3.5925927282671246,tremor
285,7648764,2.035,-0.1435208098633803,-0.2805227392848693,-1.0063307274306212,3.126436281822741,0.2674075330813396,-3.711385422056359,tremor
286,7648773,2.044,-0.14262293905359283,-0.2817440529697434,-1.0041730084330276,3.3672616764113985,-0.30971126826806034,-3.81504761100529,tremor
287,7648778,2.049,-0.14179294308034748,-0.2828851325827384,-1.0021733842619978,3.574162766837487,-0.8501999674981099,-3.903308178739081,tremor
288,7648783,2.054,-0.14103259003070856,-0.283942480174673,-1.0003376267112913,3.7499102371184487,-1.3533767755555868,-3.976021684347357,tremor
289,7648788,2.059,-0.14034279387342644,-0.28491382732379034,-0.9986696207458392,3.8972465155358775,-1.8188063266633019,-4.033161578745056,tremor
290,7648814,2.085,-0.13972364379754898,-0.2857980705577023,-0.9971714254955534,4.018861368276005,-2.2462964836496324,-4.074813534164414,tremor
291,7648819,2.09,-0.13917444634204573,-0.28659519558120655,-0.995843352833521,4.117369833248974,-2.6358927346679835,-4.101168933595803,tremor
292,7648824,2.095,-0.1386937794095074,-0.28730619180295175,-0.9946840618801478,4.195292639438673,-2.9878702964346315,-4.1125185317049935,tremor
293,7648834,2.105,-0.13827955692208269,-0.28793295880684827,-0.9936906675968262,4.255039219456299,-3.3027241066626125,-4.109246268488455,tremor
294,7648838,2.109,-0.13792910252921453,-0.28847820652521505,-0.992858861518251,4.298893384004082,-3.581156944545547,-4.091823195287962,tremor
295,7648843,2.114,-0.13763923045721524,-0.2889453509366699,-0.9921830426098419,4.329001687243081,-3.8240659566930018,-4.06080145996469,tremor
296,7648848,2.119,-0.1374063313422941,-0.28933840713424297,-0.9916564562127106,4.347364472540619,-4.032527885759358,-4.016808292054524,tremor
297,7648853,2.124,-0.13722646074273237,-0.2896618815916414,-0.99127133904215,4.3558295487555,-4.20778330234704,-3.960539927492728,tremor
298,7648858,2.129,-0.137095427995723,-0.2899206654015968,-0.9910190682292741,4.356088407504251,-4.351220130643087,-3.892755414510894,tremor
299,7648862,2.133,-0.13700888316549956,-0.29011993017305365,-0.9908903124347941,4.349674852359876,-4.464356737023157,-3.814270246869826,tremor
300,7648867,2.138,-0.13696240000682988,-0.29026502815657107,-0.9908751831164385,4.337965874538704,-4.5488248204334765,-3.7259497777528128,tremor
301,7648872,2.143,-0.13695155312304433,-0.2903613980224342,-0.9909633840957255,4.322184579572566,-4.606352306398952,-3.6287023775101144,tremor
302,7648877,2.148,-0.13697198781100808,-0.29041447754626337,-0.9911443576449901,4.303404946273188,-4.638746406703709,-3.523472310703222,tremor
303,7648882,2.153,-0.13701948143724538,-0.29042962426507934,-0.9914074254018977,4.2825581810103825,-4.647876968065033,-3.4112323220902416,tremor
304,7648887,2.158,-0.13708999556021112,-0.29041204495578304,-0.9917419225172748,4.260440415984835,-4.635660198750229,-3.2929759368382805,tremor
305,7648892,2.163,-0.13717971838429338,-0.2903667345612837,-0.9921373235549471,4.237721491392024,-4.604042834090408,-3.169709496682485,tremor
306,7648897,2.168,-0.13728509748398215,-0.2902984249512841,-0.9925833587919324,4.214954560164316,-4.5549867806435635,-3.042443970466572,tremor
307,7648907,2.178,-0.13740286305750807,-0.2902115436600518,-0.993070119716631,4.19258626052676,-4.490454263529737,-2.912186594533992,tremor
308,7648911,2.182,-0.13753004224776086,-0.2901101824983761,-0.993588152695001,4.170967214476482,-4.4123934913591745,-2.7799324160343604,tremor
309,7648936,2.207,-0.13766396529697889,-0.2899980756989205,-0.9941285399743106,4.150362627915177,-4.322724848682527,-2.6466558301363308,tremor
310,7648941,2.212,-0.13780226447487184,-0.289878587033444,-0.9946829674249027,4.130962789541196,-4.223327628857504,-2.513302219144817,tremor
311,7648951,2.222,-0.1379428668337081,-0.28975470514984114,-0.9952437786826184,4.112893289956936,-4.1160273320129495,-2.380779815069844,tremor
312,7648956,2.227,-0.13808398189813786,-0.2896290462303006,-0.9958040156404,4.096224808594262,-4.002583572338035,-2.249951914314973,tremor
313,7648966,2.237,-0.13822408539679226,-0.2895038629785115,-0.9963574455312277,4.080982342575526,-3.8846786628526337,-2.121629572358867,tremor
314,7648971,2.242,-0.13836190009636457,-0.28938105890449173,-0.9968985751258963,4.067153777554223,-3.763906970036647,-1.9965648984946434,tremor
315,7648975,2.246,-0.13849637471846288,-0.2892622068828591,-0.9974226528192597,4.054697725810083,-3.641765151468742,-1.8754450580797541,tremor
316,7648980,2.251,-0.13862666181576663,-0.2891485710031929,-0.9979256595832968,4.043550581612501,-3.519643403690309,-1.7588870745301641,tremor
317,7648985,2.256,-0.1387520953656006,-0.2890411307989895,-0.9984042899171193,4.033632767790343,-3.398817852380809,-1.6474335073279642,tremor
318,7648990,2.261,-0.13887216871300245,-0.2889406070259961,-0.9988559240220022,4.024854169626274,-3.2804442114545633,-1.5415490670551095,tremor
319,7648994,2.265,-0.13898651336804768,-0.28884748825473777,-0.9992785924782654,4.017118771784607,-3.1655528221330047,-1.441618214503088,tremor
320,7648999,2.27,-0.13909487903993675,-0.28876205764068263,-0.9996709347081683,4.010328530550246,-3.055045158623082,-1.3479437778255812,tremor
321,7649004,2.275,-0.13919711517940211,-0.2886844193347546,-1.0000321524838351,4.0043865267457495,-2.949691855572344,-1.2607466088704227,tremor
322,7649009,2.28,-0.1392931542066854,-0.2886145240937101,-1.00036195969018,3.999199453627899,-2.8501322766171735,-1.1801662872182286,tremor
323,7649014,2.285,-0.13938299652784555,-0.28855219374180957,-1.0006605294872597,3.9946794985673857,-2.756875606778541,-1.106262868346957,tremor
324,7649018,2.289,-0.1394666973878556,-0.28849714422033246,-1.000928439940397,3.9907456781292683,-2.6703034184327445,-1.0390196603811375,tremor
325,7649023,2.294,-0.13954435557250222,-0.2884490070384144,-1.0011666191040531,3.9873246848901744,-2.590673634756391,-0.9783470008906221,tremor
326,7649028,2.299,-0.13961610394793159,-0.28840734900649573,-1.001376290459454,3.9843513026557242,-2.5181257979863982,-0.9240869900587464,tremor
327,7649033,2.304,-0.13968210181046692,-0.2883716901918278,-1.001558919517604,3.9817684458375897,-2.4526875426126282,-0.87601911909382,tremor
328,7649058,2.329,-0.13974252900262576,-0.2883415200836247,-1.0017161623086819,3.979526878967945,-2.3942821739886457,-0.8338667138441941,tremor
329,7649063,2.334,-0.13979758172629003,-0.2883163119930202,-1.001849816385472,3.9775846733875726,-2.342737257841409,-0.7973040944626495,tremor
330,7649068,2.339,-0.13984746994369904,-0.2882955357390037,-1.0019617748721066,3.9759064595546594,-2.29779413211318,-0.7659643339466965,tremor
331,7649072,2.343,-0.13989241619744125,-0.2882786686850155,-1.002053983990591,3.9744625347465403,-2.259118255468001,-0.7394474826820067,tremor
332,7649077,2.348,-0.13993265560434293,-0.2882652051924264,-1.0021284043983534,3.9732278866359163,-2.2263103031594644,-0.7173291138839767,tremor
333,7649082,2.353,-0.13996843669505626,-0.2882546645497289,-1.0021869765734162,3.972181192611173,-2.1989179091104845,-0.6991690368734866,tremor
