sample,t_ms,t_s,ax,ay,az,gx,gy,gz,tremor
0,7714115,0.0,-0.16177375068286184,-0.21326113509521039,-0.9984232789679777,0.03886939596043231,16.068082300343555,-15.49313562324009,tremor
1,7714120,0.005,-0.16073622025857737,-0.21310681484566488,-0.9985339917712559,0.18500883927337605,15.450458596984932,-14.89472683286049,tremor
2,7714125,0.01,-0.15931085898618486,-0.21289204812588097,-0.9986944074420093,0.33168944048601207,14.881445204556943,-14.26862509723552,tremor
3,7714130,0.015,-0.15746941457896452,-0.21261106589058895,-0.9989135859006562,0.47849716804161824,14.361553371905739,-13.614885721603908,tremor
4,7714135,0.02,-0.15525508319490014,-0.21226900218233916,-0.999193165923415,0.6250180172249483,13.890714926681392,-12.933691048853797,tremor
5,7714144,0.029,-0.15274757647094472,-0.2118769867855356,-0.9995300345682981,0.7708429454290312,13.468243409380621,-12.225359130092766,tremor
6,7714149,0.034,-0.15003157610091586,-0.21144744003535665,-0.9999194044184906,0.9155732952610329,13.09279593296262,-11.490351891049192,tremor
7,7714154,0.039,-0.14718042272127954,-0.21099149924713514,-1.000356711886473,1.0588266850158365,12.76233601262329,-10.729282661756603,tremor
8,7714159,0.044,-0.14425147788826118,-0.21051817129108713,-1.0008383925071076,1.2002433363409362,12.474097670290949,-9.94292293884535,tremor
9,7714164,0.049,-0.14128737753291018,-0.21003439931163276,-1.0013619883536427,1.339492799640179,12.22455118930912,-9.132208255928528,tremor
10,7714173,0.058,-0.1383192380883635,-0.20954546182159803,-1.001925965510767,1.4762810281828005,12.009370978208162,-8.298243048283272,tremor
11,7714178,0.063,-0.13536991222875727,-0.20905541069285277,-1.002529453938053,1.6103577408864655,11.823406099349395,-7.442304412619089,tremor
12,7714183,0.068,-0.1324566319399557,-0.20856743834836708,-1.0031720018295607,1.7415240000056345,11.660654128440504,-6.565844680656762,tremor
13,7714188,0.073,-0.1295929490232758,-0.20808415268791455,-1.0038533727139725,1.869639912051092,11.514239132465223,-5.670492746540095,tremor
14,7714214,0.099,-0.1267900857980262,-0.20760777148961376,-1.0045733860285608,1.9946323372444894,11.37639468105011,-4.758054112803732,tremor
15,7714219,0.104,-0.1240578478742269,-0.20714025596310912,-1.0053317927454875,2.1165024653461457,11.23845292905268,-3.8305096469307416,tremor
16,7714224,0.109,-0.12140523178927466,-0.20668340154998124,-1.0061281762924674,2.2353330867671635,11.090840908931298,-2.890013068256154,tremor
17,7714229,0.114,-0.11884082806019727,-0.20623889995787292,-1.0069618703879182,2.3512953618859855,10.923085229637238,-1.9388872099870123,tremor
18,7714238,0.123,-0.11637309080760337,-0.20580838240091792,-1.007831887351761,2.4646548720269954,10.723826380097563,-0.9796191210466,tremor
19,7714248,0.133,-0.11401052251478185,-0.2053934508453304,-1.008736852190539,2.57577672403312,10.48084377856537,-0.014854086670518012,tremor
20,7714253,0.138,-0.11176180636640864,-0.20499570176467383,-1.0096749391043316,2.685129477065526,10.181092600884233,0.9526113446548817,tremor
21,7714262,0.147,-0.10963590750811072,-0.20461674532296248,-1.0106438080518771,2.7932876660336525,9.810753267161875,1.919837237278854,tremor
22,7714267,0.152,-0.10764215701947384,-0.20425822182966744,-1.0116405397270638,2.9009327119028807,9.355294271705977,2.8837489594897434,tremor
23,7714272,0.157,-0.10579032725112093,-0.20392181658731562,-1.01266156783151,3.0088520345776626,8.799548810039912,3.8411466098344085,tremor
24,7714277,0.162,-0.10409070363017289,-0.20360927376206278,-1.0137026079417573,3.1179362169439444,8.127805393859912,4.788715113009397,tremor
25,7714282,0.167,-0.10255415554547913,-0.20332240957041622,-1.014758582612032,3.2291741065356496,7.323912352276718,5.723034940434351,tremor
26,7714287,0.172,-0.1011922071307474,-0.20306312483904668,-1.0158235426543276,3.3436457827472528,6.371395796419005,6.640593437746663,tremor
27,7714297,0.182,-0.10001710744061218,-0.20283341682646755,-1.016890584814788,3.4625133624684827,5.253590275670696,7.537796773188688,tremor
28,7714302,0.187,-0.09904189851232534,-0.2026353900753834,-1.0179517663301543,3.587009666630384,3.953780980012394,8.410982554229358,tremor
29,7714306,0.191,-0.09828047902592935,-0.20247126598157983,-1.0189980171073894,3.7184248265301463,2.455355948241329,9.256433191406739,tremor
30,7714311,0.196,-0.09774766065281697,-0.202343390713619,-1.0200190505280606,3.8580909740225406,0.7419663331588514,10.070390115224853,tremor
31,7714338,0.223,-0.09745921367286713,-0.20225424109401305,-1.021003274138898,4.0073652341011465,-1.202307634413917,10.849068971475214,tremor
32,7714343,0.228,-0.09743189802286283,-0.2022064280538263,-1.021937701749824,4.167611318834325,-3.3927877220976357,11.588675930171503,tremor
33,7714347,0.232,-0.09768347562684254,-0.2022026972948864,-1.022807868712988,4.340180100056423,-5.844028852713566,12.285425240295648,tremor
34,7714352,0.237,-0.09823269970465157,-0.20224592683232862,-1.0235977523854725,4.5263896033217765,-8.569653536537272,12.935558143749008,tremor
35,7714357,0.242,-0.09909927682657496,-0.20233912114021416,-1.0242896999649238,4.7275049078655735,-11.582192747147612,13.535363227204495,tremor
36,7714362,0.247,-0.10030379782632586,-0.20248540168014523,-1.0248643660144348,4.944718453280301,-14.892936214458429,14.081198244180996,tremor
37,7714367,0.252,-0.10186763431027915,-0.2026879936541542,-1.0253006620491845,5.179131244921427,-18.511794793079407,14.56951338752821,tremor
38,7714372,0.257,-0.10381279838840426,-0.20295020888739787,-1.025575720534869,5.43173541922473,-22.44717716982825,14.996875939090737,tremor
39,7714377,0.262,-0.10616176436905263,-0.20327542481363967,-1.025664875539809,5.703398579157407,-26.705882727955082,15.359996171438208,tremor
40,7714381,0.266,-0.10893725246299772,-0.20366705960864007,-1.025541662081547,5.994850241979274,-31.293011906980674,15.655754328547525,tremor
41,7714386,0.271,-0.11216197597736635,-0.20412854359550972,-1.025177835908143,6.306670661253525,-36.211894902988995,15.88122847012297,tremor
42,7714396,0.281,-0.11585835497942161,-0.20466328713380924,-1.024543415051155,6.639282198209046,-41.464039059465975,16.033722928447204,tremor
43,7714401,0.286,-0.12004820089289299,-0.20527464530137318,-1.0236067439851608,6.992943329656312,-47.04909481751783,16.110797095940075,tremor
44,7714420,0.305,-0.12475237786277381,-0.20596587978223996,-1.0223345806404525,7.367745297105607,-52.964839643700856,16.11029423320266,tremor
45,7714425,0.31,-0.12999044788337538,-0.20674011847852877,-1.020692205867717,7.763611332160066,-59.207178955200774,16.030369959242805,tremor
46,7714430,0.315,-0.1357803075190036,-0.20760031345491065,-1.0186435542942065,8.18029834338865,-65.77016273778004,15.869520059371364,tremor
47,7714435,0.32,-0.14213782446469928,-0.20854919788298884,-1.0161513649106566,8.617400922437852,-72.64601631555436,15.626607226933794,tremor
48,7714461,0.346,-0.1490764821580249,-0.20958924266385345,-1.0131773492614482,9.074357519240108,-79.82518357889305,15.300886346737371,tremor
49,7714466,0.351,-0.15660704020460836,-0.21072261336753234,-1.0096823748301234,9.550458640422868,-87.29638088683151,14.892027930439674,tremor
50,7714475,0.36,-0.16473721763669455,-0.21195112805285074,-1.0056266611411804,10.044856932305297,-95.04665981466586,14.400139324360179,tremor
51,7714480,0.365,-0.17347140513706466,-0.21327621644843175,-1.0009699862352262,10.556579011964391,-103.06147691409969,13.82578332701358,tremor
52,7714485,0.37,-0.18281041146620974,-0.21469888091478193,-0.9956719014907662,11.08453890092621,-111.32476870101311,13.169993879331034,tremor
53,7714489,0.374,-0.1927512485097542,-0.21621965958745373,-0.9896919532060242,11.627552893440132,-119.81903018880759,12.434288528216113,tremor
54,7714494,0.379,-0.2032869586344568,-0.21783859212580634,-0.9829899098449134,12.184355655589851,-128.52539543909938,11.620677413920966,tremor
55,7714499,0.384,-0.21440648737974916,-0.2195551885531826,-0.9755259943244571,12.75361730557789,-137.4237187986407,10.731668588667642,tremor
56,7714504,0.389,-0.22609460387309477,-0.22136840175933925,-0.9672611211260425,13.333961173406571,-146.4926557263512,9.770269529759993,tremor
57,7714514,0.399,-0.23833187069278527,-0.22327660433018862,-0.9581571383153191,13.923981884625453,-155.70974238729906,8.73998475800165,tremor
58,7714519,0.404,-0.25109466416612164,-0.22527757045840335,-0.9481770747299543,14.522263364431671,-165.05147350584687,7.644809507999542,tremor
59,7714524,0.409,-0.2643552452468253,-0.2273684637547821,-0.9372853926195276,15.127396324798163,-174.4933783319078,6.489219420653313,tremor
60,7714529,0.414,-0.27808188013711727,-0.22954583180543978,-0.9254482458800343,15.737994789401,-184.01009497994852,5.278156241676733,tremor
61,7714534,0.419,-0.2922390086988647,-0.23180560828397107,-0.9126337437103816,16.35271123704696,-193.57544383732494,4.017009516398179,tremor
62,7714548,0.433,-0.3067874574493362,-0.23414312331452117,-0.8988122190448784,16.97025000722763,-203.16250118303032,2.7115942735766816,tremor
63,7714553,0.438,-0.3216846926032718,-0.236553122582526,-0.8839565005233613,17.58937871108825,-212.74367457525958,1.3681246918896754,tremor
64,7714558,0.443,-0.3368851072813866,-0.2390297954048504,-0.8680421861073542,18.208937524603485,-222.2907819069405,-0.006816256498818479,tremor
65,7714584,0.469,-0.352340335770034,-0.24156681161050925,-0.8510479158043499,18.82784639867652,-231.77513622790605,-1.4063111878638053,tremor
66,7714589,0.474,-0.3679995867347428,-0.24415736667447616,-0.8329556403892162,19.44511038054447,-241.16763842183929,-2.823146705086613,tremor
67,7714594,0.479,-0.38380998674372613,-0.2467942341444567,-0.813750882563192,20.0598233644712,-250.4388795487229,-4.2498557703800195,tremor
68,7714599,0.484,-0.3997169255463375,-0.24946982408083643,-0.7934229866936361,20.671170637975756,-259.55925409717275,-5.678763945645561,tremor
69,7714608,0.493,-0.415664395413726,-0.2521762460620063,-0.7719653531328393,21.278430547933812,-268.4990845804334,-7.102039292440882,tremor
70,7714613,0.498,-0.43159531846088106,-0.2549053753147374,-0.7493756531038885,21.88097549985756,-277.2287569734234,-8.511745597155846,tremor
71,7714618,0.503,-0.44745185803116583,-0.257648920683706,-0.7256560202379602,22.4782723625049,-285.7188655743355,-9.899898452977503,tremor
72,7714628,0.513,-0.4631757126369703,-0.2603984933974033,-0.7008132150225255,23.06988221087998,-293.9403651047233,-11.25852360387618,tremor
73,7714633,0.518,-0.4787083932981612,-0.2631456758571116,-0.6748587586549833,23.65545922269072,-301.8647273093804,-12.579716848115497,tremor
74,7714637,0.522,-0.49399148712168206,-0.26588208991796924,-0.6478090330871357,24.234748459616647,-309.46409901587333,-13.855704720267122,tremor
75,7714642,0.527,-0.5089669114000013,-0.268599464306117,-0.6196853444017095,24.807582226848286,-316.71145857396994,-15.078905132492292,tremor
76,7714647,0.532,-0.5235771632357112,-0.27128970089840165,-0.5905139470982076,25.373874718497653,-323.5807678005449,-16.241987163515866,tremor
77,7714657,0.542,-0.5377655696833574,-0.27394493957248117,-0.5603260273968543,25.933614719607803,-330.04711695447526,-17.337929232200537,tremor
78,7714666,0.551,-0.5514765426840049,-0.2765576212223731,-0.5291576443045523,26.48685623695081,-336.0868607886415,-18.360074969149483,tremor
79,7714671,0.556,-0.5646558417683927,-0.2791205483481679,-0.4970496279179257,27.033707055847685,-341.67774430536303,-19.302186189703185,tremor
80,7714676,0.561,-0.5772508457964304,-0.28162694240234537,-0.4640474352351329,27.574315351357672,-346.79901741446247,-20.158492460738707,tremor
81,7714681,0.566,-0.5892108331110567,-0.28407049685211333,-0.43020096456216933,28.108854600848822,-351.43153819722454,-20.923736828865046,tremor
82,7714709,0.594,-0.6004872676565896,-0.28644542474140244,-0.395564330383688,28.637507136088555,-355.5578648639853,-21.593217330536202,tremor
83,7714713,0.598,-0.6110340870670328,-0.2887464994428677,-0.36019560128894657,29.160446729094808,-359.1623367336417,-22.162823934218448,tremor
84,7714723,0.608,-0.6208079876588684,-0.2909690873019195,-0.32415650417253905,29.67782062798244,-362.2311446679259,-22.629070577342798,tremor
85,7714728,0.613,-0.6297687008132875,-0.2931091709979712,-0.28751209843513953,30.18973145412801,-364.75239140071966,-22.9891219675734,tremor
86,7714733,0.618,-0.6378792554443661,-0.29516336266666304,-0.2503304242632403,30.696219350075964,-366.7161421715378,-23.240814830756303,tremor
87,7714737,0.622,-0.645106221992404,-0.29712890610083126,-0.21268212926069438,31.19724473721748,-368.1144660554843,-23.382673315326056,tremor
88,7714742,0.627,-0.6514199343950547,-0.2990036676275699,-0.17464007775372653,31.692672007753885,-368.94146840482637,-23.413918309814584,tremor
89,7714747,0.632,-0.6567946874997406,-0.3007861155049301,-0.136278947021852,32.182254437746934,-369.1933148783693,-23.33447049944038,tremor
90,7714752,0.637,-0.6612089081916015,-0.30247528787718453,-0.09767481454774088,32.665620567218774,-368.86824762182255,-23.144947081163643,tremor
91,7714766,0.651,-0.664645299016311,-0.30407074947357704,-0.05890474015355767,33.14226224950562,-367.966594262996,-22.846652172869007,tremor
92,7714776,0.661,-0.6670909532458176,-0.305572537346192,-0.02004634661866264,33.61152452569209,-366.4907704860191,-22.441561085861657,tremor
93,7714781,0.666,-0.668537440201087,-0.3069810960426778,0.018822597932729057,34.07259743307789,-364.4452770269797,-21.93229877003298,tremor
94,7714790,0.675,-0.6689808593088291,-0.30829720273312944,0.057624592915149195,34.524509815062046,-361.83669195810876,-21.32211287352738,tremor
95,7714795,0.68,-0.6684218609900295,-0.30952188299373046,0.09628281081684699,34.96612517028323,-358.6736590649762,-20.614841968335767,tremor
96,7714800,0.685,-0.6668656322506744,-0.3106563182181369,0.1347214930881696,35.396139563229546,-354.9668729446697,-19.814879566930134,tremor
97,7714805,0.69,-0.6643218449467542,-0.3117017459866952,0.17286633435555426,35.8130816125923,-350.72906115012216,-18.927134584755223,tremor
98,7714832,0.717,-0.6608045652393608,-0.3126593551596582,0.21064485311924108,36.21531457135845,-345.97496328247604,-17.95698888929761,tremor
99,7714837,0.722,-0.6563321237596603,-0.3135301779417404,0.24798674717641006,36.60104051033064,-340.7213064216465,-16.910252529078193,tremor
100,7714842,0.727,-0.6509269473794842,-0.3143149816374029,0.2848242319996402,36.96830661353021,-334.9867757520462,-15.7931171738195,tremor
101,7714847,0.732,-0.6446153550494352,-0.31501416320477726,0.32109236022752263,37.31501358969033,-328.7919787774627,-14.612108239699745,tremor
102,7714852,0.737,-0.6374273216994668,-0.31562764995046083,0.3567293203355693,37.63892619729785,-322.15940120252105,-13.374036132707703,tremor
103,7714857,0.742,-0.6293962155028171,-0.31615480975152715,0.3916767124860152,37.93768586809495,-315.113352413238,-12.085947019254009,tremor
104,7714862,0.747,-0.6205585147553508,-0.316594374050845,0.4258797995217573,38.20882539232841,-307.67989849900914,-10.755073521062105,tremor
105,7714871,0.756,-0.6109535111502025,-0.316944376577428,0.45928773108014226,38.44978559702959,-299.88678089750726,-9.3887857259225,tremor
106,7714876,0.761,-0.6006230063071477,-0.3172021103318111,0.4918537388631478,38.65793390774784,-291.76331899416107,-7.994542902333418,tremor
107,7714881,0.766,-0.5896110080615086,-0.31736410488417055,0.5235353012210068,38.83058463951121,-283.34029535377095,-6.579846297021311,tremor
108,7714886,0.771,-0.5779634322785191,-0.3174261254949072,0.5542942753983376,38.96502082282729,-274.6498226861874,-5.152193371633335,tremor
109,7714891,0.776,-0.5657278149141306,-0.31738319501310847,0.5840969960620346,39.0585173431944,-265.72519213347107,-3.7190337950233525,tremor
110,7714896,0.781,-0.5529530377895938,-0.31722963895792816,0.6129143390704049,39.10836515811292,-256.6007029988087,-2.2877274535755037,tremor
111,7714905,0.79,-0.53968907018945,-0.3169591536512438,0.6407217498299886,39.11189634366523,-247.3114746083734,-0.865504678664206,tremor
112,7714910,0.795,-0.5259867270314518,-0.3165648967477093,0.6674992359902666,39.066509700872224,-237.89324159657326,0.5405711797638291,tremor
113,7714915,0.8,-0.5118974430845452,-0.31603959899511147,0.693231324618971,38.96969661901806,-228.38213451516313,1.9236387765754606,tremor
114,7714920,0.805,-0.497473061609399,-0.31537569554595074,0.7179069843600798,38.8190668614779,-218.81444826127853,3.2770713955626403,tremor
115,7714930,0.815,-0.48276563493009744,-0.3145654746247194,0.7415195133906913,38.61237392324588,-209.2264013708903,4.594507208240616,tremor
116,7714963,0.848,-0.4678272338584217,-0.31360124083584456,0.7640663942666968,38.3475396129974,-199.65388970218953,5.869877188605885,tremor
117,7714968,0.853,-0.45270976261598944,-0.3124754898913179,0.78554911701728,38.0226775327513,-190.13223838485442,7.09743065532743,tremor
118,7714972,0.857,-0.4374647759765077,-0.31118109108735337,0.8059729721944695,37.636115157753466,-180.6959560493509,8.27175835067763,tremor
119,7714978,0.863,-0.4221432958265448,-0.3097114735333848,0.8253468161055695,37.18641424788736,-171.37849519930984,9.387812920022974,tremor
120,7714997,0.882,-0.4067956252233784,-0.30806081199834207,0.8436828112094086,36.67238934133755,-162.21202216053186,10.440926639460802,tremor
121,7715002,0.887,-0.39147115922905285,-0.3062242083135255,0.8609961456014843,36.09312409243492,-153.22719944468682,11.42682624381337,tremor
122,7715006,0.891,-0.37621819314317256,-0.30419786453586234,0.8773047365142969,35.447985228831804,-144.45298274295618,12.3416447206759,tremor
123,7715016,0.901,-0.36108373001799343,-0.30197924447836927,0.8926289236416503,34.736633929267896,-135.91643420386026,13.181929957760195,tremor
124,7715021,0.906,-0.346113290324801,-0.2995672206976477,0.9069911587063365,33.959034466714726,-127.64255317934236,13.944650166224628,tremor
125,7715026,0.911,-0.33135072725337256,-0.29696220453722627,0.9204156979430175,33.11546002012014,-119.65412523838002,14.627196054167884,tremor
126,7715030,0.915,-0.31683805136872434,-0.29416625731674156,0.9329283040460467,32.20649562474795,-111.97158992972551,15.227379789017267,tremor
127,7715040,0.925,-0.3026152682791182,-0.2911831812008793,0.9445559636650908,31.233038298653106,-104.61292750631898,15.74343086049627,tremor
128,7715045,0.93,-0.2887202326599012,-0.2880185886660418,0.9553266257730835,30.196294444654864,-97.59356459100296,16.173989032250507,tremor
129,7715054,0.939,-0.2751885214998194,-0.28467994980934,0.9652689652479162,29.097774679137448,-90.92629856087316,16.51809464538582,tremor
130,7715081,0.966,-0.2620533288512291,-0.2811766170266122,0.9744121748762461,27.939286279655388,-84.62124025537905,16.77517660777239,tremor
131,7715096,0.981,-0.24934538372714232,-0.2775198268418365,0.9827857877856788,26.722923473096454,-78.68577447271603,16.945038466480067,tremor
132,7715100,0.985,-0.2370928921518595,-0.2737226789168698,0.9904195311262024,25.45105580593047,-73.12453761045738,17.027843013308225,tremor
133,7715105,0.99,-0.2253215037969132,-0.26980009251713954,0.9973432107365813,24.126314847577596,-67.93941172671565,17.024095908854683,tremor
134,7715110,0.995,-0.21405430316703886,-0.26576874095354913,1.0035866256077899,22.751579475586098,-63.129534243193895,16.93462882248534,tremor
135,7715114,0.999,-0.2033118249568471,-0.2616469647549856,1.0091795102135634,21.329959976229762,-58.69132248018742,16.760582570832437,tremor
136,7715124,1.009,-0.19311209295793424,-0.25745466454355886,1.0141515021986172,19.86478116823351,-54.618512207550985,16.50339069787327,tremor
137,7715129,1.014,-0.1834706817192207,-0.2532131747860099,1.018532132461729,18.359564725339435,-50.90220941332394,16.164763880652714,tremor
138,7715134,1.019,-0.17440080000887379,-0.2489451197821596,1.0223508343116716,16.81801084157155,-47.53095452421444,15.746675473185656,tremor
139,7715139,1.024,-0.16591339495999624,-0.24467425342602983,1.0256369680893758,15.24397935766242,-44.49079834675553,15.251348423512866,tremor
140,7715144,1.029,-0.15801727558317266,-0.24042528443619712,1.0284198574310297,13.641470452537336,-41.76538902685521,14.68124372017443,tremor
141,7715149,1.034,-0.15071925409229073,-0.23622368889635326,1.0307288331921072,12.014605000507183,-39.33606935069889,14.039050447527439,tremor
142,7715154,1.039,-0.14402430322544435,-0.23209551207163157,1.0325932809630711,10.367604699900705,-37.18198373975966,13.327677456085679,tremor
143,7715169,1.054,-0.1379357274676945,-0.22806716156789109,1.0340426880872893,8.704772088262535,-35.28019433451854,12.550246584928413,tremor
144,7715178,1.063,-0.13245534581677568,-0.22416519397747547,1.0351066861471987,7.030470569521283,-33.60580561790815,11.710087306832442,tremor
145,7715203,1.088,-0.12758368349562552,-0.22041609720389566,1.03581508502842,5.349104586034567,-32.132097097191924,10.81073260008998,tremor
146,7715208,1.093,-0.12332016982241546,-0.21684607067719486,1.0361978949205228,3.665100068397659,-30.83066363529448,9.855915782090714,tremor
147,7715213,1.098,-0.1196633393060652,-0.2134808056608816,1.036285332979459,1.9828852838624562,-29.671563094202707,8.849567971206298,tremor
148,7715218,1.103,-0.1166110329366824,-0.21034526781408702,1.0361078118545903,0.3068721783151926,-28.62347102267458,7.795815781663668,tremor
149,7715227,1.112,-0.11416059657122568,-0.2074634841169262,1.0356959078475383,-1.3585617307804236,-27.653842188266374,6.69897880648373,tremor
150,7715232,1.117,-0.11230907326253137,-0.2048583362010748,1.0350803070857673,-3.009090896432015,-26.72907881677761,5.563566408421683,tremor
151,7715237,1.122,-0.11105338634241686,-0.2025513620558898,1.0342917287263487,-4.640458747209,-25.814705452965583,4.394273319615489,tremor
152,7715242,1.127,-0.11039051005506682,-0.2005625680029245,1.0333608248249866,-6.248494218584316,-24.87555038395823,3.1959735504051903,tremor
153,7715247,1.132,-0.11031762455956473,-0.1989102527452101,1.0323180570888155,-7.82912789882151,-23.875933561460183,1.9737121291523865,tremor
154,7715252,1.137,-0.11083225219553515,-0.1976108451981197,1.0311935512628645,-9.378407891648296,-22.779860916390547,0.7326942368144962,tremor
155,7715257,1.142,-0.11193237204666896,-0.19667875769231857,1.0300169303702476,-10.892515500958696,-21.55122488212516,-0.5217286419196993,tremor
156,7715262,1.147,-0.11361651005385165,-0.19612625600332376,1.0288171284301206,-12.367780835429123,-20.154010835486392,-1.7840758596091228,tremor
157,7715282,1.167,-0.11588380223002837,-0.19596334750475977,1.0276221866134234,-13.800698413638367,-18.55250903366045,-3.048758268916684,tremor
158,7715291,1.176,-0.11873402891618866,-0.1961976885632105,1.0264590340655984,-15.187942823816952,-16.711531475062923,-4.310102548026668,tremor
159,7715296,1.181,-0.1221676184908885,-0.19683451209248148,1.0253532558311669,-16.526384459313494,-14.59663294715447,-5.562379229821194,tremor
160,7715301,1.186,-0.12618561949858553,-0.19787657596547487,1.02432885046214,-17.81310531589993,-12.174335349812614,-6.7998343704603466,tremor
161,7715326,1.211,-0.13078964078098188,-0.1993241327446538,1.0234079799892015,-19.045414804296357,-9.412354207592305,-8.016724689148727,tremor
162,7715331,1.216,-0.13598175985416613,-0.201174920940373,1.0226107149961372,-20.220865502243807,-6.279826119568997,-9.207355914527659,tremor
163,7715336,1.221,-0.14176440043122948,-0.203424177745055,1.0219547775846163,-21.33726874539808,-2.7475357530024507,-10.366123986482767,tremor
164,7715341,1.226,-0.1481401805944523,-0.206064672926541,1.0214552850696457,-22.39270993636245,1.21185912555695,-11.487558686459227,tremor
165,7715355,1.24,-0.1551117336284077,-0.2090867633021097,1.0211244973205267,-23.385563436555252,5.623606169185289,-12.566369205860488,tremor
166,7715360,1.245,-0.1626815039127022,-0.21247846696089281,1.020971570759412,-24.314506894125216,10.510642160128306,-13.59749111047535,tremor
167,7715365,1.25,-0.17085152054347408,-0.216225556162314,1.0210023221366646,-25.178534850574962,15.893383582306194,-14.57613411754824,tremor
168,7715370,1.255,-0.17962315152617958,-0.22031166761895604,1.0212190052970636,-25.97697145937076,21.789525746331343,-15.497830069650984,tremor
169,7715375,1.26,-0.18899684148521273,-0.22471842868084654,1.021620104210586,-26.709482143022257,28.213852163988044,-16.35848046470637,tremor
170,7715385,1.27,-0.19897183589515463,-0.22942559777790672,1.022200145549296,-27.376084011303043,35.178055868218784,-17.154402882956433,tremor
171,7715390,1.275,-0.20954589487825662,-0.23441121734788445,1.0229495340390018,-27.97715486180308,42.690574365489155,-17.882375638460722,tremor
172,7715399,1.284,-0.220714999656111,-0.23965177737778998,1.0238544136973775,-28.51344058414587,50.7564398907635,-18.539679974928962,tremor
173,7715404,1.289,-0.23247305481222763,-0.24512238761920618,1.0248965578893194,-28.986060790328892,59.37714661302409,-19.12413912364544,tremor
174,7715409,1.294,-0.24481158963263047,-0.25079695650467426,1.0260532908902786,-29.39651249499184,68.55053641284304,-19.634153544791037,tremor
175,7715414,1.299,-0.2577194619473142,-0.2566483747948332,1.0272974433603208,-29.74667167037729,78.2707048225802,-20.068731682806128,tremor
176,7715419,1.304,-0.27118256808492697,-0.26264870202172497,1.0285973438115072,-30.038792501080476,88.52792868021169,-20.42751558336558,tremor
177,7715424,1.309,-0.28518356275285817,-0.2687693538570891,1.0299168478157423,-30.275504163323376,99.3086169911417,-20.7108007470855,tremor
178,7715452,1.337,-0.299701592835308,-0.274981288618747,1.031215406364008,-30.4598049526578,110.59528640789225,-20.919549635482703,tremor
179,7715457,1.342,-0.31471204923169765,-0.28125519122754794,1.0324481744599308,-30.595053583790857,122.36656261543398,-21.055398298708557,tremor
180,7715466,1.351,-0.3301863409074696,-0.2875616530385523,1.0335661607104702,-30.684957488942057,134.5972087426568,-21.120655663546277,tremor
181,7715471,1.356,-0.34609169527554284,-0.2938713460921265,1.034516418352142,-30.733557949902632,147.25818170383647,-21.118295107417293,tremor
182,7715476,1.361,-0.36239098885905124,-0.3001551904627895,1.0352422778029393,-30.745211916572753,160.31671710880104,-21.051938052202033,tremor
183,7715481,1.366,-0.3790426119116726,-0.3063845135239183,1.035683620439642,-30.724570392479695,173.73644307358916,-20.925829438616443,tremor
184,7715490,1.375,-0.39600037031216706,-0.3125312000913243,1.035777192858223,-30.676553304812085,187.47752292460638,-20.744805081605083,tremor
185,7715495,1.38,-0.41321342763324437,-0.3185678325550447,1.0354569603836856,-30.606320820283013,201.49682642971536,-20.514251052469927,tremor
186,7715500,1.385,-0.4306262898447341,-0.3244678202551823,1.0346544980664114,-30.519241115600394,215.74812882407082,-20.240055377652656,tremor
187,7715505,1.39,-0.4481788346839641,-0.3302055175051221,1.0332994168517988,-30.420854660355463,230.18233654434638,-19.928552481453487,tremor
188,7715510,1.395,-0.4658063873445093,-0.335756329815266,1.0313198220565196,-30.316835120133227,244.74773825335913,-19.586460926039933,tremor
189,7715515,1.4,-0.4834398438144045,-0.3410968080222272,1.0286428007435857,-30.212947039131674,259.39027942641866,-19.220815114570453,tremor
190,7715525,1.41,-0.5010058429335511,-0.3462047301800905,1.0251949340715174,-30.11500051546952,274.053858473886,-18.83889172190388,tremor
191,7715530,1.415,-0.5184269880208074,-0.3510591712195373,1.0209028302099301,-30.028803139272625,288.68064209010265,-18.448131703281,tremor
192,7715539,1.424,-0.5356221187199446,-0.3556405605266194,1.0156936729751531,-29.96010952359757,303.21139725485455,-18.056058806421692,tremor
193,7715544,1.429,-0.5525066335006398,-0.3599307277369108,1.009495780958676,-29.914568821053937,317.58583708286125,-17.67019557850926,tremor
194,7715549,1.434,-0.5689928629924218,-0.36391293718449624,1.002239171615107,-29.897670684244524,331.7429775328596,-17.2979779169343,tremor
195,7715576,1.461,-0.5849904939937941,-0.3675719115892329,0.9938561245622285,-29.91469019452225,345.62150186216445,-16.946669259777707,tremor
196,7715581,1.466,-0.6004070435653848,-0.37089384570760314,0.9842817382366447,-29.97063234775286,359.1601296565809,-16.62327554562082,tremor
197,7715591,1.476,-0.61514838208825,-0.37386641080676086,0.9734544740484752,-30.07017674306243,372.2979872965028,-16.334462087751493,tremor
198,7715601,1.486,-0.6291193035757099,-0.3764787509404302,0.9613166822807167,-30.217623167085186,384.974976857435,-16.086473499340418,tremor
199,7715606,1.491,-0.642224140910777,-0.3787214721019289,0.9478151041687802,-30.41683879973658,397.1321406863572,-15.88505776988593,tremor
200,7715610,1.495,-0.6543674230742748,-0.38058662539922894,0.9329013448592104,-30.671207785485564,408.71201920884687,-15.735395531781313,tremor
201,7715615,1.5,-0.6654545708446432,-0.38206768543788294,0.9165323122782179,-30.983583913415853,419.6589998547619,-15.642035477183898,tremor
202,7715620,1.505,-0.6753926268854794,-0.3831595251094247,0.8986706173466353,-31.356247128984172,429.91965530607285,-15.608836795936233,tremor
203,7715625,1.51,-0.6840910155770252,-0.3838583879654343,0.8792849314722289,-31.790864562119097,439.44306955399765,-15.638919405352231,tremor
204,7715630,1.515,-0.6914623273749468,-0.3841618593108951,0.8583502978474621,-32.28845670279802,448.18115049919925,-15.734622628001254,tremor
205,7715639,1.524,-0.6974231218759946,-0.3840688370748295,0.8358483937894668,-32.849369288710434,456.08892803486617,-15.89747284068165,tremor
206,7715644,1.529,-0.7018947431199868,-0.38357950341133257,0.8117677421763337,-33.47325139253779,463.1248367123621,-16.128160467975615,tremor
207,7715649,1.534,-0.7048041399479198,-0.38269529784919903,0.7861038709399292,-34.1590401119041,469.25098219494265,-16.426526534773245,tremor
208,7715654,1.539,-0.7060846834565525,-0.3814188926418503,0.7588594205318542,-34.90495217630363,474.43339074859296,-16.791558835700144,tremor
209,7715664,1.549,-0.7056769727357868,-0.37975417077007545,0.7300442002385568,-35.70848269461028,478.64224099493856,-17.221397636863237,tremor
210,7715673,1.558,-0.7035296191519989,-0.3777062068193831,0.6996751951410182,-36.56641117571396,481.85207705744375,-17.713350704630884,tremor
211,7715710,1.595,-0.6995999984704532,-0.37528125069652624,0.6677765263560533,-37.47481486514123,484.0420020676367,-18.263917361940305,tremor
212,7715720,1.605,-0.6938549591495311,-0.3724867138770232,0.634379367911963,-38.42908935495912,485.195850767275,-18.86882120691832,tremor
213,7715725,1.61,-0.6862714743071843,-0.3693311576076749,0.5995218241281312,-39.42397634691821,485.3023396725783,-19.523051088659255,tremor
214,7715729,1.614,-0.6768372243362352,-0.3658242822543813,0.5632487716014817,-40.45359838364835,484.3551930160488,-20.220909911207325,tremor
215,7715734,1.619,-0.6655510971060791,-0.3619769168135876,0.5256116698025187,-41.51150031051733,482.3532425119656,-20.95607081565068,tremor
216,7715739,1.624,-0.6524235932174544,-0.3578010075082504,0.4866683438758714,-42.590697187333674,479.300498931771,-21.721640260935132,tremor
217,7715744,1.629,-0.637477124842013,-0.35330960436155023,0.44648274261806903,-43.68372832764385,475.20619351520537,-22.510227482015218,tremor
218,7715749,1.634,-0.6207461981812353,-0.348516844669447,0.4051246738822359,-44.78271709821187,470.08478735686737,-23.314019749579348,tremor
219,7715753,1.638,-0.6022774714108734,-0.3434379323612997,0.36266951893155497,-45.87943605920494,463.95594707357435,-24.124862791115152,tremor
220,7715758,1.643,-0.5821296820409361,-0.33808911233308764,0.3191979265996534,-46.96537696564905,456.84448526121264,-24.934345661286425,tremor
221,7715763,1.648,-0.5603734398355009,-0.3324876389495945,0.2747954875634463,-48.03182508340185,448.7802644850067,-25.733889272714674,tremor
222,7715768,1.653,-0.537090883733142,-0.32665173803177056,0.22955238862338273,-49.06993719950893,439.79806381569307,-26.51483771709832,tremor
223,7715773,1.658,-0.5123752035313592,-0.32060056176705704,0.18356304663613818,-50.07082262833831,429.93740723100007,-27.268551420981204,tremor
224,7715778,1.663,-0.48633002940183534,-0.3143541360996933,0.13692572166364325,-51.02562643136864,419.2423535530978,-27.98650109132626,tremor
225,7715788,1.673,-0.4590686945511352,-0.30793330027307075,0.08974210898722279,-51.92561397962836,407.76124799423377,-28.6603613171792,tremor
226,7715792,1.677,-0.4307133785012929,-0.3013596383070364,0.04211690987204463,-52.762255894302,395.5464358403186,-29.28210261215395,tremor
227,7715797,1.682,-0.40139414050428857,-0.2946554023012596,-0.005842618670818311,-53.52731230608372,382.65393932125664,-29.844080619252168,tremor
228,7715831,1.716,-0.37124785449353337,-0.2878434275647728,-0.05402713442358471,-54.212915284294155,369.14309930128985,-30.339121171959032,tremor
229,7715836,1.721,-0.3404170586900298,-0.28094703968786583,-0.10232569959517293,-54.81164821620668,355.0761840685368,-30.760599934965747,tremor
230,7715841,1.726,-0.3090487344948141,-0.2739899538051793,-0.15062628783331855,-55.31662088925584,340.5179681875162,-31.10251544562568,tremor
231,7715846,1.731,-0.27729303057470905,-0.266996166458518,-0.19881630644686876,-55.721539070885825,325.5352850610893,-31.359554529860553,tremor
232,7715851,1.736,-0.2453019490508469,-0.25998984066017794,-0.24678313131321636,-56.02076750267367,310.19655749154543,-31.52714924124798,tremor
233,7715856,1.741,-0.2132280114260041,-0.25299518497759577,-0.29441465168050623,-56.209385408167314,294.57131111775277,-31.60152464162992,tremor
234,7715865,1.75,-0.18122292236300372,-0.24603632769124426,-0.34159982185350035,-56.2832338245929,278.7296761299498,-31.579736896434856,tremor
235,7715870,1.755,-0.14943624966711064,-0.23913718729497116,-0.3882292165233595,-56.238954281847995,262.74188310728493,-31.459701301244042,tremor
236,7715875,1.76,-0.11801413880099088,-0.2323213407837301,-0.43419558623525345,-56.07401855489667,246.67775914729265,-31.24020999355127,tremor
237,7715880,1.765,-0.0870980799022934,-0.22561189128394166,-0.47939440918122495,-55.786749399682186,230.60623061620115,-30.920939239979315,tremor
238,7715885,1.77,-0.0568237445102972,-0.2190313366127449,-0.5237244351732055,-55.376332341245664,214.59483881622148,-30.502446329395138,tremor
239,7715894,1.779,-0.02731990800292258,-0.2126014403039548,-0.5670882173102024,-54.84281871236692,198.70927464095837,-29.986156250313865,tremor
240,7715904,1.789,0.0012925278988475397,-0.20634310652188684,-0.6093926265245062,-54.187120242567175,183.0129378894753,-29.374338485702975,tremor
241,7715909,1.794,0.0289014002646098,-0.20027626011650468,-0.6505493439094825,-53.41099557416955,167.56652635063796,-28.67007441268673,tremor
242,7715914,1.799,0.055404027886029106,-0.19441973287358705,-0.6904753255545906,-52.517029138017485,152.42765907027683,-27.87721593986263,tremor
243,7715918,1.803,0.08070782496805143,-0.18879115680127592,-0.7290932346060855,-51.50860286002133,137.65053740464438,-27.00033614607436,tremor
244,7715945,1.83,0.10473078160735291,-0.1834068650885103,-0.7663318354710984,-50.3898611953947,123.285646592729,-26.044672801391176,tremor
245,7715950,1.835,0.12740181027481354,-0.17828180118870865,-0.8021263454836322,-49.16567000532,109.37949970555476,-25.01606575313032,tremor
246,7715955,1.84,0.14866096063105094,-0.17342943633831157,-0.8364187399266625,-47.84156980488718,95.97442500728442,-23.920889240116196,tremor
247,7715960,1.845,0.1684595077973439,-0.16886169572562612,-0.8691580070285373,-46.42372392383742,83.10839703214693,-22.765980245262252,tremor
248,7715964,1.849,0.18675992146299802,-0.1645888934857476,-0.9003003503948437,-44.918862134881984,70.81491106491097,-21.558564002963006,tremor
249,7715969,1.854,0.20353572482563997,-0.1606196767081982,-0.9298093372519647,-43.33422032075386,59.12290021029364,-20.306177747593186,tremor
250,7715974,1.859,0.2187712533495309,-0.1569609786936682,-0.9576559918041385,-41.6774767727268,48.056693830808925,-19.016593732620485,tremor
251,7715979,1.864,0.23246132377997517,-0.15361798176992728,-0.9838188338841567,-39.95668573973996,37.636015799543244,-17.697742475082645,tremor
252,7715988,1.873,0.24461082388003208,-0.1505940900599078,-1.0082838638679277,-38.18020887552614,27.876020732316128,-16.35763709398599,tremor
253,7715994,1.879,0.2552342330675198,-0.1478909126737693,-1.031044495502161,-36.35664525673277,18.787366115769967,-15.004299520125867,tremor
254,7715999,1.884,0.26435508363227994,-0.14550825785888846,-1.052101438854423,-34.494760662690794,10.376318023450379,-13.645689264798754,tremor
255,7716003,1.888,0.27200537161179134,-0.1434441386753838,-1.0714625360393455,-32.603416812386016,2.6448879066514213,-12.289635349509998,tremor
256,7716008,1.893,0.278224925794424,-0.14169479076065586,-1.0891425527146794,-30.691501244228203,-4.409002236949936,-10.943771920000797,tremor
257,7716013,1.898,0.2830607427764796,-0.14025470270010673,-1.1051629285897646,-28.76785850138166,-10.791329168312526,-9.615477996990169,tremor
258,7716018,1.903,0.28656629556043156,-0.1391166594336526,-1.1195514903604031,-26.841223253822765,-16.511755152947902,-8.31182175317778,tremor
259,7716022,1.907,0.2888008228556645,-0.13827179900289574,-1.1323421305911936,-24.920155950995134,-21.5833951851704,-7.0395096497075595,tremor
260,7716027,1.912,0.28982860601676,-0.1377096827863546,-1.1435744561218475,-23.012981557102776,-26.02256775026505,-5.804840712829537,tremor
261,7716037,1.922,0.2897182404018427,-0.13741837918363606,-1.1532934095900742,-21.127731875756556,-29.84853216053169,-4.613666180891111,tremor
262,7716042,1.927,0.2885419078182603,-0.1373845604966914,-1.161548867652053,-19.27209192437613,-33.08321543711839,-3.4713547020998137,tremor
263,7716072,1.957,0.2863746565985407,-0.1375936125199012,-1.1683952194538039,-17.453350773907506,-35.75093161151996,-2.382763214067614,tremor
264,7716077,1.962,0.28329369566212187,-0.13802975609521226,-1.1738909288731714,-15.678357225124568,-37.878096195906586,-1.352213585888447,tremor
265,7716082,1.967,0.2793777086163197,-0.1386761796243271,-1.178098084019275,-13.953480644139054,-39.49293842892247,-0.3834750509062271,tremor
266,7716087,1.972,0.2747061935015028,-0.13951518127505566,-1.1810819374450598,-12.284577221552654,-40.625213752223694,0.5202475978953309,tremor
267,7716092,1.977,0.2693588331922172,-0.14052831939373606,-1.1829104404943558,-10.676961851061108,-41.30591881892445,1.3563201376927383,tremor
268,7716096,1.981,0.2634149007632768,-0.1416965694541884,-1.183653775160097,-9.13538574862853,-41.567011180419826,2.1226795197272454,tremor
269,7716101,1.986,0.25695270337048765,-0.14300048574055313,-1.183383886767587,-7.664019858639993,-41.441135642688295,2.8178291554909176,tremor
270,7716106,1.991,0.2500490674307268,-0.1444203658752495,-1.1821740207103983,-6.266444022524015,-40.961359127083114,3.440829148161537,tremor
271,7716111,1.996,0.24277886715404873,-0.1459364162611519,-1.1800982663534365,-4.945641819149959,-40.1609157141985,3.9912817812403154,tremor
272,7716116,2.001,0.23521459780623394,-0.1475289165053994,-1.1772311110768403,-3.704000924402567,-39.07296339300678,4.469312619314059,tremor
273,7716121,2.006,0.22742599447708495,-0.1491783809265918,-1.1736470072669787,-2.543318779066407,-37.73035388113599,4.875547613028517,tremor
274,7716126,2.011,0.2194796966017364,-0.15086571531224444,-1.1694199548697948,-1.464813299157457,-36.165416725199805,5.21108663152727,tremor
275,7716131,2.016,0.21143895802621512,-0.1525723671840113,-1.164623101911143,-0.4691383113686539,-34.40975873038689,5.477473869883596,tremor
276,7716135,2.02,0.20336340201709527,-0.15428046793970435,-1.159328365162722,0.4435966506201001,-32.494079602647126,5.676665595356202,tremor
277,7716140,2.025,0.19530882027880717,-0.15597296536978653,-1.153606072894659,1.2738025939803068,-30.44800451174998,5.810995703984092,tremor
278,7716145,2.03,0.18732701475053978,-0.15763374518895587,-1.147524631410054,2.022383796599223,-28.299934098598314,5.883139557983338,tremor
279,7716150,2.035,0.17946568069724408,-0.1592477403788083,-1.14115021680553,2.6907074801254462,-26.076912257829264,5.896076565000125,tremor
280,7716154,2.039,0.17176832937611436,-0.1608010273045433,-1.1345464931477494,3.2805708995788803,-23.804511831580424,5.853051943553378,tremor
281,7716159,2.044,0.1642742483424062,-0.1622809077473393,-1.1277743580022666,3.7941663236021275,-21.50673815839055,5.757538096568261,tremor
282,7716164,2.049,0.15701849724996086,-0.16367597618479246,-1.1208917160022878,4.2340443699397925,-19.2059502393552,5.613195988211164,tremor
283,7716189,2.074,0.15003193679958127,-0.16497617185468144,-1.1139532809055734,4.6030761439081465,-16.922799118746468,5.423836888989182,tremor
284,7716194,2.079,0.14334128829602355,-0.16617281535114398,-1.1070104063625041,4.904414606445679,-14.676182934541607,5.193384820621194,tremor
285,7716199,2.084,0.13696922110418516,-0.1672586297240804,-1.1001109454111573,5.14145557517508,-12.483217980812805,4.925839996596658,tremor
286,7716213,2.098,0.13093446516715093,-0.16822774627672527,-1.09329913852879,5.317798738757249,-10.359225041560702,4.625243518725808,tremor
287,7716218,2.103,0.12525194568358783,-0.1690756954752839,-1.0866155299043794,5.437209043101161,-8.31773020220394,4.295643556426256,tremor
288,7716223,2.108,0.11993293705088992,-0.16979938359007643,-1.0800969114521546,5.503578787370442,-6.370479312244945,3.941063204886021,tremor
289,7716227,2.112,0.11498523326167752,-0.17039705587248202,-1.0737762939564737,5.520890745850393,-4.527465249601939,3.5654701903871913,tremor
290,7716232,2.117,0.11041333208297664,-0.17086824723138858,-1.0676829046168443,5.493182606094965,-2.796967115769221,3.1727485653326646,tremor
291,7716242,2.127,0.10621863053292038,-0.17121372150558734,-1.0618422101416247,5.42451298366182,-1.1856004688483417,2.7666725111994426,tremor
292,7716247,2.132,0.1023996293805031,-0.17143540053622175,-1.0562759644153763,5.31892924028947,0.3016223206367774,2.3508823441935185,tremor
293,7716252,2.137,0.09895214461064988,-0.17153628432860946,-1.051002279635463,5.180437297236891,1.6612225274056083,1.928862795673346,tremor
294,7716256,2.141,0.09586952400186079,-0.17152036365760534,-1.0460357196772219,5.012973599988553,2.8911772989234086,1.5039236179796696,tremor
295,7716261,2.146,0.0931428671437352,-0.17139252651639073,-1.0413874143046564,4.8203793555824594,3.9908346280340696,1.0791825471892076,tremor
296,7716266,2.151,0.09076124737051126,-0.1711584598354889,-1.0370651926984384,4.606377130631853,4.960822062798721,0.657550638229813,tremor
297,7716271,2.156,0.0887119342043323,-0.17082454790527024,-1.033073734630804,4.374549868182346,5.802950158072766,0.2417199745148737,tremor
298,7716276,2.161,0.08698061499177938,-0.17039776891621558,-1.029414737484721,4.12832235567471,6.520111679107775,-0.16584625710092016,tremor
299,7716281,2.166,0.08555161448416918,-0.16988559098083722,-1.0260870971998195,3.8709451536819337,7.116177565428062,-0.5629213453082024,tremor
300,7716285,2.17,0.08440811116157014,-0.16929586891914078,-1.0230871011369402,3.605480974215863,7.595890654246391,-0.9475203154614661,tremor
301,7716315,2.2,0.08353234913803191,-0.16863674298371104,-1.0204086307926625,3.33479347776047,7.964758148445986,-1.3179029089905112,tremor
302,7716320,2.205,0.08290584451710015,-0.1679165405811177,-1.0180433722696016,3.0615384407276456,8.22894379498222,-1.6725743250583363,tremor
303,7716325,2.21,0.0825095850990141,-0.16714368191993034,-1.0159810324210845,2.7881572304956905,8.395160712765854,-2.010283777487702,tremor
304,7716330,2.215,0.08232422238126987,-0.16632659038563477,-1.0142095586414754,2.5168725127734923,8.47056577025211,-2.3300209318705196,tremor
305,7716335,2.22,0.08233025484842107,-0.16547360831246313,-1.0127153603632224,2.2496861042305825,8.462656359863756,-2.6310103030772343,tremor
306,7716340,2.225,0.08250820161773349,-0.16459291869543405,-1.0114835304406,1.9883788717079067,8.379170351597104,-2.9127037112498573,tremor
307,7716345,2.23,0.08283876559384817,-0.16369247326617456,-1.0104980647365283,1.7345125687146234,8.227989937276076,-3.1747709131929964,tremor
308,7716350,2.235,0.0833029853853427,-0.16277992724572563,-1.0097420783705584,1.489433491121967,8.01705000495299,-3.417088544467634,tremor
309,7716354,2.239,0.08388237534591947,-0.16186258098781237,-1.009198017222588,1.2542778268146495,7.7542516128412045,-3.63972752456623,tremor
310,7716359,2.244,0.08455905321966561,-0.1609473286373971,-1.0088478634101024,1.0299785677435471,7.44738106530254,-3.842939092857984,tremor
311,7716364,2.249,0.08531585498999628,-0.16004061385144824,-1.0086733335617282,0.8172738467425252,7.104035030311599,-4.0271396563633,tremor
312,7716374,2.259,0.0861364366519469,-0.15914839256104527,-1.0086560687944348,0.6167165555509776,6.731552078133455,-4.192894641859774,tremor
313,7716383,2.268,0.08700536274390278,-0.15827610269536843,-1.0087778153658726,0.42868509469066013,6.336950963520162,-4.340901554481165,tremor
314,7716393,2.278,0.08790818158442747,-0.1574286407381995,-1.0090205950192126,0.25339509979321895,5.926875916947513,-4.471972452917871,tremor
315,7716398,2.283,0.08883148726010746,-0.15661034494626289,-1.0093668640698523,0.09091198247388999,5.507549152628622,-4.587016057521268,tremor
316,7716433,2.318,0.08976296850027232,-0.15582498502668216,-1.0097996603088537,-0.058835882309063614,5.084730741133964,-4.687019712197776,tremor
317,7716437,2.322,0.09069144465493598,-0.15507575804847665,-1.0103027368270956,-0.19604349490168,4.663685932653658,-4.773031424051183,tremor
318,7716442,2.327,0.09160688906531614,-0.15436529034896618,-1.0108606819088786,-0.32101527000542923,4.249159954912284,-4.846142205351948,tremor
319,7716447,2.332,0.0925004401834996,-0.15369564518584877,-1.0114590242158312,-0.4341509499813292,3.8453602490336807,-4.907468938514981,tremor
320,7716452,2.337,0.09336440085994795,-0.15306833587373103,-1.0120843225886942,-0.5359315634671916,3.455946046943437,-4.958137974875098,tremor
321,7716457,2.342,0.09419222627486852,-0.15248434412557893,-1.0127242399352794,-0.6269055950724863,3.0840251332872417,-4.999269662762647,tremor
322,7716461,2.346,0.09497850104269186,-0.15194414329330191,-1.013367600840113,-0.707675523628665,2.7321575718503976,-5.0319639816186825,tremor
323,7716466,2.351,0.0957189060693856,-0.1514477261679861,-1.0140044327151214,-0.7788848751204526,2.4023661112222388,-5.057287438014772,tremor
324,7716471,2.356,0.09641017579203996,-0.15099463696054252,-1.014625990502373,-0.8412059223828618,2.0961529180411125,-5.076261356791424,tremor
325,7716476,2.361,0.09705004648134163,-0.15058400703942107,-1.015224765132386,-0.8953281472976472,1.8145222197381616,-5.089851676375938,tremor
326,7716486,2.371,0.09763719634254016,-0.15021459395540498,-1.0157944761296245,-0.9419475628557128,1.5580083736413965,-5.098960332369281,tremor
327,7716491,2.376,0.0981711782113678,-0.14988482323632824,-1.0163300489366656,-0.9817569725709565,1.3267088176083304,-5.104418288287431,tremor
328,7716501,2.386,0.09865234570936493,-0.14959283238903467,-1.016827577697595,-1.0154372241190637,1.1203213015919193,-5.106980247108317,tremor
329,7716506,2.391,0.09908177379796262,-0.14933651650448704,-1.0172842743978159,-1.0436494936668759,0.9381847522463039,-5.107321052040601,tremor
330,7716511,2.396,0.09946117475013676,-0.14911357482740661,-1.0176984054009621,-1.0670286182423323,0.7793230854235716,-5.106033759614626,tremor
331,7716515,2.4,0.09979281063791456,-0.148921557626971,-1.018069216554278,-1.0861774767647057,0.642491254242249,-5.1036293426400805,tremor
332,7716520,2.405,0.1000794035075945,-0.14875791269212083,-1.0183968481528722,-1.101662406452839,0.5262228022124242,-5.10053795485065,tremor
333,7716530,2.415,0.10032404447661708,-0.14862003077491195,-1.01868224116255,-1.1140096296571629,0.42887818021387153,-5.097111663698986,tremor
334,7716554,2.439,0.1005301030324618,-0.14850528931782653,-1.0189270362025844,-1.123702655801558,0.3486930814046013,-5.093628533578943,tremor
