sample,t_ms,t_s,ax,ay,az,gx,gy,gz,tremor
0,7805124,0.0,0.016774569494821107,-0.08859957781963897,-1.048450030753236,-5.558071090673085,34.555536961781215,-1.5190600608388107,tremor
1,7805129,0.005,0.01879359747277505,-0.08807357714921245,-1.0498061050351932,-4.922889821341859,33.30540193559118,-1.1393068732106144,tremor
2,7805134,0.01,0.02166750573248257,-0.08735185793363882,-1.0516724834014843,-4.252295714033913,31.696398569608277,-0.7582741281528811,tremor
3,7805139,0.015,0.025510760136078763,-0.08642220923984305,-1.0540840098955242,-3.545585731424233,29.71251337636582,-0.3777942927088899,tremor
4,7805144,0.02,0.030289681585695564,-0.08530987471697765,-1.056978392892178,-2.8021842852490706,27.33949282742672,0.0002040560914901169,tremor
5,7805149,0.025,0.03587853626951026,-0.08405958681537193,-1.0602418270311824,-2.0216588529795403,24.565053430606643,0.37370426188088,tremor
6,7805153,0.029,0.04211988801978553,-0.08271923790748499,-1.0637510247148056,-1.2037354114648315,21.37908514550195,0.7406108920128633,tremor
7,7805158,0.034,0.048860541094782724,-0.08133135312182864,-1.0673954390538178,-0.34831348996584766,17.773845674158007,1.0987603259194607,tremor
8,7805163,0.039,0.05596553878516883,-0.07993058286016132,-1.0710840140953346,0.5445193560798991,13.744143096191783,1.4459326298027348,tremor
9,7805168,0.044,0.06331962249386242,-0.07854425171575866,-1.0747439949491346,1.4744738481231643,9.287504271945064,1.7798647059386794,tremor
10,7805173,0.049,0.07082356731804482,-0.0771939319498597,-1.0783170215685391,2.441046258237092,4.404326413882662,2.09826469047976,tremor
11,7805178,0.054,0.07838941766376872,-0.07589705450129695,-1.081755069256094,3.4435068403395976,-0.9019907734229629,2.3988275568317317,tremor
12,7805183,0.059,0.08593629258822844,-0.07466821095214059,-1.085017151322243,4.480889595156522,-6.624934957823865,2.6792518618232295,tremor
13,7805187,0.063,0.09338722110995733,-0.07352009674878131,-1.0880669283603195,5.551983531431432,-12.754795563659856,2.9372575485624886,tremor
14,7805213,0.089,0.10066696781042209,-0.07246415184278664,-1.090871089480572,6.655325569589436,-19.278605094405744,3.170604692853736,tremor
15,7805223,0.099,0.10770065643157654,-0.0715109758811677,-1.0933983122596735,7.789195216033352,-26.180109673827182,3.377113049879495,tremor
16,7805227,0.103,0.1144129889088845,-0.07067058563130248,-1.0956186296415156,8.951611118061896,-33.43977090193658,3.554682226963503,tremor
17,7805232,0.108,0.12072789298274375,-0.0699525658645157,-1.0975030727639157,10.14032959350276,-41.034800897932996,3.7013122806694665,tremor
18,7805237,0.113,0.12656847398955035,-0.06936614983068733,-1.099023496613484,11.35284521769475,-48.939232144739215,3.8151245156552855,tremor
19,7805242,0.118,0.13185718248355005,-0.06892025385305668,-1.1001525247653,12.586393544009384,-57.12402346366694,3.894382249279327,tremor
20,7805247,0.123,0.1365161363560371,-0.06862348232910327,-1.1008635703985454,13.83795603192109,-65.55720313315685,3.9375112982906613,tremor
21,7805252,0.128,0.14046755511205128,-0.06848411380779953,-1.1011309050800253,15.104267257683867,-74.20404981891787,3.943119939748132,tremor
22,7805257,0.133,0.1436342768085956,-0.06851007507937111,-1.1009297563407263,16.38182448598777,-83.02731159944521,3.9100180959209268,tremor
23,7805262,0.138,0.14594033660309064,-0.06870890776661112,-1.1002364213345688,17.66689968518407,-91.98746294592483,3.837235491547947,tremor
24,7805267,0.143,0.1473115912767663,-0.06908773031797513,-1.0990283879475642,18.95555407155435,-101.04299904463335,3.7240385312224196,tremor
25,7805272,0.148,0.1476763774762721,-0.06965319727791787,-1.0972844573639735,20.24365526689917,-110.15076633118261,3.569945644646895,tremor
26,7805277,0.153,0.14696619344489387,-0.07041145705303017,-1.0949848637902109,21.52689714622753,-119.266327540984,3.3747408481246146,tremor
27,7805282,0.158,0.1451163951564644,-0.07136810897500859,-1.0921113881133677,22.800822437687398,-128.3443589735594,3.13848527246896,tremor
28,7805286,0.162,0.14206689832952699,-0.0725281602003113,-1.0886474629426397,24.06084811549635,-137.339077024366,2.8615264112419747,tremor
29,7805291,0.167,0.13776287799190617,-0.0738959828284782,-1.0845782668888186,25.30229359957855,-146.204690358708,2.5445048493767546,tremor
30,7805301,0.177,0.13215545722404687,-0.0754752715330825,-1.0798908061730983,26.52041174395709,-154.89587338789283,2.1883582412372937,tremor
31,7805306,0.182,0.12520237652729982,-0.07726900196063838,-1.0745739817867774,27.7104225600396,-163.36825595907018,1.7943223195620253,tremor
32,7805311,0.187,0.11686863500733821,-0.07927939015162934,-1.0686186404955795,28.867549579913742,-171.5789233930073,1.3639287330165633,tremor
33,7805337,0.213,0.10712709428260271,-0.08150785326756808,-1.0620176080328823,29.987058716532246,-179.48692021221933,0.8989995306753277,tremor
34,7805342,0.218,0.09595903576358326,-0.0839549719647179,-1.0547657028836424,31.064299418792764,-187.0537501285031,0.40163813728118547,tremor
35,7805346,0.222,0.08335466174080436,-0.08662045483618573,-1.0468597291463717,32.09474784533968,-194.24386417514577,-0.1257833052617368,tremor
36,7805351,0.227,0.06931353061248072,-0.08950310544757858,-1.0382984470888927,33.07405168765069,-201.0251283752224,-0.6806403152687732,tremor
37,7805356,0.232,0.05384491662291728,-0.09260079261415051,-1.0290825201948397,33.99807616196432,-207.36926210712838,-1.2600762033372253,tremor
38,7805361,0.237,0.03696808470717579,-0.09591042470262409,-1.019214437739882,34.86295056917433,-213.25223836480157,-1.8610259337384283,tremor
39,7805366,0.242,0.018712471470788913,-0.09942792887801746,-1.0086984122474512,35.66511470376341,-218.6546373708111,-2.480243614717644,tremor
40,7805371,0.247,-0.0008822360087999206,-0.10314823634227221,-0.9975402515623581,36.40136428753363,-223.56194545303805,-3.1143334266048903,tremor
41,7805375,0.251,-0.021766130976511866,-0.10706527471461409,-0.9857472057561543,37.06889451876759,-227.96479173761145,-3.759783690475834,tremor
42,7805380,0.256,-0.04387923365931705,-0.11117196877138764,-0.9733277896473108,37.66534076838133,-231.8591160584151,-4.413003661843824,tremor
43,7805385,0.261,-0.0671517586472005,-0.11546025078447415,-0.9602915823844586,38.18881542627146,-235.24626255343847,-5.070362510082192,tremor
44,7805390,0.266,-0.09150450615900718,-0.11992108166239353,-0.9466490062968187,38.637939905589676,-238.1329947080335,-5.728229823023003,tremor
45,7805395,0.271,-0.11684937837854786,-0.12454448399837095,-0.9324110880468919,39.01187084985316,-240.53142908180814,-6.3830168654370025,tremor
46,7805400,0.276,-0.14309001978324007,-0.12931958795869575,-0.9175892059985202,39.3103196577801,-242.45888656296577,-7.031217727895673,tremor
47,7805405,0.281,-0.17012257785343365,-0.13423469069947108,-0.902194828599609,39.53356454665103,-243.93766167109857,-7.6694494382797505,tremor
48,7805409,0.285,-0.19783657777634972,-0.13927732968120443,-0.8862392494271611,39.68245452246168,-244.9947121305107,-8.294490083241596,tremor
49,7805414,0.29,-0.22611590179458363,-0.14443436986302585,-0.8697333253037043,39.758404819153114,-245.66127263598085,-8.90331401217041,tremor
50,7805419,0.295,-0.25483986076441884,-0.14969210430814378,-0.8526872245189329,39.7633836104671,-245.9723984233758,-9.49312327761958,tremor
51,7805428,0.304,-0.28388434236978316,-0.15503636722681066,-0.8351101926297235,39.69989008108418,-245.96644593730383,-10.061374600580793,tremor
52,7805433,0.309,-0.3131230173894955,-0.16045265793052263,-0.8170103435169277,39.57092425811989,-245.68449954738296,-10.605801323286014,tremor
53,7805461,0.337,-0.3424285825791835,-0.16592627358215803,-0.798394483293778,39.37994933395834,-245.169754861372,-11.124430006986456,tremor
54,7805471,0.347,-0.371674016312459,-0.17144244802414318,-0.7792679742221614,39.130847528826884,-244.4668706098098,-11.615591527331302,tremor
55,7805476,0.352,-0.4007338214365102,-0.17698649340272907,-0.7596346449332254,38.82787079815948,-243.62130214681758,-12.077926697649387,tremor
56,7805481,0.357,-0.4294852292081439,-0.18254394086823114,-0.7394967519392761,38.47558782952714,-242.67863012061596,-12.510386596204688,tremor
57,7805486,0.362,-0.4578093389675105,-0.18810067641143427,-0.7188549957166304,38.07882877108716,-241.6838977216804,-12.912227880601423,tremor
58,7805491,0.367,-0.4855921703906898,-0.19364306794693525,-0.69770859267184,37.64262901634051,-240.68096920660264,-13.283003445156295,tremor
59,7805496,0.372,-0.5127256084741182,-0.19915808006735788,-0.6760554022556584,37.172173196219845,-239.7119213147679,-13.622548826239251,tremor
60,7805500,0.376,-0.5391082254539348,-0.20463337342163881,-0.6538921065252385,36.67274034539433,-238.8164779034819,-13.930964796464794,tremor
61,7805505,0.381,-0.5646459682842156,-0.2100573863573428,-0.6312144376980389,36.14965103624326,-238.03149670398489,-14.208596616947725,tremor
62,7805510,0.386,-0.5892527047973837,-0.21541939725233644,-0.6080174477680601,35.608217117116936,-237.39051557390883,-14.456010439664626,tremor
63,7805520,0.396,-0.612850626030491,-0.22070956678832945,-0.5842958131031025,35.05369455150706,-236.92336400442346,-14.67396736937032,tremor
64,7805529,0.405,-0.6353705062703078,-0.22591896023387328,-0.5600441661156311,34.49123972891242,-236.65584394675494,-14.86339570614827,tremor
65,7805534,0.41,-0.6567518260448779,-0.23103955055634917,-0.5352574455837383,33.92586950167803,-236.60948227616691,-15.025361894910041,tremor
66,7805539,0.415,-0.6769427664967537,-0.23606420382380275,-0.509931256964767,33.362425089102224,-236.8013554521384,-15.161040704657529,tremor
67,7805544,0.42,-0.695900086265988,-0.24098664885008264,-0.4840622340582028,32.8055398759089,-237.24398521893343,-15.271685143439333,tremor
68,7805549,0.425,-0.7135888941727704,-0.2458014333612683,-0.4576483936023262,32.25961101557456,-237.94530258114276,-15.35859658033016,tremor
69,7805554,0.43,-0.7299823326325737,-0.2505038691211558,-0.4306894748047605,31.728774633263512,-238.90867582986482,-15.423095492673127,tremor
70,7805581,0.457,-0.7450611878816119,-0.2550899684690801,-0.40318725639820807,31.2168843148335,-240.132997121592,-15.466493188243433,tremor
71,7805590,0.466,-0.7588134437367564,-0.25955637462377873,-0.375145844581629,30.727492477253612,-241.6128210781664,-15.49006477373429,tremor
72,7805595,0.471,-0.7712337957113469,-0.26390028792571,-0.3465719261656586,30.263834156786565,-243.33854819159117,-15.495023563921166,tremor
73,7805600,0.476,-0.7823231417582573,-0.2681193899620096,-0.3174749823971839,29.828812742161684,-245.2966456190326,-15.482497067682871,tremor
74,7805609,0.485,-0.7920880646323266,-0.27221176727314245,-0.28786746027687266,29.424987229491578,-247.46989829712152,-15.453504664846877,tremor
75,7805619,0.495,-0.8005403188786618,-0.27617583609647,-0.2577648996539528,29.05456067406867,-249.83768408888017,-15.408937105281943,tremor
76,7805624,0.5,-0.807696332918807,-0.2800102693650348,-0.22718601589414122,28.719369638813454,-252.37626769784472,-15.349538005495818,tremor
77,7805629,0.505,-0.8135767338732658,-0.2837139269497542,-0.19615273934440408,28.420874568661993,-255.0591091496263,-15.275887568204244,tremor
78,7805634,0.51,-0.8182058999052382,-0.2872857899112776,-0.16469021402680858,28.160151141321492,-257.8571836216815,-15.18838879291279,tremor
79,7805639,0.515,-0.8216115422476937,-0.2907248993194136,-0.132826758883663,27.93788275109576,-260.73931022719415,-15.087256476641148,tremor
80,7805658,0.534,-0.8238243168656392,-0.2940303000116575,-0.10059379543681352,27.75435437126086,-263.6724880012447,-14.97250932493885,tremor
81,7805663,0.539,-0.8248774640160882,-0.29720098950859825,-0.06802574593853201,27.609448110055684,-266.62223778580096,-14.843965502884329,tremor
82,7805668,0.544,-0.8248064728696657,-0.3002358721970709,-0.03515990601624029,27.502640822282228,-269.55294894324,-14.701241944878278,tremor
83,7805673,0.549,-0.8236487679045192,-0.3031337188481578,-0.00203629548019613,27.433004158496328,-272.42822982062404,-14.543757697833103,tremor
84,7805677,0.553,-0.8214434139874107,-0.30589313156657344,0.03130250958328363,27.3992074264515,-275.21126064725297,-14.370741487870518,tremor
85,7805709,0.585,-0.8182308378442538,-0.30851251436463234,0.06481156099226001,27.39952361068085,-277.86514713839966,-14.181243580712534,tremor
86,7805719,0.595,-0.8140525648194734,-0.3109900496934678,0.0984437371913757,27.431838853126216,-280.35327259352397,-13.974151864174623,tremor
87,7805724,0.6,-0.8089509711702152,-0.3133236814074719,0.13214995540593136,27.493665642287247,-282.639645820579,-13.748211935670096,tremor
88,7805728,0.604,-0.8029690533264149,-0.31551110474009414,0.1658793965609199,27.58215988660087,-284.68924188487,-13.502050848558625,tremor
89,7805734,0.61,-0.7961502162996129,-0.3175497638942786,0.19957974251677887,27.694141957932214,-286.46833252617915,-13.234204073628325,tremor
90,7805739,0.615,-0.7885380836183938,-0.31943685778693226,0.23319742517836056,27.82612168956592,-287.9448030976322,-12.943145168409233,tremor
91,7805743,0.619,-0.7801763308534017,-0.3211693543460969,0.26667788687247984,27.97432721185606,-289.0884529954269,-12.627317609314623,tremor
92,7805748,0.624,-0.7711085441128315,-0.32274401356555726,0.2999658511198574,28.134737418733955,-289.8712767169799,-12.285168219899473,tremor
93,7805753,0.629,-0.7613781039957659,-0.3241574192975172,0.3330056026014286,28.30311778653721,-290.2677228799514,-11.91518161565852,tremor
94,7805758,0.634,-0.7510280945191944,-0.3254060195283191,0.36574127478180907,28.475059215881632,-290.25492874759294,-11.515915077139669,tremor
95,7805763,0.639,-0.7401012355929022,-0.3264861746494927,0.39811714334034115,28.646019536265626,-289.8129280352927,-11.086033256248545,tremor
96,7805768,0.644,-0.7286398367870854,-0.3273942130176336,0.43007792329612027,28.81136729679699,-288.92483001936955,-10.624342115340063,tremor
97,7805773,0.649,-0.7166857694759807,-0.3281264928993653,0.4615690675086308,28.966427457343634,-287.5769682327297,-10.129821497172212,tremor
98,7805778,0.654,-0.7042804539763978,-0.32867946972708434,0.49253706409241155,29.10652858363144,-285.7590173147689,-9.601655730313524,tremor
99,7805782,0.658,-0.6914648580409127,-0.32904976745145714,0.5229297301999751,29.22705112829111,-283.4640768891526,-9.039261694796178,tremor
100,7805787,0.663,-0.6782795030038697,-0.32923425267188855,0.5526964995959941,29.32347634107896,-280.6887216778624,-8.442313811328596,tremor
101,7805792,0.668,-0.6647644739949239,-0.3292301101609864,0.581788701458771,29.391435294505424,-277.4330174244162,-7.810765475521553,tremor
102,7805797,0.673,-0.6509594309022343,-0.3290349183781958,0.6101598278921133,29.42675744009627,-273.7005025885493,-7.1448665347157485,tremor
103,7805802,0.678,-0.636903617152882,-0.3286467235955108,0.6377657877014189,29.425518031110578,-269.49813618063433,-6.445176497091169,tremor
104,7805829,0.705,-0.6226358638458639,-0.3280641113363288,0.6645651440712741,29.38408366505204,-264.83621251996226,-5.712573269865997,tremor
105,7805834,0.71,-0.6081945872843105,-0.3272862739536372,0.6905193338709363,29.299155123005487,-259.728244121017,-4.9482573443305915,tremor
106,7805839,0.715,-0.5936177784634525,-0.3263130733339472,0.7155928664155019,29.16780663265467,-254.19081432391175,-4.153751474198023,tremor
107,7805844,0.72,-0.5789429835300536,-0.3251450978882189,0.7397534996496137,28.987520686006494,-248.24340166799684,-3.330896015058495,tremor
108,7805849,0.725,-0.5642072745998051,-0.3237837131569488,0.7629723919252477,28.75621762144873,-241.9081783431876,-2.481840184350871,tremor
109,7805854,0.73,-0.5494472105935404,-0.32223110549539447,0.7852242278227803,28.472279330259262,-235.2097853404702,-1.6090295448182343,tremor
110,7805859,0.735,-0.534698787952136,-0.3204903184072353,0.8064873167980275,28.134566649089653,-228.17508717328528,-0.7151900075003911,tremor
111,7805869,0.745,-0.5199973812458628,-0.3185652811582349,0.8267436638015996,27.74243022709525,-220.83290926534585,0.19669138869164202,tremor
112,7805874,0.75,-0.5053776738350289,-0.3164608293271638,0.8459790113909058,27.295714885692977,-213.2137612974414,1.1233887009365568,tremor
113,7805879,0.755,-0.490873578884903,-0.31418271694482547,0.8641828532293674,26.794757695036573,-205.34954996581473,2.061462090134603,tremor
114,7805883,0.759,-0.47651815120117097,-0.3117376198436549,0.881348419239872,26.240380147812836,-197.27328471596678,3.007285336903664,tremor
115,7805898,0.774,-0.4623434905373905,-0.3091331298051512,0.8974726330528277,25.63387490106796,-189.018780074365,3.9570754894259648,tremor
116,7805903,0.779,-0.44838063722913885,-0.30637773907066823,0.9125560427664318,24.976987583536758,-180.62035821054863,4.906924152825244,tremor
117,7805907,0.783,-0.43465946121451077,-0.30348081479850625,0.9266027264191987,24.27189415081626,-172.11255532311907,5.852829844941065,tremor
118,7805912,0.788,-0.4212085456802405,-0.3004525631343317,0.9396201739597726,23.521174242533483,-163.52983534371953,6.7907308193973375,tremor
119,7805917,0.793,-0.4080550667025022,-0.29730398273196634,0.9516191478766253,22.727780978911856,-154.90631428204193,7.716537798096144,tremor
120,7805922,0.798,-0.3952246703264338,-0.2940468078181957,0.9626135250018029,21.895007641135898,-146.27549829236415,8.626166134458709,tremor
121,7805950,0.826,-0.382741348567367,-0.2906934412190366,0.9726201223047128,21.026451708562753,-137.67003823714361,9.51556700758952,tremor
122,7805954,0.83,-0.3706273158525191,-0.28725687812064943,0.9816585097189671,20.125976763170037,-129.12150316592337,10.380757304623256,tremor
123,7805959,0.835,-0.35890288748963234,-0.2837506216770737,0.9897508131707361,19.197672800217823,-120.66017472622295,11.217847887771965,tremor
124,7805969,0.845,-0.34758636187558256,-0.2801885918436518,0.99692151097351,18.245815489677295,-112.31486408367566,12.023069980552249,tremor
125,7805979,0.855,-0.3366939083504301,-0.27658502896781983,1.0031972266039408,17.274824911979664,-104.11275246123688,12.792799456676835,tremor
126,7805984,0.86,-0.32623946283890903,-0.27295439370170427,1.0086065205818826,16.28922425249164,-96.07925592862279,13.523578875954472,tremor
127,7805989,0.865,-0.3162346336535998,-0.2693112647412809,1.0131796837753249,15.293598894145553,-88.23791460303899,14.212137176648103,tremor
128,7805994,0.87,-0.30668862000462477,-0.2656702357845519,1.0169485339828621,14.292556304039348,-80.61030597824718,14.855406994013858,tremor
129,7805999,0.875,-0.2976081458257578,-0.2620458129692244,1.0199462171599611,13.29068706849874,-73.21598169645532,15.45053962455143,tremor
130,7806003,0.879,-0.28899741146633745,-0.2584523139190012,1.0222070141919475,12.292527390877837,-66.07242672990917,15.994917693544219,tremor
131,7806008,0.884,-0.28085806560996524,-0.25490376940665577,1.0237661537082323,11.30252332690663,-59.19503965530292,16.486165610676906,tremor
132,7806013,0.889,-0.2731891994710254,-0.25141382853472205,1.0246596311005836,10.324996994301674,-52.59713248697238,16.922157915832713,tremor
133,7806018,0.894,-0.2659873649034743,-0.24799566824024788,1.024924033665809,9.364114957425425,-46.28994838252025,17.301025625072615,tremor
134,7806022,0.898,-0.25924661755828815,-0.24466190784616476,1.0245963716453428,8.423858954538222,-40.282695442866455,17.621160685754255,tremor
135,7806027,0.903,-0.25295858567690777,-0.24142452930522776,1.0237139148801242,7.507999105130786,-34.58259479205316,17.881218640741334,tremor
136,7806032,0.908,-0.24711256453683794,-0.23829480370993142,1.0223140348325623,6.6200697087142055,-29.19494113332409,18.080119586876833,tremor
137,7806037,0.913,-0.2416956359976324,-0.23528322457039277,1.0204340518367998,5.763347724938973,-24.12317402796093,18.217047496347902,tremor
138,7806042,0.918,-0.23669281205400874,-0.23239944828966835,1.0181110876081116,4.940834007831091,-19.368958220843908,18.29144795640546,tremor
139,7806046,0.922,-0.23208720080886372,-0.22965224219102293,1.0153819232529766,4.155237353298467,-14.932271429810033,18.303024377025768,tremor
140,7806077,0.953,-0.22786019285012238,-0.22704944037409264,1.0122828632511567,3.4089614077122707,-10.811498115397585,18.251732718073157,tremor
141,7806082,0.958,-0.2239916656641208,-0.22459790759792606,1.008849606103027,2.704094474353862,-7.003527848780795,18.137774795016906,tremor
142,7806086,0.962,-0.22046020345013376,-0.22230351131167744,1.005117122513891,2.0424022398532036,-3.5038569965215,17.961590232163328,tremor
143,7806091,0.967,-0.21724332951298894,-0.22017110188297734,1.0011195420827186,1.4253234198176017,-0.3066925396205059,17.72384714234977,tremor
144,7806096,0.972,-0.21431774829318548,-0.2182045010139853,0.9968900494502088,0.8539682906092749,2.594943058855126,17.42543162124744,tremor
145,7806101,0.977,-0.2116595940325379,-0.216406498287148,0.9924607907450698,0.3291200369454167,5.209106926500667,17.067436153251997,tremor
146,7806106,0.982,-0.20924468305560726,-0.2147788557443497,0.9878627909793498,-0.14876119117173878,7.544831685431623,16.651147034803,tremor
147,7806111,0.987,-0.2070487666654613,-0.21332232036968973,0.9831258828233176,-0.5795316497981756,9.612022980414276,16.178030929302945,tremor
148,7806116,0.992,-0.2050477817040436,-0.21203664431223615,0.9782786469715041,-0.9633549630360942,11.421359330872333,15.649720674715281,tremor
149,7806120,0.996,-0.2032180959131412,-0.21092061264607465,0.9733483641175467,-1.3006908562511537,12.984194919114955,15.068000470377603,tremor
150,7806126,1.002,-0.201536745353055,-0.20997207841731005,0.9683609784005593,-1.5922818531630185,14.312465846350701,14.434790574810382,tremor
151,7806130,1.006,-0.1999816612932713,-0.2091880046695692,0.9633410720759219,-1.8391381367214554,15.418600313122717,13.752131653216264,tremor
152,7806144,1.02,-0.19853188418134496,-0.20856451307125184,0.9583118510976617,-2.042520778049185,16.31543311100591,13.022168923186438,tremor
153,7806149,1.025,-0.19716776251815668,-0.2080969386917651,0.9532951412705262,-2.203923540638088,17.01612474701192,12.24713625941453,tremor
154,7806154,1.03,-0.19587113471052206,-0.20777989039472605,0.948311394623641,-2.325053468992198,17.534085460572626,11.429340430958836,tremor
155,7806159,1.035,-0.19462549222260545,-0.2076073162391471,0.9433797056559209,-2.407810471917823,17.882904334979436,10.571145655665234,tremor
156,7806169,1.045,-0.193416122591844,-0.20757257320990843,0.9385178370880722,-2.454266110148096,18.076283650710746,9.67495866530862,tremor
157,7806194,1.07,-0.19223023110318538,-0.20766850053934127,0.9337422547147728,-2.466641795264545,18.12797857717709,8.743214482896152,tremor
158,7806199,1.075,-0.19105704012495234,-0.20788749583337623,0.9290681708781953,-2.4472866015725114,18.051742252128125,7.778363120043722,tremor
159,7806205,1.081,-0.1898878653078618,-0.2082215931786717,0.9245095959803679,-2.3986548853142815,17.861276254593218,6.782857403263821,tremor
160,7806209,1.085,-0.18871616805230354,-0.20866254238235496,0.9200793973211481,-2.323283898043188,17.57018643831323,5.7591421277174515,tremor
161,7806214,1.09,-0.18753758387790953,-0.20920188848506185,0.9157893643997465,-2.223771574722056,17.191944058690314,4.709644713250527,tremor
162,7806219,1.095,-0.18634992659790622,-0.20983105069202201,0.9116502796632617,-2.1027546722779205,16.739852097212797,3.6367675033878526,tremor
163,7806224,1.1,-0.1851531685125216,-0.2105413998862651,0.907671993538596,-1.9628874296692675,16.22701666202813,2.542881808694888,tremor
164,7806229,1.105,-0.18394939718590306,-0.21132433392237124,0.9038635024553443,-1.806820914410894,15.666323320503134,1.4303237556530557,tremor
165,7806233,1.109,-0.1827427497489459,-0.21217134994822756,0.9002330284649317,-1.6371832116881593,15.070418198538844,0.3013919631620425,tremor
166,7806238,1.114,-0.1815393260610923,-0.2130741130654022,0.8967880989909446,-1.4565605999108964,14.451693661752063,-0.8416529679318313,tremor
167,7806243,1.119,-0.18034708244919698,-0.2140245207147985,0.8935356252105324,-1.2674798409574042,13.82227837419847,-1.9965872010275059,tremor
168,7806253,1.129,-0.1791757081010251,-0.21501476226133295,0.8904819775681702,-1.0723916958593982,13.194031508532268,-3.161220726676646,tremor
169,7806263,1.139,-0.17803648650419523,-0.2160373733472023,0.8876330569606048,-0.8736557593726494,12.578540853917746,-4.3333928549970935,tremor
170,7806268,1.144,-0.17694214456621774,-0.21708528468529928,0.8849943602035121,-0.6735266910885687,11.987124530906565,-5.5109662831294886,tremor
171,7806273,1.149,-0.17590669220439234,-0.21815186506943615,0.882571038492396,-0.47414190612215523,11.430835972983623,-6.691819917072686,tremor
172,7806278,1.154,-0.17494525523699117,-0.21923095848240468,0.8803679476965892,-0.27751077370047256,10.920471772663468,-7.873840660328368,tremor
173,7806283,1.159,-0.17407390433454725,-0.22031691528214892,0.878389689468416,-0.08550535665691164,10.46658192042368,-9.05491441172834,tremor
174,7806287,1.163,-0.17330948261590315,-0.22140461753616206,0.8766406423022002,0.10014729015146334,10.079481894881507,-10.232916540316637,tremor
175,7806292,1.168,-0.17266943422556638,-0.22248949865106438,0.8751249818334335,0.27787125754477,9.769265999815925,-11.405702126522549,tremor
176,7806318,1.194,-0.1721716359396097,-0.22356755750554738,0.8738466898219781,0.44624636096669584,9.545821293426664,-12.571096276683376,tremor
177,7806323,1.199,-0.17183423354924704,-0.22463536733880737,0.8728095514108998,0.6040111732553229,9.418841421673493,-13.726884831521343,tremor
178,7806332,1.208,-0.17167548449539827,-0.22569007967261462,0.8720171403924981,0.7500645305862912,9.39783965472282,-14.87080579585744,tremor
179,7806337,1.213,-0.1717136080007229,-0.22672942355382172,0.8714727923461919,0.8834655396069891,9.49216043753983,-16.000541813472154,tremor
180,7806347,1.223,-0.1719666437804188,-0.2277517003972469,0.8711795656431175,1.0034321255201393,9.71098880322512,-17.11371399635943,tremor
181,7806352,1.228,-0.17245232029958008,-0.2287557746894367,0.8711401904453534,1.1093381744464528,10.063357054927797,-18.207877393741384,tremor
182,7806357,1.233,-0.17318793345399877,-0.2297410607855066,0.8713570059685899,1.2007093365489103,10.558148188786715,-19.280518356789468,tremor
183,7806362,1.238,-0.17419023644836443,-0.23070750599808776,0.8718318864281013,1.2772175677339974,11.20409559716201,-20.329054022230565,tremor
184,7806366,1.242,-0.17547534150343289,-0.23165557014338292,0.8725661562481806,1.3386744969080184,12.009778653319716,-21.35083410160465,tremor
185,7806371,1.247,-0.17705863382754597,-0.23258620167814298,0.8735604952815819,1.3850237126263558,12.983613834260144,-22.343145121764735,tremor
186,7806376,1.252,-0.1789546980369027,-0.23350081053602922,0.8748148349535612,1.4163320672457378,14.133841088359768,-23.303217216219732,tremor
187,7806381,1.257,-0.18117725691271283,-0.23440123775448618,0.8763282464101687,1.4327800982382564,15.468505201304307,-24.228233517279058,tremor
188,7806396,1.272,-0.18373912205835544,-0.235289721975365,0.8780988219080675,1.4346516655162644,16.995431961333477,-25.115342147332907,tremor
189,7806401,1.277,-0.18665215568821547,-0.23616886290542366,0.880123550829192,1.4223229012239555,18.722198979067713,-25.96167075613341,tremor
190,7806406,1.282,-0.18992724247177303,-0.23704158183852733,0.8823981918338192,1.3962505651675827,20.656101086401936,-26.764343502332537,tremor
191,7806410,1.286,-0.19357427010885295,-0.23791107937289363,0.8849171427758903,1.3569598952415138,22.804110331490875,-27.52050033395092,tremor
192,7806415,1.291,-0.1976021171603493,-0.23878079050691592,0.8876733100912308,1.3050320382321372,25.1728307067318,-28.227318383871005,tremor
193,7806446,1.322,-0.20201864662378705,-0.2396543373666569,0.890657979430677,1.2410911429907152,27.768447891028092,-28.88203526061781,tremor
194,7806451,1.327,-0.20683070382247432,-0.24053547990428886,0.8938606893451737,1.1657911961541723,30.596674447601732,-29.481973979786556,tremor
195,7806456,1.332,-0.2120441173462907,-0.24142806500286546,0.8972691098373532,1.0798026813237391,33.66269107990908,-30.024569249206134,tremor
196,7806461,1.337,-0.21766370200007384,-0.24233597451863073,0.9008689275717222,0.9837991465857558,36.9710846924442,-30.507394795977376,tremor
197,7806466,1.342,-0.22369326293429292,-0.24326307287625437,0.9046437394818355,0.8784437725617631,40.52578411437913,-30.92819140912123,tremor
198,7806480,1.356,-0.230135600311563,-0.24421315489588563,0.9085749564292052,0.7643760431526365,44.32999441531261,-31.284895366998978,tremor
199,7806495,1.371,-0.23699251397718923,-0.24518989456866086,0.9126417184606038,0.6421986326296821,48.386130775572006,-31.575666921865174,tremor
200,7806500,1.376,-0.24426480764630182,-0.2461967955073515,0.9168208230872562,0.5124646338507055,52.6957528731922,-31.798918523926158,tremor
201,7806505,1.381,-0.2519522921064723,-0.2472371437815894,0.9210866678840908,0.3756652602122988,57.259500721630815,-31.953342482757495,tremor
202,7806510,1.386,-0.26005378689101905,-0.24831396380549642,0.9254112085932219,0.23221815567942528,62.07703284545033,-32.03793778166298,tremor
203,7806515,1.391,-0.26856711983882503,-0.24942997788487464,0.9297639338216421,0.08245644243926145,67.1469676282327,-32.05203577676444,tremor
204,7806524,1.4,-0.2774891239495073,-0.2505875699573214,0.934111857348695,-0.07338137311311385,72.46682862088896,-31.995324524353272,tremor
205,7806529,1.405,-0.28681563098512247,-0.2517887539762284,0.93841952899784,-0.2351605248970026,78.03299456951697,-31.86787148495739,tremor
206,7806534,1.41,-0.29654146137093085,-0.25303514730083515,0.9426490649715494,-0.40285803922621155,83.84065491774125,-31.670144348488442,tremor
207,7806539,1.415,-0.3066604101143061,-0.25432794935959474,0.9467601984915563,-0.5765696180015315,89.88377156479052,-31.403029710179815,tremor
208,7806566,1.442,-0.3171652286928632,-0.2556679257522765,0.950710351524667,-0.7565152618118824,96.15504771784067,-31.06784930229282,tremor
209,7806571,1.447,-0.32804760314731074,-0.25705539784714165,0.9544547283032714,-0.9430435464038688,102.64590475547288,-30.666373456051545,tremor
210,7806575,1.451,-0.3392981289194932,-0.2584902378153322,0.9579464312653104,-1.1366344714512688,109.3464680974615,-30.200831440443267,tremor
211,7806580,1.456,-0.3509062832534093,-0.2599718689308819,0.9611365999355178,-1.3379008091468005,116.24556312774378,-29.673918309020532,tremor
212,7806585,1.461,-0.3628603961774137,-0.26149927085861185,0.9639745731427921,-1.5475878937467995,123.33072221917122,-29.08879788827145,tremor
213,7806590,1.466,-0.37514762117730655,-0.26307098955894404,0.9664080748134705,-1.7665718118710954,130.58820384818813,-28.449101561082472,tremor
214,7806599,1.475,-0.3877539066445476,-0.26468515136041654,0.9683834233952405,-1.9958559756663392,138.00302466298655,-27.758922533412,tremor
215,7806604,1.48,-0.4006639690512751,-0.2663394806874031,0.9698457647513513,-2.2365660852534317,145.55900518286822,-27.0228053202434,tremor
216,7806609,1.485,-0.41386126858450795,-0.2680313208820016,0.9707393281204164,-2.48994351194516,153.23882956355214,-26.245730248529174,tremor
217,7806619,1.495,-0.4273279876928163,-0.2697576575255752,0.9710077044645241,-2.7573371586566893,161.02411956819597,-25.4330928496712,tremor
218,7806624,1.5,-0.4410450126906917,-0.2715151436476146,0.9705941462292517,-3.0401938780963027,168.89552254550026,-24.59067809940497,tremor
219,7806629,1.505,-0.454991918261387,-0.27330012620775973,0.9694418872165743,-3.340047552046347,176.83281284847828,-23.724629554472653,tremor
220,7806634,1.51,-0.46914695443022253,-0.2751086732507193,0.9674944809306268,-3.658506955542944,184.81500574885794,-22.84141352864367,tremor
221,7806644,1.52,-0.48348703537350857,-0.2769366011624838,0.9646961554041407,-3.997242547523129,192.82048253144816,-21.94777854161932,tremor
222,7806653,1.529,-0.49798772929808816,-0.27877950149796216,0.9609921821595755,-4.357972344603543,200.82712510701447,-21.050710360133145,tremor
223,7806658,1.534,-0.5126232485788659,-0.28063276690330613,0.9563292566146195,-4.742447047038306,208.8124581792314,-20.15738302863343,tremor
224,7806663,1.539,-0.5273664393818129,-0.28249161571980724,0.9506558869188011,-5.152434593762441,216.75379676156567,-19.27510635509279,tremor
225,7806689,1.565,-0.5421887701342544,-0.2843511149299447,0.9439227879172737,-5.589704322885414,224.62839667916964,-18.411270374361326,tremor
226,7806694,1.57,-0.5570603184330435,-0.28620620118826257,0.9360832766868632,-6.056010902140697,232.41360561370675,-17.57328735755511,tremor
227,7806699,1.575,-0.5719497562937248,-0.28805169976558087,0.9270936658814685,-6.553078172627213,240.08701225654752,-16.76853197358036,tremor
228,7806704,1.58,-0.5868243340214433,-0.28988234131721957,0.9169136509592021,-7.082583025603772,247.62659123232027,-16.004280240588738,tremor
229,7806709,1.585,-0.6016498634049017,-0.291692776457185,0.9055066872419713,-7.646139413252298,255.01084163557434,-15.287647931850936,tremor
230,7806713,1.589,-0.6163907013728764,-0.29347758817673186,0.892840352680108,-8.245282583196987,262.21891726157236,-14.625529121010784,tremor
231,7806718,1.594,-0.6310097356822979,-0.2952313021877982,0.8788866921616976,-8.88145362180255,269.23074687160187,-14.024535563883168,tremor
232,7806723,1.599,-0.6454683746044769,-0.29694839530289213,0.8636225392200938,-9.555984389695931,276.02714308925533,-13.490937616668692,tremor
233,7806728,1.604,-0.6597265429244126,-0.2986233019875795,0.8470298110550695,-10.270082931703827,282.58989876954956,-13.030607383509702,tremor
234,7806733,1.609,-0.6737426868551919,-0.30025041924428403,0.8290957728942628,-11.02481944090938,288.9018699199089,-12.648964769422307,tremor
235,7806738,1.614,-0.6874737906866202,-0.3018241100105525,0.8098132678836473,-11.821112852688044,294.9470444854295,-12.35092708694505,tremor
236,7806747,1.623,-0.7008754081273882,-0.3033387052841098,0.7891809089113246,-12.659718140265099,300.7105965423661,-12.140862825956535,tremor
237,7806752,1.628,-0.7139017113565231,-0.3047885052223459,0.7672032290418154,-13.541214379947998,306.1789256724675,-12.02255014694456,tremor
238,7806757,1.633,-0.7265055607646052,-0.30616777950502516,0.7438907875723917,-14.46599365352264,311.33968151750895,-11.999140599911053,tremor
239,7806762,1.638,-0.7386385982282826,-0.3074707672936388,0.7192602291229402,-15.434250859027346,316.1817737431382,-12.073128504327025,tremor
240,7806767,1.643,-0.7502513665122291,-0.3086916771645527,0.6933342936409514,-16.445974509379433,320.69536787829276,-12.246326349252586,tremor
241,7806772,1.648,-0.7612934570223308,-0.3098246874300998,0.6661417757493945,-17.500938609003388,324.87186773902613,-12.519846486913853,tremor
242,7806777,1.653,-0.7717136876387491,-0.31086394728584393,0.6377174324931847,-18.59869570848124,328.70388538600935,-12.894089300361959,tremor
243,7806781,1.657,-0.7814603117388758,-0.31180357922792473,0.6081018392523254,-19.7385712437204,332.18519979431926,-13.368737931071715,tremor
244,7806786,1.662,-0.7904812587837794,-0.31263768316745155,0.577341194383458,-20.919659267559556,335.31070562524496,-13.942759559879219,tremor
245,7806813,1.689,-0.7987244059984211,-0.31336034262666607,0.5454870740147753,-22.14081967674585,338.07635367744973,-14.614413146991941,tremor
246,7806818,1.694,-0.80613787974746,-0.3139656333333579,0.5125961393244972,-23.400677024557595,340.47908475184414,-15.381263455085145,tremor
247,7806823,1.699,-0.8126703842385264,-0.31444763443816587,0.47872979952598876,-24.697620988279017,342.51675877729735,-16.24020110527483,tremor
248,7806837,1.713,-0.8182715542428588,-0.3148004424701032,0.4439538345838491,-26.02980853131691,344.1880810956562,-17.187468350968086,tremor
249,7806842,1.718,-0.8228923276891981,-0.3150181880280809,0.4083379823194578,-27.395167762578833,345.4925277867844,-18.2186901988517,tremor
250,7806847,1.723,-0.8264853333273391,-0.31509505508996016,0.37195549499386416,-28.791403451135785,346.430271836739,-19.32891045538717,tremor
251,7806862,1.738,-0.8290052882128984,-0.31502530271311635,0.3348826706872651,-30.216004101513004,347.002111832337,-20.51263222579073,tremor
252,7806877,1.753,-0.8304093995469616,-0.31480328880552716,0.29719836486241796,-31.666250433487953,347.2094047174652,-21.763862337545028,tremor
253,7806881,1.757,-0.830657765399354,-0.31442349556526383,0.2589834874495014,-33.139225042775834,347.0540039800194,-23.076159103328443,tremor
254,7806887,1.763,-0.8297137690173774,-0.3138805561202397,0.22032049066428738,-34.631822955181505,346.5382044613163,-24.44268278780907,tremor
255,7806891,1.767,-0.8275444617258544,-0.3131692818527215,0.18129285260191644,-36.14076274183475,345.66469479796757,-25.856248115789157,tremor
256,7806896,1.772,-0.8241209298088347,-0.31228468987003577,0.1419845614607272,-37.662597850039596,344.4365183204905,-27.30937816887854,tremor
257,7806901,1.777,-0.8194186411824681,-0.31122203008997185,0.10247960506907311,-39.19372782724914,342.85704304050125,-28.794359059937754,tremor
258,7806906,1.782,-0.8134177680862907,-0.30997681145198064,0.06286147023236943,-40.730409170253964,340.92994115711923,-30.303294830194787,tremor
259,7806911,1.787,-0.8061034824108225,-0.3085448268484422,0.023212656295574133,-42.26876560983721,338.65917830461234,-31.82816206693078,tremor
260,7806939,1.815,-0.797466220626069,-0.3069221764976758,-0.016385792775766943,-43.80479773518067,336.04901255035986,-33.36086378576892,tremor
261,7806944,1.82,-0.7875019155702284,-0.30510528964999073,-0.05585473356988037,-45.33439196388068,333.10400293659967,-34.89328216396245,tremor
262,7806949,1.825,-0.7762121926028321,-0.30309094471613107,-0.09511734152973708,-46.853328960983,329.829027141673,-36.4173297521922,tremor
263,7806954,1.83,-0.7636045278343825,-0.3008762881061553,-0.1340994984264649,-48.35729169139716,326.22930761859595,-37.92499883223162,tremor
264,7806959,1.835,-0.7496923663368381,-0.2984588522324919,-0.17273014535641878,-49.84187334789136,322.3104453560887,-39.4084086257393,tremor
265,7806964,1.84,-0.7344951984422888,-0.2958365732377256,-0.2109415980637765,-51.30258543368752,318.0784602075982,-40.85985009548625,tremor
266,7806973,1.849,-0.7180385924755497,-0.2930078090443288,-0.24866982195732262,-52.73486629939353,313.5398365556747,-42.27182811541711,tremor
267,7806978,1.854,-0.7003541825569621,-0.28997135829094617,-0.2858546648268281,-54.13409044072833,308.70157292930156,-43.63710082133675,tremor
268,7806983,1.859,-0.6814796104596824,-0.2867264806261684,-0.32244004593399556,-55.49557885599532,303.5712340753658,-44.94871599090856,tremor
269,7806988,1.864,-0.661458420905402,-0.2832729186884484,-0.35837410083498344,-56.814610740822246,298.15700390494334,-46.20004434084856,tremor
270,7806993,1.869,-0.640339910121607,-0.27961092192474757,-0.3936092819763735,-58.08643676381043,292.4677376903689,-47.38480967078766,tremor
271,7807002,1.878,-0.6181789279495049,-0.27574127220642597,-0.4281024157864502,-59.30629412227642,286.5130118776156,-48.49711582647862,tremor
272,7807007,1.883,-0.595035634273574,-0.2716653110041891,-0.46181471764825927,-60.469423524229654,280.30316989596525,-49.531470498344305,tremor
273,7807012,1.888,-0.5709752110292947,-0.2673849676985183,-0.4947117667745772,-61.57108818410833,273.84936238812145,-50.48280591267867,tremor
274,7807017,1.893,-0.5460675315210076,-0.26290278843952825,-0.5267634435874113,-62.606594859479934,267.16358034490696,-51.34649650939795,tremor
275,7807022,1.898,-0.5203867892369283,-0.25822196483914783,-0.5579438327144634,-63.57131689662321,260.2586797100395,-52.11837372934364,tremor
276,7807027,1.903,-0.4940110887844418,-0.2533463616840666,-0.5882310951330926,-64.46071919449618,253.14839612826552,-52.794738054193346,tremor
277,7807032,1.908,-0.46702200199841254,-0.2482805428023508,-0.6176073133035115,-65.27038493710386,245.84734865286606,-53.3723684531909,tremor
278,7807060,1.936,-0.43950409271408325,-0.24302979420032003,-0.6460583133266913,-65.9960438827912,238.37103141249892,-53.848529394091756,tremor
279,7807065,1.941,-0.41154441415076637,-0.23760014360738402,-0.6735734682356636,-66.63360193772489,230.73579246283853,-54.22097557173511,tremor
280,7807070,1.946,-0.383231983306568,-0.23199837561990333,-0.7001454864902861,-67.17917168526803,222.95879930755126,-54.48795449760076,tremor
281,7807075,1.951,-0.35465723717549336,-0.22623204171178982,-0.7257701896166714,-67.62910349932329,215.05799085121484,-54.64820707950859,tremor
282,7807080,1.956,-0.3259114759195262,-0.22030946446929325,-0.7504462827407764,-67.98001684086017,207.05201583000598,-54.70096630450483,tremor
283,7807085,1.961,-0.2970862983368641,-0.2142397355026786,-0.7741751215340816,-68.2288313205878,198.9601580478365,-54.645954121956756,tremor
284,7807090,1.966,-0.26827303506905736,-0.2080327065847592,-0.7969604788329647,-68.37279710323955,190.80224902574344,-54.48337660946938,tremor
285,7807095,1.971,-0.2395621850011339,-0.20169897366453454,-0.8188083139223892,-68.40952422880449,182.59856895074853,-54.21391749149773,tremor
286,7807100,1.976,-0.21104286024655544,-0.1952498535037332,-0.8397265471959809,-68.3370104345289,174.3697370843377,-53.83873006736809,tremor
287,7807104,1.98,-0.18280224498986206,-0.18869735278627683,-0.8597248426224187,-68.1536670800176,166.13659305510683,-53.35942758934133,tremor
288,7807119,1.995,-0.15492507330003397,-0.18205412965801956,-0.8788144001633895,-67.85834280612886,157.9200707080129,-52.77807211212887,tremor
289,7807124,2.0,-0.12749313083515038,-0.17533344776910298,-0.8970077600004069,-67.45034459485362,149.7410664022789,-52.09716181527231,tremor
290,7807128,2.004,-0.1005847851280097,-0.1685491230150094,-0.9143186201348501,-66.92945593929967,141.6203038213618,-51.31961678194335,tremor
291,7807138,2.014,-0.07427454885359694,-0.16171546330368172,-0.9307616686246044,-66.29595187707672,133.57819745943837,-50.448763204136725,tremor
292,7807143,2.019,-0.04863268011029982,-0.15484720181171568,-0.9463524314046646,-65.55061068352653,125.63471697091299,-49.48831597656019,tremor
293,7807179,2.055,-0.02372482328387167,-0.14795942432796688,-0.9611071362959214,-64.69472206066841,117.80925452297318,-48.44235964117496,tremor
294,7807189,2.065,0.00038830649711951715,-0.14106749141057254,-0.9750425934257579,-63.730091691707194,110.12049719154318,-47.315327651830486,tremor
295,7807194,2.07,0.023651192959048644,-0.1341869561908839,-0.9881760918728416,-62.659042058400274,102.58630629170906,-46.111979942873965,tremor
296,7807199,2.075,0.046013740709925366,-0.12733347872894893,-1.0005253119407658,-61.484409439038224,95.2236053294972,-44.83737880481413,tremor
297,7807203,2.079,0.06743144884635095,-0.12052273784841477,-1.0121082521113804,-60.20953701962253,88.0482780068107,-43.496863091548256,tremor
298,7807213,2.089,0.08786553606481645,-0.11377034135579275,-1.0229431694688014,-58.83826406387249,81.07507742768532,-42.096020806017734,tremor
299,7807218,2.094,0.10728301792261569,-0.10709173549428788,-1.0330485322331016,-57.37491110364953,74.31754736971462,-40.64066013483341,tremor
300,7807223,2.099,0.12565673752638562,-0.10050211441394669,-1.042442982992092,-55.82426113362464,67.78795621636903,-39.13677902761541,tremor
301,7807228,2.104,0.14296535145041636,-0.09401633037246669,-1.051145311255711,-54.19153682431198,61.49724389824897,-37.59053344185173,tremor
302,7807233,2.109,0.1591932730973783,-0.08764880532463536,-1.0591744340613218,-52.48237380690986,55.45498196410968,-36.00820439676135,tremor
303,7807242,2.118,0.17433057601749546,-0.08141344451959262,-1.0665493835048763,-50.70279013198367,49.66934669689602,-34.3961639996337,tremor
304,7807247,2.123,0.18837285991323963,-0.07532355270781382,-1.0732893002332249,-48.85915206090328,44.14710500785571,-32.76084062720494,tremor
305,7807252,2.128,0.20132108219624975,-0.06939175356468047,-1.0794134320776336,-46.95813641144883,38.89361268348436,-31.108683464861908,tremor
306,7807257,2.133,0.21318135805606506,-0.06362991296200571,-1.0849411371127637,-45.006689743212775,33.91282442406434,-29.44612662865946,tremor
307,7807262,2.138,0.2239647320702236,-0.05804906675709138,-1.0898918904715995,-43.01198473082177,29.207314996787854,-27.779553118853457,tremor
308,7807271,2.147,0.23368692445016429,-0.05265935381283398,-1.094285294227973,-40.98137413157991,24.77831072991285,-26.115258877856608,tremor
309,7807276,2.152,0.2423680550872965,-0.0474699550023891,-1.0981410895786012,-38.92234280720493,20.62573049751983,-24.459417249126513,tremor
310,7807303,2.179,0.2500323486417513,-0.042489038976712204,-1.1014791704304736,-36.84245830383979,16.748235288052477,-22.81804415513728,tremor
311,7807309,2.185,0.25670782399675424,-0.037723715470874254,-1.1043195973516724,-34.749320526755255,13.14328541449692,-21.196964329415255,tremor
312,7807313,2.189,0.26242597146347574,-0.03317999688445897,-1.1066826107086176,-32.65051106333615,9.807204410362326,-19.601778944229782,tremor
313,7807318,2.194,0.26722142112959874,-0.028862768786059798,-1.108588641728814,-30.55354270890808,6.735248663109,-18.037834965961146,tremor
314,7807323,2.199,0.27113160566549954,-0.024775769863588672,-1.110058320224236,-28.46580973622567,3.9216818609610424,-16.51019654292041,tremor
315,7807328,2.204,0.2741964207206084,-0.02092158168169414,-1.1111124777932917,-26.39453942583359,1.3598533619312632,-15.02361869066478,tremor
316,7807333,2.209,0.2764578857701312,-0.017301628431261755,-1.111772145474715,-24.34674534650349,-0.9577203719241155,-13.582523495549813,tremor
317,7807337,2.213,0.27795980793572433,-0.013916186679173064,-1.1120585450318152,-22.32918284475257,-3.0392720995666154,-12.190979013978387,tremor
318,7807347,2.223,0.27874745093609377,-0.010764404960354941,-1.1119930732781704,-20.348307168658316,-4.893698679631274,-10.852681004952704,tremor
319,7807352,2.228,0.27886721096095846,-0.007844332905156265,-1.11159727909748,-18.41023461162803,-6.530475268905737,-9.570937597808115,tremor
320,7807357,2.233,0.27836630094014453,-0.005152959466002787,-1.1108928330453172,-16.52070701557209,-7.959569580358738,-8.348656965042004,tremor
321,7807367,2.243,0.27729244442565143,-0.00268625969794365,-1.109901489636552,-14.685059920629577,-9.191356912946294,-7.18833804077631,tremor
322,7807372,2.248,0.27569358012860345,-0.00043924945585502393,-1.108645042611186,-12.908194592158004,-10.23653663263137,-6.092064297630504,tremor
323,7807376,2.252,0.27361757804927656,0.001593952706715432,-1.1071452736302725,-11.194554098264796,-11.106050741491712,-5.0615005687703984,tremor
324,7807381,2.257,0.2711119680915842,0.003420057219390066,-1.1054238949839692,-9.548103555872661,-11.811005117018093,-4.097892878578703,tremor
325,7807386,2.262,0.2682236820440042,0.005046529599417199,-1.1035024870001164,-7.972314612253551,-12.362593937754376,-3.2020712254165415,tremor
326,7807391,2.267,0.26499880981580054,0.0064815118737179545,-1.101402430930105,-6.470154183312006,-12.772027738349054,-2.3744552431092028,tremor
327,7807396,2.272,0.26148237082004244,0.007733740259372844,-1.0991448381652804,-5.044077430414121,-13.050465461553959,-1.6150626534506423,tremor
328,7807401,2.277,0.2577181013763174,0.008812460080128915,-1.096750476706275,-3.6960249245845356,-13.208950799388951,-0.9235204097680497,tremor
329,7807426,2.302,0.25374825895489717,0.009727338921358608,-1.094239695871417,-2.4274239201447596,-13.258353040904534,-0.2990784212752458,tremor
330,7807430,2.306,0.24961344399549856,0.010488379035626346,-1.09163235028691,-1.2391936379869029,-13.20931257062292,0.25937426113981343,tremor
331,7807435,2.311,0.24535243990862968,0.011105830001972215,-1.088947724243904,-0.13175443851509236,-13.07219109489127,0.7532909269924853,tremor
332,7807445,2.321,0.24100207171275162,0.011590102611011496,-1.086204457524837,0.8949592584756977,-12.857026621222538,1.184446499012919,tremor
333,7807450,2.326,0.23659708358920728,0.011951684894265123,-1.0834204737843214,1.8414824777037302,-12.57349318283609,1.5549147980664222,tremor
334,7807454,2.33,0.23217003546627638,0.012201061143062453,-1.0806129125170971,2.7087998189607556,-12.23086528316759,1.8670439637134906,tremor
335,7807459,2.335,0.22775121859024322,0.012348634676154735,-1.0777980655641557,3.4983224502065102,-11.837987023978373,2.123430237089482,tremor
336,7807464,2.34,0.22336858991535272,0.012404655022310545,-1.0749913190079774,4.211862229828576,-11.403245868494263,2.326890334641186,tremor
337,7807469,2.345,0.21904772504769535,0.01237915008925371,-1.0722071011975738,4.851603251039386,-10.934550975212384,2.4804326602927613,tremor
338,7807474,2.35,0.21481178940461607,0.012281863795805889,-1.0694588375299532,5.42007112203452,-10.439316019350539,2.587227618827129,tremor
339,7807479,2.355,0.21068152719134964,0.012122199550987832,-1.0667589125008605,5.920100310336468,-9.92444639882967,2.6505773044773004,tremor
340,7807483,2.359,0.20667526773990083,0.011909169872412608,-1.0641186394266393,6.354799889514723,-9.396330701100435,2.673884846570118,tremor
341,7807488,2.364,0.20280894869300228,0.011651352346734738,-1.0615482381320456,6.727518032287658,-8.860836286142161,2.660623698987859,tremor
342,7807493,2.369,0.19909615544201698,0.011356852047501104,-1.0590568207961304,7.041805596618431,-8.32330881879921,2.6143071617435885,tremor
343,7807503,2.379,0.19554817613820558,0.011033270441022673,-1.0566523860495896,7.301379151177892,-7.7885755591689465,2.5384584206485465,tremor
344,7807512,2.388,0.19217407149070415,0.010687680729729539,-1.054341821321232,7.510083783685412,-7.260952192985901,2.436581385426544,tremor
345,7807517,2.393,0.18898075844323142,0.010326609506291776,-1.0521309133365957,7.671856030407738,-6.744252957179764,2.3121325985959618,tremor
346,7807522,2.398,0.18597310668922631,0.009956024522639438,-1.0500243665756532,7.790687257820708,-6.241803793309479,2.1684944771264814,tremor
347,7807546,2.422,0.18315404684941414,0.009581328318241945,-1.0480258293971119,7.870587818481402,-5.75645824725261,2.008950135669767,tremor
348,7807551,2.427,0.18052468900747906,0.009207357403434773,-1.0461379274348763,7.915552292778476,-5.290615828137709,1.8366600232049033,tremor
349,7807556,2.432,0.17808445019101896,0.008838386656952277,-1.0443623037730165,7.929526116355364,-4.846242540451811,1.654640583257253,tremor
350,7807560,2.436,0.17583118930739405,0.008478138571854019,-1.0426996653175595,7.916373879157353,-4.424893307080893,1.4657451208018217,tremor
351,7807565,2.441,0.17376134800318715,0.008129796969581493,-1.0411498347151138,7.879849565607557,-4.027736005992388,1.272647027245841,tremor
352,7807570,2.446,0.17187009590953203,0.007796024795963932,-1.0397118071243792,7.823568985904828,-3.655576849211796,1.0778254806971985,tremor
353,7807575,2.451,0.17015147875512227,0.007478985612972943,-1.038383811126785,7.750984625688004,-3.308886839475499,0.8835537045508258,tremor
354,7807580,2.456,0.16859856786432748,0.007180368403156921,-1.0371633730633296,7.665363115547579,-2.9878290467272697,0.6918898348632802,tremor
355,7807585,2.461,0.16720360960159217,0.006901415307547778,-1.0360473841015085,7.569765493833808,-2.692286453179324,0.5046704165609804,tremor
356,7807594,2.47,0.1659581733702989,0.0066429519205060605,-1.0350321693640803,7.467030407025655,-2.4218901225567513,0.3235065199695113,tremor
357,7807599,2.475,0.16485329682256306,0.00640541976512173,-1.0341135584854897,7.359760362575518,-2.1760474572520345,0.14978244167175536,tremor
358,7807604,2.48,0.1638796269865426,0.006188910569754087,-1.033286956997056,7.250311119993209,-1.9539703170092957,-0.01534307353194591,tremor
359,7807608,2.484,0.1630275560723378,0.005993201960131337,-1.0325474179736627,7.140784276533831,-1.7547027844079455,-0.17093317987272869,tremor
360,7807613,2.489,0.1622873507799364,0.005817794172847996,-1.0318897133984943,7.033023073140409,-1.577148375010965,-0.3162669632024819,tremor
361,7807618,2.494,0.16164927400619414,0.0056619473862794855,-1.031308404715905,6.928611413128246,-1.4200965022741805,-0.45083129798162414,tremor
362,7807623,2.499,0.16110369793473364,0.005524719255259676,-1.030797912045482,6.828876050134147,-1.282248018167201,-0.5743106870020793,tremor
363,7807628,2.504,0.160641207593728,0.0054050022276639,-1.0303525815240475,6.734891864069699,-1.16223965989354,-0.6865752583664183,tremor
364,7807632,2.508,0.16025269408139445,0.005301560215469854,-1.0299667502290153,6.647490106041343,-1.058667242073219,-0.7876671082628445,tremor
365,7807637,2.513,0.15992943678638147,0.005213064190975405,-1.0296348081191395,6.567269456974171,-0.9701074436454548,-0.8777851903417495,tremor
366,7807642,2.518,0.15966317406846237,0.005138126281643541,-1.0293512564106753,6.49460971055109,-0.8951380506269344,-0.9572689631106512,tremor
367,7807647,2.523,0.15944616201245576,0.0050753319455174506,-1.0291107617922326,6.429687858659971,-0.8323565300056742,-1.0265810162142541,tremor
368,7807671,2.547,0.15927122102359614,0.005023269824274709,-1.0289082058742272,6.3724963259892915,-0.7803968259444706,-1.086288905676497,tremor
369,7807676,2.552,0.15913177019410743,0.004980558893795972,-1.0287387292734282,6.322863069060487,-0.7379442862954454,-1.1370464376041192,tremor
370,7807681,2.557,0.15902184953643672,0.0049458725638731535,-1.02859776975527,6.280473223596542,-0.703748644962997,-1.1795746487878345,tremor
371,7807690,2.566,0.15893613034587728,0.004917959420742557,-1.0284810939025022,6.244891952697711,-0.676635004641083,-1.214642739862589,tremor
