sample,t_ms,t_s,ax,ay,az,gx,gy,gz,tremor
0,7127489,0.0,-0.13092277654982717,-0.17948310481663882,-1.0164693719556923,-2.6998761626824948,-1.768379781917265,-9.7979188039186,no_tremor
1,7127494,0.005,-0.12942087039104272,-0.17909864038196718,-1.0172241389766818,-2.377823001232808,-1.5356579065459999,-8.775818228004658,no_tremor
2,7127504,0.015,-0.12729807656337136,-0.17854896548031024,-1.0182756178496026,-2.0463312304611794,-1.2641627203084358,-7.681856035976344,no_tremor
3,7127509,0.02,-0.12447581180214486,-0.177808998155521,-1.01965305050582,-1.7062180144543933,-0.9523931147228176,-6.514855530811106,no_tremor
4,7127513,0.024,-0.12098214955776887,-0.17688047376338745,-1.02133251377934,-1.3583793531890767,-0.5989963574361232,-5.273937287424498,no_tremor
5,7127518,0.029,-0.11690833926481752,-0.17578165857125963,-1.023260701418367,-1.0037871802421958,-0.20278492042217922,-3.9585405681410895,no_tremor
6,7127523,0.034,-0.1123640745499679,-0.17453620902905123,-1.0253778042453128,-0.6434855028955406,0.23724700861711537,-2.5684428304902824,no_tremor
7,7127528,0.039,-0.10745169683916633,-0.17316653270704785,-1.0276300483388874,-0.2785855427418219,0.7219075054457281,-1.1037769667139514,no_tremor
8,7127552,0.063,-0.10225672453919417,-0.17169121095587184,-1.0299738388642956,0.08974015227219731,1.251791566218237,0.4349540754190738,no_tremor
9,7127557,0.068,-0.09684744523843439,-0.170124750449944,-1.032375453322497,0.46026463754268315,1.827266637753371,2.0468656229315747,no_tremor
10,7127567,0.078,-0.0912780587055599,-0.16847829298554304,-1.0348091166461963,0.8317145382222839,2.4484592194006893,3.7306828650146833,no_tremor
11,7127572,0.083,-0.08559246093810839,-0.1667605379747901,-1.037254890014073,1.2027790279421695,3.1152427320571947,5.484735968535341,no_tremor
12,7127576,0.087,-0.07982750587752148,-0.16497856698490027,-1.0396969103499552,1.5721197754083713,3.827226844772709,7.306958950237294,no_tremor
13,7127581,0.092,-0.0740154563232496,-0.16313848369138576,-1.0421220868850531,1.9383817938239403,4.583748445483581,9.1948924845622,no_tremor
14,7127591,0.102,-0.06818568560402868,-0.1612458755385699,-1.0445191984508324,2.3002051069888942,5.383864441083435,11.145690769809836,no_tremor
15,7127601,0.112,-0.062365790647825645,-0.15930613199685967,-1.0468782957807585,2.6562371244321916,6.226346571084524,13.156132513659356,no_tremor
16,7127605,0.116,-0.05658227634799137,-0.15732465643775653,-1.0491903202808013,3.0051455961401476,7.109678414267358,15.222636033597112,no_tremor
17,7127615,0.126,-0.05086094006849119,-0.15530700216426438,-1.0514468704101005,3.345631995992042,8.032054754808296,17.34127840048867,no_tremor
18,7127620,0.131,-0.04522705126215913,-0.1532589553221744,-1.0536400661580163,3.6764451630014388,8.991383450879102,19.507818485721025,no_tremor
19,7127630,0.141,-0.039705393235966426,-0.15118658073930974,-1.055762477436438,3.996395011767165,9.985289914209545,21.717723704120143,no_tremor
20,7127634,0.145,-0.03432021344236363,-0.14909624170189423,-1.0578070932967745,4.304366108488257,11.011124264960687,23.96620017595062,no_tremor
21,7127644,0.155,-0.02909511423089422,-0.14699460110756749,-1.0597673165328942,4.599330896578493,12.065971175173587,26.248225962753907,no_tremor
22,7127649,0.16,-0.024052906201699233,-0.1448886089973383,-1.0616369733741433,4.880362346528131,13.146662359831234,28.55858696600218,no_tremor
23,7127675,0.186,-0.01921543978016451,-0.14278547984675782,-1.0634103313807532,5.146645798753067,14.249791621496573,30.891915016903848,no_tremor
24,7127680,0.191,-0.014603426324169597,-0.14069266193937113,-1.065082120899976,5.397489766881871,15.37173230685822,33.242727632527426,no_tremor
25,7127685,0.196,-0.010236257227690192,-0.13861780046882077,-1.0666475569248826,5.632335473948343,16.508656996058665,35.605468872279744,no_tremor
26,7127690,0.201,-0.006131827575672767,-0.13656869558826595,-1.068102359189527,5.850764906858139,17.656559222900498,37.974550706474595,no_tremor
27,7127694,0.205,-0.0023063695851813057,-0.13455325635574086,-1.0694427690127826,6.05250719567832,18.811277016666654,40.344394309233046,no_tremor
28,7127699,0.21,0.0012256998894384589,-0.13257945135164256,-1.0706655618832646,6.237443152386312,19.96851805899689,42.70947070800664,no_tremor
29,7127704,0.215,0.004451914245628517,-0.1306552566328011,-1.0717680551310178,6.405607836120799,21.123886253378288,45.064340253383385,no_tremor
30,7127709,0.22,0.007361871477443818,-0.12878860161490843,-1.0727481103024261,6.557191046102577,22.272909503084502,47.40369040803448,no_tremor
31,7127723,0.234,0.009947325565815505,-0.12698731342908456,-1.0736041300707893,6.692535677592831,23.411068482137335,49.722371388781035,no_tremor
32,7127738,0.249,0.01220225299615025,-0.12525906027222228,-1.0743350496939013,6.812133910240765,24.533826162826728,52.015429230234275,no_tremor
33,7127742,0.253,0.014122892968750944,-0.12361129426070505,-1.0749403231835695,6.916621232833032,25.636657835655477,54.27813587468612,no_tremor
34,7127747,0.258,0.01570776035995149,-0.12205119430004124,-1.075419904488795,7.00676834512267,26.7150813298951,56.50601593547528,no_tremor
35,7127752,0.263,0.016957630998874883,-0.12058560949471035,-1.0757742241205372,7.083471016850596,27.764687123562275,58.69486983348577,no_tremor
36,7127757,0.268,0.01787549933955355,-0.11922100363760806,-1.076004161765436,7.147738025751802,28.78116802640938,60.84079306782202,no_tremor
37,7127762,0.273,0.018466509115433797,-0.11796340133134585,-1.076111015549573,7.200677338399443,29.76034812902265,62.94019144743059,no_tremor
38,7127767,0.278,0.01873785804561692,-0.11681833629966784,-1.0760964687195993,7.243480737708945,30.698210731800256,64.9897921763191,no_tremor
39,7127772,0.283,0.01869867810427015,-0.11579080244291017,-1.0759625546034912,7.277407136832416,31.59092499475207,66.98665074927997,no_tremor
40,7127798,0.309,0.018359893254617243,-0.11488520817465459,-1.0757116207916684,7.303764850178998,32.43487107859866,68.928153676762,no_tremor
41,7127803,0.314,0.017734056878966942,-0.11410533454732756,-1.0753462935345557,7.323893117946177,33.22666357651567,70.81201711552157,no_tremor
42,7127807,0.318,0.01683517140271475,-0.11345429763447115,-1.074869443375566,7.339143199332797,33.96317306229078,72.63628153550546,no_tremor
43,7127812,0.323,0.015678492813421756,-0.11293451559055037,-1.0742841530176144,7.350859359137305,34.6415456041228,74.39930260430553,no_tremor
44,7127817,0.328,0.014280322920334852,-0.11254768075983271,-1.0735936883487265,7.360360071852798,35.25922011456313,76.09973851974445,no_tremor
45,7127822,0.333,0.012657792293422017,-0.11229473715754987,-1.072801473429647,7.368919758758313,35.81394342797975,77.73653406798556,no_tremor
46,7127827,0.338,0.010828636873969566,-0.1121758636009266,-1.0719110700843588,7.377751360077611,36.303783019337295,79.30890172676646,no_tremor
47,7127832,0.343,0.008810971268863859,-0.11219046272477572,-1.0709261625472877,7.387990027574663,36.727137302847254,80.81630016900196,no_tremor
48,7127837,0.348,0.006623061732329738,-0.11233715607527668,-1.069850547421398,7.400678202518377,37.08274347521878,82.25841055044077,no_tremor
49,7127841,0.352,0.004283101804021723,-0.11261378543503231,-1.068688128998953,7.416752318820292,37.36968289350117,83.63511098670091,no_tremor
50,7127856,0.367,0.0018089935115418315,-0.11301742049145229,-1.0674429197980944,7.437031340749826,37.587383999099416,84.94644964065347,no_tremor
51,7127861,0.372,-0.0007818630414101013,-0.11354437291839929,-1.0661190459775736,7.462207308472536,37.735622815378086,86.19261685136742,no_tremor
52,7127866,0.377,-0.0034727689936956954,-0.11419021689825554,-1.0647207571101043,7.492838022166772,37.814521055737046,87.37391674071786,no_tremor
53,7127881,0.392,-0.00624791238605873,-0.11494981606955162,-1.0632524396204301,7.529341946750911,37.82454188332186,88.49073873264892,no_tremor
54,7127890,0.401,-0.009092537764213269,-0.11581735684579486,-1.0617186330246924,7.57199536605791,37.76648336575764,89.54352941171291,no_tremor
55,7127895,0.406,-0.011993097525111863,-0.11678638801486957,-1.0601240479425298,7.620931761014236,37.64146967359501,90.5327651306272,no_tremor
56,7127921,0.432,-0.014937383030225715,-0.11784986649366977,-1.0584735846983575,7.676143334743706,37.450940085413116,91.45892575103898,no_tremor
57,7127926,0.437,-0.01791463376848056,-0.11900020907409185,-1.056772351199011,7.737484561495938,37.19663588899029,92.32246986891457,no_tremor
58,7127935,0.446,-0.02091562315673498,-0.12022934994461947,-1.055025678697009,7.8046775982726135,36.88058530363658,93.12381183807635,no_tremor
59,7127940,0.451,-0.023932719930173263,-0.12152880369522696,-1.0532391340512184,7.877319370011496,36.50508658455015,93.86330086388044,no_tremor
60,7127945,0.456,-0.026959924501934088,-0.12288973340523285,-1.0514185271985141,7.954890121964388,36.072689495627024,94.54120239490749,no_tremor
61,7127955,0.466,-0.029992880146238198,-0.12430302327653346,-1.049569912747864,8.036763225277777,35.58617534686681,95.15768199507936,no_tremor
62,7127959,0.47,-0.03302885935301001,-0.1257593551200059,-1.0476995848779147,8.122216021371965,35.04853578735535,95.71279183258166,no_tremor
63,7127964,0.475,-0.03606672618134852,-0.1272492878473961,-1.0458140650260235,8.210441495260188,34.46295053038147,96.20645987492632,no_tremor
64,7127969,0.48,-0.039106875875614774,-0.12876333898197262,-1.0439200821661707,8.300560575869843,33.832764170314746,96.63848183077542,no_tremor
65,7127979,0.49,-0.04215115338121789,-0.13029206709289923,-1.0420245457572745,8.391634871568545,33.161462236566855,97.00851582938463,no_tremor
66,7127983,0.494,-0.0452027526974321,-0.13182615398930012,-1.04013451168446,8.482679660241729,32.45264662094401,97.31607977999268,no_tremor
67,7127988,0.499,-0.04826609923139044,-0.13335648548371865,-1.0382571417063318,8.572676963940442,31.710010511819345,97.56055130958097,no_tremor
68,7127993,0.504,-0.051346717476794965,-0.13487422955150452,-1.0363996570606662,8.660588546927926,30.937312971680065,97.7411701412908,no_tremor
69,7127998,0.509,-0.05445108644188533,-0.1363709107710758,-1.0345692869735987,8.74536868231437,30.138353303063106,97.85704274852083,no_tremor
70,7128003,0.514,-0.05758648530381256,-0.13783848002584934,-1.0327732128722853,8.825976537164085,29.316945360666832,97.90714910014326,no_tremor
71,7128008,0.519,-0.06076083178030095,-0.13926937857512944,-1.0310185091304929,8.90138803082223,28.47689198300798,97.89035129872501,no_tremor
72,7128013,0.524,-0.0639825156920713,-0.14065659575008033,-1.02931208119355,8.970607027923137,27.621959733284182,97.80540390584724,no_tremor
73,7128018,0.529,-0.0672602301459658,-0.14199371969333535,-1.0276606019445957,9.032675736638794,26.7558541540442,97.65096574751227,no_tremor
74,7128045,0.556,-0.07060280270103551,-0.14327498072812686,-1.026070447195558,9.086684193643253,25.882195752548586,97.42561299863183,no_tremor
75,7128050,0.561,-0.07401902878679441,-0.14449528710659093,-1.0245476312162354,9.131778729521537,25.004496942116273,97.12785335695027,no_tremor
76,7128055,0.566,-0.07751750952021098,-0.14565025303887089,-1.0230977432491593,9.167169322907052,24.126140166876667,96.75614112932264,no_tremor
77,7128059,0.57,-0.08110649591061907,-0.1467362190372546,-1.0217258859868263,9.192135770746026,23.250357430176383,96.30889306234003,no_tremor
78,7128069,0.58,-0.08479374124760054,-0.14775026471746128,-1.020436617000635,9.206032627152638,22.38021142964693,95.78450475251722,no_tremor
79,7128074,0.585,-0.08858636324091135,-0.1486902142805822,-1.0192338941014996,9.208292892963133,21.518578477315234,95.18136747004257,no_tremor
80,7128079,0.59,-0.09249071723528487,-0.14955463495561352,-1.0181210255804085,9.198430468573566,20.66813335490376,94.49788522814092,no_tremor
81,7128084,0.595,-0.09651228157117307,-0.15034282871743415,-1.0171006262250817,9.17604140979476,19.8313362246098,93.73249193078689,no_tremor
82,7128088,0.599,-0.10065555591869009,-0.15105481761307823,-1.0161745799377144,9.140804047493495,19.01042168421317,92.88366843656543,no_tremor
83,7128093,0.604,-0.10492397318548301,-0.1516913230359927,-1.015344009689313,9.09247804591446,18.20739002203099,91.94995938625247,no_tremor
84,7128098,0.609,-0.1093198253940026,-0.15225373929012775,-1.0146092554395603,9.030902482464318,17.424000692536094,90.92998965552377,no_tremor
85,7128103,0.614,-0.11384420373934176,-0.15274410178932593,-1.0139698605293213,8.955993034736641,16.66176799875387,89.82248031040966,no_tremor
86,7128108,0.619,-0.11849695287256266,-0.15316505024740087,-1.0134245669181143,8.867738360357722,15.92195893454577,88.62626395939671,no_tremor
87,7128113,0.624,-0.1232766393026545,-0.1535197872336368,-1.0129713194939163,8.766195753804345,15.20559311026941,87.34029941066575,no_tremor
88,7128118,0.629,-0.12818053366988522,-0.15381203249833122,-1.0126072795310508,8.651486163565238,14.513444660690363,85.96368555555604,no_tremor
89,7128123,0.634,-0.1332046065124205,-0.15404597351250487,-1.0123288472184795,8.52378865400567,13.846046015828609,84.49567441095719,no_tremor
90,7128128,0.639,-0.13834353702628835,-0.15422621271186074,-1.0121316930320323,8.383334399105815,13.203693404823426,82.93568326538598,no_tremor
91,7128133,0.644,-0.1435907342074832,-0.15435771198228274,-1.0120107975879906,8.230400299511418,12.586453960810648,81.28330588728235,no_tremor
92,7128137,0.648,-0.1489383696671718,-0.15444573496598205,-1.0119604995004832,8.065302320277294,11.994174301428112,79.53832277078739,no_tremor
93,7128168,0.679,-0.1543774213298077,-0.15449578779682524,-1.011974550678735,7.888388655180573,11.426490473450476,77.70071041508997,no_tremor
94,7128173,0.684,-0.15989772716171524,-0.15451355888411075,-1.0120461784465042,7.700032834554092,10.882839166912238,75.77064965759975,no_tremor
95,7128177,0.688,-0.16548804803534517,-0.15450485835163003,-1.0121681538435854,7.500626904506319,10.362470115939201,73.74853310330845,no_tremor
96,7128182,0.693,-0.17113613881132306,-0.15447555770241103,-1.0123328654687742,7.290574811372917,9.864459601003949,71.63497170391659,no_tremor
97,7128187,0.698,-0.17682882671277628,-0.15443153022374265,-1.0125323982296839,7.070286123375782,9.387724946058743,69.43080053524704,no_tremor
98,7128192,0.703,-0.1825520960664789,-0.15437859258172967,-1.0127586163610465,6.8401702132645,8.93103986883183,67.1370838028821,no_tremor
99,7128197,0.708,-0.18829117848421953,-0.15432244799113462,-1.0130032500483845,6.600631014960575,8.493050504237905,64.75511908106857,no_tremor
100,7128202,0.713,-0.19403064754975885,-0.15426863129339735,-1.0132579849437604,6.352062456495033,8.072291889357393,62.28644076402438,no_tremor
101,7128207,0.718,-0.1997545170612434,-0.15422245623777361,-1.0135145537858177,6.09484466153546,7.667204679634913,59.7328226834922,no_tremor
102,7128211,0.722,-0.20544634185979815,-0.15418896523790232,-1.0137648292424766,5.8293410023913905,7.276151861373389,57.09627982203243,no_tremor
103,7128221,0.732,-0.21108932025872873,-0.15417288186662875,-1.0140009169890656,5.5558960778347375,6.89743523346678,54.37906902950061,no_tremor
104,7128226,0.737,-0.21666639708224772,-0.1541785663518173,-1.0142152479273436,5.274834677675711,6.5293114482781585,51.58368863346499,no_tremor
105,7128231,0.742,-0.22216036633669858,-0.1542099743405647,-1.0144006683542965,4.986461780095777,6.170007424927783,48.7128768268099,no_tremor
106,7128235,0.746,-0.2275539725795154,-0.15427061920405594,-1.0145505268180535,4.691063604577211,5.817734976957214,45.769608720558445,no_tremor
107,7128240,0.751,-0.23283001012723878,-0.1543635381568181,-1.0146587563646752,4.388909712119297,5.470704529810298,42.75709196814411,no_tremor
108,7128245,0.756,-0.2379714193531149,-0.15449126246083547,-1.014719950891663,4.080256107299355,5.127137840186225,39.678760897345875,no_tremor
109,7128250,0.761,-0.2429613794597563,-0.15465579197718252,-1.0147294343833129,3.7653492571278036,4.785279666848219,36.53826912388878,no_tremor
110,7128254,0.765,-0.24778339726186438,-0.154858574316556,-1.0146833219065914,3.4444309031566402,4.443408379599041,33.33948066145996,no_tremor
111,7128259,0.77,-0.25242139166643074,-0.15510048882612834,-1.0145785713887405,3.117743509431407,4.099845529428768,30.086459582767223,no_tremor
112,7128264,0.775,-0.2568597736826429,-0.15538183563348826,-1.0144130253725367,2.7855361627676567,3.752964437232193,26.783458323619882,no_tremor
113,7128289,0.8,-0.26108352192180606,-0.15570232994808314,-1.0141854421437435,2.448070725425276,3.4011978883625673,23.43490475682706,no_tremor
114,7128294,0.805,-0.2650782536507396,-0.15606110179440666,-1.0138955158373744,2.105628033944471,3.043045041937556,20.04538819394009,no_tremor
115,7128299,0.81,-0.26883029153228644,-0.15645670131587927,-1.0135438853409127,1.7585139408572514,2.677077673494047,16.619644495597573,no_tremor
116,7128304,0.815,-0.27232672621667203,-0.15688710974034767,-1.0131321320070452,1.407065006630509,2.3019458652525233,13.16254047835865,no_tremor
117,7128309,0.82,-0.2755554749344424,-0.15734975603561271,-1.0126627663521766,1.0516536658215248,1.9163832419677418,9.679057794886198,no_tremor
118,7128314,0.825,-0.2785053361896841,-0.15784153920822255,-1.0121392040458603,0.692692712446067,1.5192118282165412,6.174276440823038,no_tremor
119,7128319,0.83,-0.281166040571699,-0.1583588561158195,-1.0115657315959723,0.33063897332586534,1.109346581268502,2.653358014701685,no_tremor
120,7128324,0.835,-0.28352829760737447,-0.15889763457835834,-1.0109474622151726,-0.034003936823507164,0.6857996356248869,-0.8784711674143678,no_tremor
121,7128328,0.839,-0.2855838384775726,-0.15945337149143687,-1.010290282425688,-0.4006838592902584,0.2476842814716656,-4.415937021357322,no_tremor
122,7128333,0.844,-0.287325454329394,-0.16002117556936396,-1.0096007900289712,-0.7687993888409422,-0.20578131111477704,-7.953734643162881,no_tremor
123,7128338,0.849,-0.28874702984034156,-0.1605958142787279,-1.0088862241390368,-1.137700252691211,-0.6752706190932063,-11.486545202038961,no_tremor
124,7128343,0.854,-0.2898435716360907,-0.16117176446637707,-1.0081543880553796,-1.5066887725839544,-1.1613455502959629,-15.009052728932952,no_tremor
125,7128347,0.858,-0.2906112311342389,-0.16174326613942797,-1.0074135658330676,-1.8750223867820996,-1.6644534997622935,-18.51596075079245,no_tremor
126,7128352,0.863,-0.2910473213833433,-0.16230437881937224,-1.00667243349134,-2.2419171860638825,-2.1849247043826745,-22.002008714772824,no_tremor
127,7128358,0.869,-0.29115032748921527,-0.1628490398676436,-1.0059399658835853,-2.6065523973002507,-2.722969931643111,-25.46198813789645,no_tremor
128,7128362,0.873,-0.2909199102669193,-0.16337112416602678,-1.0052253403257925,-2.9680757301603693,-3.278678547580718,-28.890758408507917,no_tremor
129,7128367,0.878,-0.2903569028243848,-0.16386450453155377,-1.0045378381420298,-3.325609487378542,-3.852017017254631,-32.28326215853858,no_tremor
130,7128372,0.883,-0.2894632998686524,-0.164323112251042,-1.0038867453291402,-3.6782573269642027,-4.442827896880705,-35.63454012150152,no_tremor
131,7128377,0.888,-0.2882422396254431,-0.1647409971337992,-1.0032812535642028,-4.0251115553776335,-5.050829378356442,-38.93974539017053,no_tremor
132,7128382,0.893,-0.28669797837465355,-0.16511238650059526,-1.0027303627740756,-4.365260823506564,-5.675615442774972,-42.1941569883826,no_tremor
133,7128386,0.897,-0.28483585772733216,-0.1654317425510024,-1.0022427864545767,-4.6977980919179085,-6.316656670012475,-45.393192671248904,no_tremor
134,7128416,0.927,-0.2826622649030517,-0.1656938175778548,-1.001826860867202,-5.021828728153847,-6.973301738409204,-48.53242086606,no_tremor
135,7128421,0.932,-0.2801845864083859,-0.16589370652552127,-1.0014904591554274,-5.336478596929453,-7.644779633985741,-51.607571663246986,no_tremor
136,7128426,0.937,-0.2774111556604499,-0.16602689641770507,-1.0012409113151841,-5.640902004723704,-8.330202574293994,-54.61454676716576,no_tremor
137,7128431,0.942,-0.2743511952305835,-0.16608931221193973,-1.0010849308326504,-5.934289364387448,-9.028569639565584,-57.549428326180305,no_tremor
138,7128436,0.947,-0.27101475448668266,-0.16607735867408357,-1.0010285486758281,-6.215874452987071,-9.738771094195139,-60.408486582776675,no_tremor
139,7128441,0.952,-0.2674126434786651,-0.16598795790862136,-1.0010770552013872,-6.484941145777302,-10.459593374161384,-63.18818631289545,no_tremor
140,7128445,0.956,-0.26355636393904447,-0.16581858222977217,-1.0012349504186255,-6.740829519566439,-11.189724709452017,-65.88519205234842,no_tremor
141,7128450,0.961,-0.259458038263945,-0.16556728211343677,-1.0015059029389926,-6.9829412301451965,-11.927761344276005,-68.49637213236733,no_tremor
142,7128455,0.966,-0.25513033730492823,-0.1652327090294832,-1.0018927178318355,-7.2107440827690885,-12.6722143117207,-71.01880156392174,no_tremor
143,7128460,0.971,-0.25058640774453694,-0.1648141330161852,-1.0023973135034465,-7.423775732932854,-13.421516713142204,-73.44976382051655,no_tremor
144,7128465,0.976,-0.2458397997542284,-0.16431145492229163,-1.0030207076153976,-7.621646475526302,-14.174031445287545,-75.7867515720176,no_tremor
145,7128475,0.986,-0.2409043955480426,-0.1637252133059635,-1.00376301195792,-7.804041101691793,-14.928059309901345,-78.02746641969475,no_tremor
146,7128480,0.991,-0.2357943393544512,-0.16305658604270437,-1.0046234360936916,-7.97071982313184,-15.681847432639358,-80.16981767860793,no_tremor
147,7128485,0.996,-0.23052396923782703,-0.16230738675558393,-1.005600299486967,-8.12151828300276,-16.433597912552298,-82.21192025150708,no_tremor
148,7128490,1.001,-0.2251077511154001,-0.16148005623936612,-1.0066910517343763,-8.256346690502136,-17.18147662155835,-84.15209164114847,no_tremor
149,7128495,1.006,-0.21956021524104488,-0.1605776491037803,-1.007892300420346,-8.37518813187259,-17.923622074622262,-85.98884815521394,no_tremor
150,7128505,1.016,-0.21389589536910905,-0.15960381590758652,-1.0091998460364469,-8.478096122633143,-18.65815429368225,-87.72090036704186,no_tremor
151,7128510,1.021,-0.20812927077410853,-0.1585627810912178,-1.0106087233347478,-8.5651914736462,-19.383183589858536,-89.34714790282939,no_tremor
152,7128536,1.047,-0.20227471128767063,-0.15745931703822508,-1.0121132484349968,-8.636658547186718,-20.09681918940696,-90.86667363053185,no_tremor
153,7128541,1.052,-0.19634642552022016,-0.15629871460131936,-1.013707070978253,-8.692740979403522,-20.79717763221246,-92.27873732831286,no_tremor
154,7128546,1.057,-0.19035841245127177,-0.15508675041615483,-1.0153832306179538,-8.733736944043596,-21.482390881632377,-93.58276891266725,no_tremor
155,7128550,1.061,-0.18432441658075693,-0.1538296512975904,-1.0171342171622644,-8.759994030768558,-22.150614103602933,-94.77836130919053,no_tremor
156,7128555,1.066,-0.17825788681659602,-0.15253405597565342,-1.0189520337232119,-8.771903810676468,-22.800033098863913,-95.8652630524163,no_tremor
157,7128560,1.071,-0.17217193922301455,-0.15120697439066155,-1.0208282622791356,-8.769896161346974,-23.428871398795398,-96.84337070445191,no_tremor
158,7128565,1.076,-0.16607932367492456,-0.14985574473719435,-1.0227541311071484,-8.754433423027349,-24.035397056420596,-97.7127211845086,no_tremor
159,7128570,1.081,-0.1599923943681726,-0.1484879884306569,-1.0247205835832003,-8.726004456189804,-24.61792917601135,-98.47348410265596,no_tremor
160,7128575,1.086,-0.15392308403693394,-0.14711156317092847,-1.0267183478737367,-8.685118668983781,-25.174844226520293,-99.12595419138215,no_tremor
161,7128580,1.091,-0.1478828816404587,-0.14573451429520967,-1.0287380070528993,-8.632300081620208,-25.70458217630195,-99.67054392759853,no_tremor
162,7128584,1.095,-0.14188281321306534,-0.1443650246444894,-1.0307700691735366,-8.568081493712022,-26.205652470526115,-100.10777643511048,no_tremor
163,7128589,1.1,-0.13593342553350235,-0.14301136321090943,-1.032805036802101,-8.492998819815485,-26.676639850206392,-100.43827875333882,no_tremor
164,7128594,1.105,-0.13004477226981168,-0.14168183288131175,-1.0348334755013449,-8.40758565725303,-27.11620998540264,-100.66277555319645,no_tremor
165,7128608,1.119,-0.12422640229723322,-0.14038471763962218,-1.036846080715917,-8.312368148202834,-27.52311486802582,-100.78208337665694,no_tremor
166,7128613,1.124,-0.11848734996838256,-0.13912822963178983,-1.03883374249031,-8.207860194999505,-27.89619788561556,-100.79710547318457,no_tremor
167,7128618,1.129,-0.11283612723003196,-0.13792045652626564,-1.0407876074327647,-8.094559084221254,-28.234398480941092,-100.70882730409467,no_tremor
168,7128622,1.133,-0.1072807176169219,-0.13676930961558473,-1.0426991373395786,-7.972941572404445,-28.536756296709786,-100.51831278597142,no_tremor
169,7128627,1.138,-0.10182857229541992,-0.1356824730978816,-1.0445601639166893,-7.843460484935815,-28.80241470997307,-100.22670134732542,no_tremor
170,7128632,1.143,-0.09648660846616522,-0.13466735495218113,-1.0463629390797995,-7.706541879981779,-29.03062367356208,-99.83520587788065,no_tremor
171,7128658,1.169,-0.09126121055679767,-0.13373103978232903,-1.0481001803767849,-7.562582830502516,-29.220741798601953,-99.34511165449662,no_tremor
172,7128673,1.184,-0.08615823473557052,-0.13288024395672748,-1.0497651111510156,-7.411949877761353,-29.37223763252275,-98.75777632820467,no_tremor
173,7128678,1.189,-0.08118301733959783,-0.13212127331916426,-1.0513514951466836,-7.254978206534011,-29.48469011404238,-98.07463104937268,no_tremor
174,7128682,1.193,-0.0763403878142925,-0.1314599836934545,-1.0528536653441165,-7.091971582683566,-29.55778822312971,-97.29718278910605,no_tremor
175,7128692,1.203,-0.0716346866808923,-0.13090174435455054,-1.0542665469022257,-6.923203077195861,-29.591329887328676,-96.42701788343376,no_tremor
176,7128697,1.208,-0.06706978888173029,-0.13045140459479235,-1.055585674174371,-6.7489165792760755,-29.585220247311433,-95.46580678520603,no_tremor
177,7128706,1.217,-0.0626491326161519,-0.1301132634798817,-1.056807201849657,-6.569329077938217,-29.539469414793594,-94.41530996191722,no_tremor
178,7128711,1.222,-0.058375753506361844,-0.12989104286810293,-1.0579279103502333,-6.384633669174145,-29.454189870280477,-93.27738483061403,no_tremor
179,7128716,1.227,-0.05425232365664751,-0.1297878637596848,-1.0589452056833994,-6.195003225666654,-29.329593647060793,-92.05399357700378,no_tremor
180,7128720,1.231,-0.0502811949200349,-0.1298062260501964,-1.059857114003378,-6.000594648882657,-29.165989435122405,-90.74721166682458,no_tremor
181,7128730,1.241,-0.04646444548279273,-0.12994799177982388,-1.0606622711812232,-5.801553609535477,-28.963779718733257,-89.3592368246145,no_tremor
182,7128734,1.245,-0.04280392872873946,-0.13021437199561003,-1.061359907713271,-5.598019671517136,-28.723458037968612,-87.89239822928853,no_tremor
183,7128739,1.25,-0.03930132325342592,-0.13060591737233176,-1.0619498293202136,-5.390131685888769,-28.445606439848934,-86.34916565861644,no_tremor
184,7128754,1.265,-0.03595818285934759,-0.13112251276593656,-1.0624323936020204,-5.1780333352878944,-28.130893160283037,-84.73215830652708,no_tremor
185,7128781,1.292,-0.032775985371137774,-0.13176337589791584,-1.0628084831203346,-4.961878705670545,-27.780070554035436,-83.04415299779727,no_tremor
186,7128786,1.297,-0.029756179156502326,-0.13252706038577297,-1.0630794752821688,-4.741837761945641,-27.393973266593026,-81.28809153271858,no_tremor
187,7128801,1.312,-0.026900226315591826,-0.13341146333834664,-1.0632472094003167,-4.518101606210582,-26.97351662097693,-79.46708690778661,no_tremor
188,7128806,1.317,-0.024209641598377383,-0.13441383771848373,-1.0633139513113983,-4.290887400979944,-26.519695178395114,-77.58442817541685,no_tremor
189,7128811,1.322,-0.02168602621520976,-0.13553080963458808,-1.063282355945385,-4.060442844700134,-26.03358142731262,-75.64358372502463,no_tremor
190,7128831,1.342,-0.019331095809601212,-0.13675840065710368,-1.0631554282613072,-3.8270500936896643,-25.516324559680985,-73.64820278938751,no_tremor
191,7128835,1.346,-0.01714670195776791,-0.13809205517139658,-1.0629364829896872,-3.5910290343950604,-24.969149300741307,-71.60211500462994,no_tremor
192,7128840,1.351,-0.015134846646821328,-0.13952667268304414,-1.0626291036475113,-3.3527398227643586,-24.393354764593898,-69.50932788038448,no_tremor
193,7128855,1.366,-0.013297689269841026,-0.14105664489390504,-1.0622371013095573,-3.112584623150609,-23.790313307651058,-67.37402206969385,no_tremor
194,7128860,1.371,-0.011637545772453354,-0.14267589727450344,-1.0617644736247802,-2.871008496887221,-23.16146934449853,-65.20054436675552,no_tremor
195,7128866,1.377,-0.010156879703328086,-0.1443779347740954,-1.0612153645552433,-2.6284994102915546,-22.508338076524392,-62.993398404872934,no_tremor
196,7128901,1.412,-0.00885828506895582,-0.14615589123529707,-1.0605940252882713,-2.3855873533362546,-21.832504065586885,-60.757233076275405,no_tremor
197,7128906,1.417,-0.00774446107344761,-0.1480025820148159,-1.0599047767334235,-2.1428425829215554,-21.13561956662173,-58.496828747282564,no_tremor
198,7128911,1.422,-0.006818179027637986,-0.14991055925488664,-1.0591519739698474,-1.9008730264459024,-20.41940251945157,-56.21708139118443,no_tremor
199,7128921,1.432,-0.006082241917251681,-0.1518721692012391,-1.0583399729628453,-1.6603208993039658,-19.68563409683118,-53.92298480016101,no_tremor
200,7128926,1.437,-0.005539437302644171,-0.15387961092313743,-1.0574730998261732,-1.4218586025972129,-18.93615571590407,-51.619611062692535,no_tremor
201,7128936,1.447,-0.00519248436571162,-0.1559249957607435,-1.056555622870633,-1.1861839758390151,-18.172865441290345,-49.31208950661487,no_tremor
202,7128940,1.451,-0.0050439760178414205,-0.15800040680909716,-1.0555917276482585,-0.9540149859343832,-17.39771373367276,-47.00558431604744,no_tremor
203,7128945,1.456,-0.005096317039759491,-0.16009795775212482,-1.054585495170781,-0.7260839394458892,-16.612698521831067,-44.70527103705393,no_tremor
204,7128950,1.461,-0.005351659248174495,-0.16220985038544683,-1.0535408834465179,-0.5031313102373117,-15.819859594714142,-42.416312193395825,no_tremor
205,7128959,1.47,-0.0058118346861544675,-0.16432843020694188,-1.052461712437968,-0.28589927884036986,-15.021272321672464,-40.1438322403114,no_tremor
206,7128964,1.475,-0.006478287825765327,-0.1664462395003345,-1.0513516524920068,-0.07512508321487057,-14.21904071362994,-37.89289209112199,no_tremor
207,7128969,1.48,-0.007352007763072083,-0.16855606738474593,-1.0502142162366555,0.12846571715347713,-13.415289837933493,-35.66846345839142,no_tremor
208,7128974,1.485,-0.008433461385038102,-0.17065099635157055,-1.0490527538756227,0.32416596090597743,-12.612157598680225,-33.47540325733181,no_tremor
209,7128984,1.495,-0.0097225284990957,-0.17272444485947588,-1.0478704517479531,0.5112934861117775,-11.811785896526398,-31.318428323280212,no_tremor
210,7128988,1.499,-0.011218439937905346,-0.17477020560820952,-1.04667033395978,0.6891975141946667,-11.01631118992246,-29.202090697305994,no_tremor
211,7128993,1.504,-0.012919719677169244,-0.17678247916122572,-1.0454552668432655,0.8572647228479651,-10.227854494139818,-27.130753734447538,no_tremor
212,7128998,1.509,-0.014824132022009206,-0.1787559026354113,-1.0442279659588682,1.0149249215091232,-9.448510875183327,-25.10856928736358,no_tremor
213,7129024,1.535,-0.01692863491445863,-0.18068557322370926,-1.0429910053340805,1.1616562516925828,-8.680338522044003,-23.139456214030634,no_tremor
214,7129029,1.54,-0.019229340379776843,-0.18256706636443498,-1.041746828624717,1.2969898450316986,-7.925347510367103,-21.227080451076098,no_tremor
215,7129043,1.554,-0.02172148305501471,-0.18439644842218986,-1.04049776188969,1.4205138848017471,-7.185488398184373,-19.374836881948255,no_tremor
216,7129048,1.559,-0.02439939762730558,-0.18617028380351905,-1.0392460276791997,1.5318770320085984,-6.462640813353632,-17.585833206997812,no_tremor
217,7129052,1.563,-0.027256505856877566,-0.18788563649927142,-1.0379937601405267,1.630791193811767,-5.7586021994122225,-15.862875988302621,no_tremor
218,7129057,1.568,-0.030285313683383646,-0.18954006612528992,-1.0367430208389812,1.7170336283437995,-5.075076883755255,-14.208458998365748,no_tremor
219,7129062,1.573,-0.033477418729325296,-0.1911316186202984,-1.0354958149728861,1.790448394426207,-4.413665624267003,-12.62475395452841,no_tremor
220,7129067,1.578,-0.036823528333464826,-0.1926588118495767,-1.0342541076343161,1.8509471666757658,-3.77585578146196,-11.11360367557604,no_tremor
221,7129072,1.583,-0.04031348807700244,-0.19412061645030323,-1.0330198397376809,1.8985094458917757,-3.163012253846096,-9.676517657072138,no_tremor
222,7129076,1.587,-0.04393632060853093,-0.1955164323354316,-1.0317949432126008,1.9331822011589272,-2.5763693035949125,-8.314670028768466,no_tremor
223,7129081,1.592,-0.04768027443062867,-0.19684606134497848,-1.030581355041378,1.95507898345157,-2.017023386017819,-7.028899830645863,no_tremor
224,7129086,1.597,-0.05153288218050894,-0.19810967659492387,-1.0293810297189303,1.9643785506955012,-1.4859270783958192,-5.81971352271497,no_tremor
225,7129091,1.602,-0.055481027818162235,-0.19930778912351169,-1.028195949727116,1.9613230421302636,-0.9838841818108046,-4.687289626955915,no_tremor
226,7129101,1.612,-0.059511022026776106,-0.20044121247190605,-1.0270281336473948,1.9462157372057012,-0.5115460452377342,-3.6314853874123787,no_tremor
227,7129106,1.617,-0.06360868503106828,-0.20151102586023054,-1.0258796415858409,1.9194184328115902,-0.06940913711092687,-2.6518453259925776,no_tremor
228,7129111,1.622,-0.0677594359491177,-0.20251853663005737,-1.0247525776513375,1.881348472746049,0.34218613134154574,-1.7476115659745175,no_tremor
229,7129115,1.626,-0.07194838771194005,-0.20346524261929305,-1.0236490893085899,1.8324754641333738,0.7230553421762204,-0.9177357916224491,no_tremor
230,7129145,1.656,-0.0761604465110608,-0.20435279511440751,-1.0225713635184563,1.7733177161271259,1.0731687865767596,-0.16089271054300988,no_tremor
231,7129150,1.661,-0.08038041466556833,-0.20518296298848565,-1.021521619673999,1.7044384362888862,1.3926489851656143,0.5245051143248067,no_tremor
232,7129155,1.666,-0.084593095736872,-0.20595759858348525,-1.0205020994352358,1.6264417191252083,1.6817670410890257,1.1402911947240109,no_tremor
233,7129160,1.671,-0.08878340066737467,-0.20667860583425085,-1.0195150536516122,1.5399683590020823,1.940937862039915,1.6885279402983975,no_tremor
234,7129165,1.676,-0.092936453687721,-0.20734791106320635,-1.0185627266330834,1.4456915164095687,2.1707143020753223,2.1714885085394533,no_tremor
235,7129170,1.681,-0.09703769673330172,-0.20796743680027086,-1.0176473380871358,1.3443122634859523,2.371780293554272,2.591637819666183,no_tremor
236,7129175,1.686,-0.10107299113634027,-0.20853907890335432,-1.0167710630828495,1.2365550326735708,2.544943058833376,2.951612879943487,no_tremor
237,7129199,1.71,-0.10502871541363909,-0.2090646871712701,-1.0159360104383317,1.1231629910311298,2.6911245062739915,3.2542025614488637,no_tremor
238,7129204,1.715,-0.10889185804890644,-0.2095460495540871,-1.0151441999574804,1.004893361051306,2.8113519236798514,3.5023269893025604,no_tremor
239,7129209,1.72,-0.11265010426831211,-0.20998487997850704,-1.0143975389666218,0.8825127064336967,2.906748084450218,3.699016688467516,no_tremor
240,7129213,1.724,-0.11629191592273252,-0.21038280972232454,-1.0136977986193147,0.7567921990055936,2.9785208790209623,3.8473916411021873,no_tremor
241,7129218,1.729,-0.119806603713139,-0.21074138219729707,-1.0130465904458366,0.6285028821624481,3.0279525792094004,3.950640402096379,no_tremor
242,7129228,1.739,-0.12318439112024715,-0.2110620509368398,-1.0124453436210379,0.49841094727290686,3.056388838429816,4.011999415322034,no_tremor
243,7129233,1.744,-0.12641646952147734,-0.21134618053416243,-1.0118952834107162,0.36727304195932053,3.065227527907701,4.034732667202385,no_tremor
244,7129238,1.749,-0.12949504409620227,-0.21159505023626377,-1.0113974112338462,0.2358316324333918,3.0559075083964338,4.022111808274256,no_tremor
245,7129243,1.754,-0.132413370235732,-0.21180985986749068,-1.0109524867474853,0.10481044582326576,3.02989743803328,3.9773968676737153,no_tremor
246,7129268,1.779,-0.1351657802901979,-0.21199173773112248,-1.0105610123244329,-0.025089977684618903,2.98868471857723,3.903817679483832,no_tremor
247,7129273,1.784,-0.1377477006019723,-0.21214175011720354,-1.010223220252065,-0.15319658943642409,2.9337646821387438,3.804556133230297,no_tremor
248,7129292,1.803,-0.1401556588930439,-0.21226091202945369,-1.0099390629348188,-0.27886795695851946,2.8666301156997016,3.682729353467194,no_tremor
249,7129297,1.808,-0.14238728218696123,-0.2123501987351763,-1.0097082063319902,-0.4014981692888199,2.788761209077377,3.5413739052949733,no_tremor
250,7129302,1.813,-0.14444128554779,-0.21241055774251874,-1.0095300268056069,-0.5205204818941439,2.7016159946656293,3.383431113300006,no_tremor
251,7129307,1.818,-0.1463174520036262,-0.21244292082178862,-1.009403611489628,-0.6354106598592572,2.6066213291388953,3.2117335704158108,no_tremor
252,7129312,1.823,-0.14801660408921025,-0.21244821571262457,-1.0093277622227652,-0.7456899793780193,2.5051644535662336,3.0289929010499224,no_tremor
253,7129321,1.832,-0.14954056749390235,-0.21242737719527754,-1.009301003015519,-0.8509278499806394,2.3985851611422393,2.837788830518545,no_tremor
254,7129326,1.837,-0.15089212734282698,-0.21238135724903953,-1.0093215909511628,-0.9507440229869055,2.2881685996679213,2.640559600990058,no_tremor
255,7129331,1.842,-0.15207497767591743,-0.21231113407023292,-1.0093875303542295,-1.044810355546942,2.1751387363302643,2.4395937626730473,no_tremor
256,7129341,1.852,-0.1530936647265188,-0.21221771977255774,-1.009496590002024,-1.132852104617768,2.0606525130706213,2.2370233576654877,no_tremor
257,7129345,1.856,-0.153953524640767,-0.21210216664110332,-1.0096463231070287,-1.2146487311536245,1.9457947207922757,2.0348185027093653,no_tremor
258,7129350,1.861,-0.15466061632099137,-0.21196557185613876,-1.0098340897611038,-1.2900342011745152,1.8315736192772576,1.8347833661352158,no_tremor
259,7129355,1.866,-0.15522165011819947,-0.21180908064314344,-1.0100570815047543,-1.358896777014018,1.7189173264234967,1.6385535235275401,no_tremor
260,7129360,1.871,-0.1556439131363192,-0.21163388784157686,-1.0103123476638602,-1.4211782991847608,1.6086709949669316,1.4475946661716603,no_tremor
261,7129365,1.876,-0.15593519194038954,-0.21144123791742347,-1.0105968230791915,-1.4768729672138192,1.5015947875618558,1.2632026263772609,no_tremor
262,7129390,1.901,-0.1561036934792433,-0.2112324234747064,-1.0109073568380855,-1.5260256363015334,1.3983626527631021,1.0865046744844868,no_tremor
263,7129400,1.911,-0.1561579650384488,-0.21100878234975856,-1.0112407416015534,-1.5687296550425816,1.2995618957994954,0.9184620336611389,no_tremor
264,7129405,1.916,-0.15610681403067198,-0.21077169339876622,-1.0115937431053368,-1.6051242768128051,1.2056935294185536,0.7598735501480894,no_tremor
265,7129409,1.92,-0.1559592284090629,-0.21052257111216965,-1.0119631294047542,-1.635391683131389,1.1171733815766929,0.6113804481359292,no_tremor
266,7129414,1.925,-0.15572429845719674,-0.210262859206503,-1.0123456994363595,-1.659753661425245,1.034333928153958,0.47347209026240755,no_tremor
267,7129424,1.935,-0.15541114066964987,-0.20999402335372852,-1.0127383104878993,-1.6784679828820421,0.9574268099370707,0.3464926576283932,no_tremor
268,7129433,1.944,-0.15502882439296087,-0.20971754321050065,-1.013137904201285,-1.6918245291670135,0.8866259838503078,0.23064865787802544,no_tremor
269,7129443,1.954,-0.15458630184841238,-0.20943490390697336,-1.0135415307778495,-1.7001412196619297,0.822031449283889,0.1260171662661973,no_tremor
270,7129458,1.969,-0.15409234210509748,-0.20914758714912968,-1.0139463711065293,-1.7037597929138362,0.7636734823134237,0.0325547022966724,no_tremor
271,7129462,1.973,-0.1535554695128508,-0.20885706208220434,-1.0143497565895467,-1.7030414965405412,0.7115173048022663,-0.04989335701763457,no_tremor
272,7129467,1.978,-0.15298390703951154,-0.20856477605658041,-1.0147491864934504,-1.6983627387464606,0.6654681126528084,-0.12158292724113276,no_tremor
273,7129472,1.983,-0.1523855248872447,-0.20827214543129505,-1.015142342704344,-1.690110752091408,0.6253763877158927,-0.1828610305372388,no_tremor
274,7129477,1.988,-0.1517677946913534,-0.20798054654295065,-1.0155271018146204,-1.6786793166878744,0.5910434200869696,-0.23415537447450005,no_tremor
275,7129487,1.998,-0.1511377495352565,-0.2076913069585088,-1.0159015445149593,-1.6644645859706273,0.5622269704953681,-0.2759637964210654,no_tremor
276,7129512,2.023,-0.150501949948903,-0.20740569711897397,-1.0162639623100969,-1.6478610538176681,0.5386470054126787,-0.30884367389154327,no_tremor
277,7129516,2.027,-0.14986645599484055,-0.20712492246802452,-1.0166128616194032,-1.6292576974818826,0.5199914402787862,-0.33340139996046453,no_tremor
278,7129536,2.047,-0.14923680548471793,-0.20685011614669824,-1.0169469653616197,-1.609034327105166,0.5059218299280227,-0.35028202029932415,no_tremor
279,7129540,2.051,-0.14861799830711703,-0.20658233232413253,-1.0172652121540933,-1.5875581698239967,0.49607895188172074,-0.3601591244116146,no_tremor
280,7129545,2.056,-0.14801448678529203,-0.20632254022614832,-1.0175667532781676,-1.565180714406969,0.49008823870204354,-0.36372507832393364,no_tremor
281,7129560,2.071,-0.1474301719239327,-0.20607161891746736,-1.0178509475744852,-1.542234840704346,0.48756502841031946,-0.36168167908795407,no_tremor
282,7129564,2.075,-0.14686840535189077,-0.20583035288754403,-1.0181173544379134,-1.519032256858082,0.4881196132657158,-0.35473130262377733,no_tremor
283,7129569,2.08,-0.14633199672470013,-0.20559942848242194,-1.0183657250853388,-1.495861265942283,0.49136207305487595,-0.3435686061071057,no_tremor
284,7129574,2.085,-0.14582322631425815,-0.20537943121483868,-1.0185959922732661,-1.4729848818710645,0.49690687720875865,-0.32887283547832424,no_tremor
285,7129579,2.09,-0.14534386247823877,-0.20517084397240176,-1.0188082586469902,-1.4506393116649365,0.5043772312450466,-0.31130077897783637,no_tremor
286,7129583,2.094,-0.144895183663944,-0.2049740461303787,-1.0190027839087212,-1.4290328176617086,0.5134091309092667,-0.29148039963328914,no_tremor
287,7129589,2.1,-0.14447800455766255,-0.2047893135632298,-1.0191799709973002,-1.4083449691214789,0.5236550768690814,-0.2700051734084498,no_tremor
288,7129593,2.104,-0.14409270594107262,-0.20461681953910008,-1.0193403514757076,-1.38872628771627,0.5347873979870814,-0.24742915461541395,no_tremor
289,7129598,2.109,-0.14373926776316506,-0.20445663647525417,-1.019484570323323,-1.3702982855780264,0.5465011341995223,-0.2242627852388503,no_tremor
290,7129607,2.118,-0.1434173048839808,-0.20430873853049664,-1.0196133703270345,-1.3531538884576078,0.5585164408672338,-0.20096945957371273,no_tremor
291,7129634,2.145,-0.1431261049010282,-0.20417300501294436,-1.0197275762586577,-1.3373582310392578,0.5705804934951821,-0.1779628502474966,no_tremor
292,7129639,2.15,-0.14286466743749043,-0.20404922458720307,-1.0198280790163292,-1.3229498071258627,0.5824688921249978,-0.15560499648105655,no_tremor
293,7129643,2.154,-0.14263174426024763,-0.20393710027186093,-1.0199158198964335,-1.3099419538939654,0.593986584258961,-0.13420515013241716,no_tremor
294,7129648,2.159,-0.14242587960983755,-0.20383625522295656,-1.0199917751530005,-1.298324645762735,0.604968338677984,-0.11401936952177918,no_tremor
295,7129653,2.164,-0.14224545016268306,-0.20374623929854757,-1.020056940995789,-1.288066569154848,0.6152788064416309,-0.09525084576300305,no_tremor
296,7129658,2.169,-0.14208870410106833,-0.20366653639214843,-1.0201123191772092,-1.279117444957998,0.6248122001865511,-0.0780509423448296,no_tremor
297,7129668,2.179,-0.1419537988283054,-0.20359657250895533,-1.0201589033205796,-1.2714105613729034,0.6334916121043483,-0.06252092669020787,no_tremor
298,7129673,2.184,-0.14183883692614538,-0.2035357245398296,-1.0201976661456533,-1.2648654758999052,0.6412679786113816,-0.048714372165998256,no_tremor
299,7129678,2.189,-0.14174190000278214,-0.20348332966559537,-1.020229547749259,-1.2593908406050265,0.6481186887712945,-0.03664020990589906,no_tremor
300,7129683,2.194,-0.14166108012048895,-0.20343869529982725,-1.0202554450968517,-1.25488729878569,0.6540458262296719,-0.026266411490895286,no_tremor
