sample,t_ms,t_s,ax,ay,az,gx,gy,gz,tremor
0,8319054,0.0,-0.4621556455508528,-0.026270770868280554,0.8541209522940512,13.729184958709197,2.2451950844313067,3.0972492784117986,no_tremor
1,8319086,0.032,-0.4636781375082143,-0.02650776920249405,0.861000051969313,12.109703570961454,2.348914216279671,2.3872461719797413,no_tremor
2,8319097,0.043,-0.46590526624755313,-0.026988443598861614,0.8710438823222209,9.5212920644173,2.411870617216742,1.4829599866429508,no_tremor
3,8319119,0.065,-0.46898858133114585,-0.02793496192920601,0.8848786693819833,5.6556917635747075,2.435909488940847,0.3237474278986226,no_tremor
4,8319130,0.076,-0.47296262822011154,-0.029634465187541793,0.9025729337181656,0.25358486661987756,2.4211732618780992,-1.1412793646721762,no_tremor
5,8319153,0.099,-0.4777599221811391,-0.03240597279703919,0.9237207670023301,-6.876788990900011,2.3664322095967307,-2.9494163694428335,no_tremor
6,8319164,0.11,-0.4832373194416615,-0.036567670998811724,0.9475788942925157,-15.843106254496481,2.26961983659382,-5.120927251254117,no_tremor
7,8319175,0.121,-0.48919387634932254,-0.04241165889076122,0.9731609774381326,-26.655525465270312,2.128543586179752,-7.656203775510298,no_tremor
8,8319218,0.164,-0.49537995152634884,-0.05018590026978862,0.9992870229897025,-39.21730093425554,1.9417289674822857,-10.533725300399258,no_tremor
9,8319229,0.175,-0.5015026460105695,-0.06008098073527149,1.0246120650815813,-53.32029340722285,1.7093444587782542,-13.708997410231632,no_tremor
10,8319241,0.187,-0.5072321388386106,-0.07221997781776839,1.0476558808549024,-68.64605488182325,1.4341447356475994,-17.114617928207934,no_tremor
11,8319252,0.198,-0.5122114876871932,-0.08665086865900322,1.0668459771227896,-84.77292275038943,1.1223598559040662,-20.661571245874402,no_tremor
12,8319297,0.243,-0.5160707590030539,-0.10334157566809925,1.080578009265958,-101.1892461903941,0.7844479947990556,-24.241787398331027,no_tremor
13,8319329,0.275,-0.5184452006965582,-0.12217796445857278,1.087292508124957,-117.31249268782966,0.4356215703479944,-27.7319212400446,no_tremor
14,8319340,0.286,-0.5189964236966086,-0.14296503786244152,1.0855635406833877,-132.51357389458644,0.09605375106484727,-30.998216673951916,no_tremor
15,8319374,0.32,-0.5174350704276042,-0.16543137355465015,1.074192933942253,-146.1453397213548,-0.20932825775972222,-33.90223570849807,no_tremor
16,8319385,0.331,-0.5135431577713863,-0.1892366318964792,1.0523025676728333,-157.57386463948373,-0.4515605274244574,-36.30716656415794,no_tremor
17,8319408,0.354,-0.5071941821047535,-0.21398175975704817,1.0194168864939521,-166.2109056238082,-0.5989677738645793,-38.08438307664651,no_tremor
18,8319419,0.365,-0.49836916976986545,-0.23922134325123745,0.9755281845690554,-171.54573939878972,-0.619165772121658,-39.119901855354335,no_tremor
19,8319463,0.409,-0.48716714528027133,-0.26447742360811277,0.9211383576424417,-173.17448405874464,-0.48173170932676074,-39.32036695630575,no_tremor
20,8319475,0.421,-0.4738089521574361,-0.2892540083857327,0.8572726095679754,-170.82499214791326,-0.1614122105613094,-38.6181907465947,no_tremor
21,8319486,0.432,-0.45863394825789605,-0.31305150858892883,0.7854628340395601,-164.37551208082823,0.3583966878796616,-36.97551549831044,no_tremor
22,8319497,0.443,-0.4420897232618498,-0.3353804153809034,0.7077007409081816,-153.86561726071832,1.082282064240918,-34.38675148008582,no_tremor
23,8319508,0.454,-0.4247155508375009,-0.35577369037843914,0.6263629407062314,-139.49843789913118,2.0000178065736796,-30.879584228371566,no_tremor
24,8319531,0.477,-0.40712071910353886,-0.37379757887266435,0.5441119765012414,-121.6339569478937,3.084802883246009,-26.51448600818041,no_tremor
25,8319587,0.533,-0.38995915444978374,-0.3890608520548667,0.46377870706691265,-100.77391438849841,4.292920000575402,-21.38287381622686,no_tremor
26,8319609,0.555,-0.373901868300809,-0.40122276692311665,0.38823255214808294,-77.53953049871495,5.565047113881419,-15.604114551757752,no_tremor
27,8319620,0.566,-0.35960872056884313,-0.41000016572249415,0.32024687911962474,-52.643679059207315,6.829246519683002,-9.321592159779273,no_tremor
28,8319631,0.577,-0.3477008204916187,-0.415174036597911,0.2623671281152518,-26.859294531853315,8.005426340611432,-2.698030705801826,no_tremor
29,8319642,0.588,-0.3387346181221405,-0.4165955953536038,0.21678905298346007,-0.9857670397083418,9.010860869627882,4.0897720906651465,no_tremor
30,8319654,0.6,-0.33317845659562867,-0.41419169436228165,0.1852537230250889,24.18502310872518,9.766215783499643,10.856680183761421,no_tremor
31,8319665,0.611,-0.3313921441047548,-0.40796922737808156,0.16896480358433277,47.901491294144286,10.201480440019033,17.415314764732727,no_tremor
32,8319698,0.644,-0.3336100232780794,-0.39801815870779,0.16853224980481937,69.48253060502282,10.261261598256947,23.58239090801226,no_tremor
33,8319743,0.689,-0.33992806526567476,-0.3845127822369318,0.18394501574641736,88.34380245567101,9.909017270455461,29.185148730490635,no_tremor
34,8319765,0.711,-0.35029563201211217,-0.36771076583689677,0.21457377921665632,104.01902273799136,9.129970415749122,34.067694309174705,no_tremor
35,8319788,0.734,-0.3645126268499177,-0.34794948944390547,0.259203088839723,116.1753532647475,7.932596406061123,38.09702471496252,no_tremor
36,8319821,0.767,-0.3822326991408662,-0.32563921727883666,0.31609085053540875,124.62227791274351,6.348685533433261,41.16847627328562,no_tremor
37,8319832,0.778,-0.40297295615235634,-0.3012528153600167,0.38305177391598966,129.31364821364807,4.432029570051552,43.210309051911835,no_tremor
38,8319877,0.823,-0.4261303013835914,-0.27531202634950075,0.4575603334120162,130.3429170566484,2.2557930317246395,44.18712337873062,no_tremor
39,8319888,0.834,-0.4510041195471231,-0.2483706772675928,0.5368679594820632,127.93194332027562,-0.09135524054357518,44.1018012838281,no_tremor
40,8319945,0.891,-0.47682459736655236,-0.22099554532912885,0.6181285501402841,122.41414274800646,-2.5102202043693174,42.99569470125782,no_tremor
41,8319956,0.902,-0.5027855151627509,-0.19374589212910942,0.6985259762887784,114.2131568667703,-4.896919936572892,40.946865688207126,no_tremor
42,8319979,0.925,-0.5280798955702447,-0.1671528675591845,0.7753970607181127,103.81854617961744,-7.149167449182046,38.06633126483247,no_tremor
43,8320001,0.947,-0.5519365234259717,-0.14170007160665654,0.8463436120702644,91.76018486846134,-9.17242964121629,34.49245973901512,no_tremor
44,8320024,0.97,-0.5736551166509346,-0.11780656126799832,0.9093276119416215,78.5829699689147,-10.885370649466129,30.38386663174966,no_tremor
45,8320035,0.981,-0.5926378437806394,-0.09581351794836976,0.9627446635788041,64.82318910531845,-12.224104165676142,25.911318945149763,no_tremor
46,8320067,1.013,-0.6084149758222965,-0.07597560616284255,1.0054722628609976,50.98753519489093,-13.144970580186879,21.249240990087067,no_tremor
47,8320078,1.024,-0.6206628270080705,-0.05845767009222888,1.036891178827239,37.53542779603318,-13.625732149107122,16.567416417872217,no_tremor
48,8320089,1.035,-0.6292128475050164,-0.04333681539314162,1.0568800353916343,24.86504633333439,-13.665219545502996,12.023417015126926,no_tremor
49,8320100,1.046,-0.6340516593851738,-0.030609247763099184,1.0657849061813864,13.303289912630385,-13.281594810391466,7.756181153126354,no_tremor
50,8320134,1.08,-0.6353126984608279,-0.020200706009043057,1.0643672457046327,3.099721428347447,-12.509527717776297,3.881034083487712,no_tremor
51,8320145,1.091,-0.6332607176949208,-0.011979087613880664,1.0537346763093849,-5.575594134142449,-11.396677774419475,0.4863129618457626,no_tremor
52,8320200,1.146,-0.6282706990201578,-0.0057679296241332865,1.0352599429994145,-12.630595957914617,-9.999893131395956,-2.3683507075358894,no_tremor
53,8320211,1.157,-0.6208028273010453,-0.0013596774166335637,1.0104936822975503,-18.046463838928013,-8.381482806347584,-4.652131913040432,no_tremor
54,8320222,1.168,-0.6113752114978337,0.001471986322163178,0.98107652656636,-21.870103493863027,-6.605825498403731,-6.361624650097631,no_tremor
55,8320234,1.18,-0.6005360143451818,0.0029611750214636142,0.9486555408095328,-24.204501720863252,-4.736480675288184,-7.518175938010234,no_tremor
56,8320245,1.191,-0.5888365459977898,0.003340392352018876,0.9148091656052504,-25.197629434052534,-2.8338811263410864,-8.164214346304844,no_tremor
57,8320256,1.202,-0.5768066834214632,0.002832740674493588,0.880983832223788,-25.03057718081514,-0.9536161811862425,-8.358881742246476,no_tremor
58,8320278,1.224,-0.564933720001033,0.0016457133502936813,0.8484443328622053,-23.905569824826454,0.8547358989907972,-8.173285210106197,no_tremor
59,8320332,1.278,-0.5536454517683647,-3.3501196449800454e-05,0.8182389609714075,-22.03443749880771,2.5482997222950887,-7.685671879039851,no_tremor
60,8320343,1.289,-0.5432979791037542,-0.0020412904701973796,0.791179452088494,-19.62803172455076,4.091208587249436,-6.976798001945507,no_tremor
61,8320366,1.312,-0.5341683616662766,-0.0042395546006109616,0.7678349042899897,-16.886977048901773,5.454618179675772,-6.125719534449459,no_tremor
62,8320388,1.334,-0.526451940521057,-0.006516406628377373,0.7485381768075766,-13.994043043310866,6.616515519730866,-5.20617902966013,no_tremor
63,8320399,1.345,-0.5202638706204927,-0.008785751323723877,0.7334027791321452,-11.108311171406298,7.561397048370208,-4.283707351333034,no_tremor
64,8320411,1.357,-0.5156442133336487,-0.010985882012445353,0.7223479748644229,-8.361200544464982,8.27987507273962,-3.4135027045324176,no_tremor
65,8320475,1.421,-0.5125658296265497,-0.013077260366706062,0.715129718718753,-5.854314512052945,8.76826029387957,-2.6390976769705143,no_tremor
66,8320487,1.433,-0.5109442822024093,-0.0150396644866811,0.7113750932119017,-3.6589858176115024,9.028158524572609,-1.9917809922937737,no_tremor
67,8320498,1.444,-0.5106489817176069,-0.016868901716135296,0.7106180799302636,-1.817336072936455,9.066106381046396,-1.4907068936038095,no_tremor
68,8320509,1.455,-0.5115148767331007,-0.018573282186098605,0.7123347531632809,-0.3446222958252677,8.893249908056145,-1.143601668582353,no_tremor
69,8320521,1.467,-0.5133540725696937,-0.02017003737588669,0.7159762871585694,0.7673868325983153,8.525043605449461,-0.9479623104088326,no_tremor
70,8320532,1.478,-0.5159668617375928,-0.021681848983099647,0.720998494662863,1.5462820234767483,7.980921154692515,-0.8926348720728254,no_tremor
71,8320598,1.544,-0.5191517524125498,-0.023133633026879284,0.7268869449806575,2.034417042958626,7.283870982273903,-0.9596577754892905,no_tremor
72,8320609,1.555,-0.5227141850889698,-0.02454970598011421,0.7331770333441268,2.284126356725608,6.459848653864264,-1.1262556307600153,no_tremor
73,8320620,1.566,-0.5264737270392206,-0.02595144222708202,0.7394686826931288,2.353022697669396,5.536982376326733,-1.366869746841375,no_tremor
74,8320631,1.577,-0.5302696315254777,-0.027355509654487468,0.745435647550195,2.2996141041945206,4.544577712227211,-1.6551127535926908,no_tremor
75,8320654,1.6,-0.5339647460338,-0.028772737301478897,0.7508296516358803,2.1794430007420202,3.5119869426814847,-1.9655402886060027,no_tremor
76,8320686,1.632,-0.5374478435812564,-0.030207624565277015,0.7554798219350114,2.0419043355657243,2.4674505414267816,-2.2751471291724097,no_tremor
77,8320697,1.643,-0.5406345168016202,-0.03165845016420537,0.7592880779384726,1.927849675923559,1.4370250042687531,-2.564519782038633,no_tremor
78,8320708,1.654,-0.5434668049078435,-0.033117890312370044,0.7622212880125,1.868033531555141,0.44368739254143774,-2.818608508850888,no_tremor
79,8320719,1.665,-0.5459117265224146,-0.03457402004251471,0.7643011036401783,1.882409384972211,-0.4933284862938408,-3.027112627325954,no_tremor
80,8320731,1.677,-0.547958889534993,-0.03601155641517569,0.7655924163840981,1.9802371503228644,-1.358940950205573,-3.184499173797741,no_tremor
81,8320742,1.688,-0.549617361499145,-0.03741320770355345,0.766191348762172,2.160922344046781,-2.142374990871796,-3.2896956815875966,no_tremor
82,8320753,1.699,-0.5509120109816283,-0.038761012767416475,0.7662135940089775,2.415471299408363,-2.8370814739381593,-3.3455135711210775,no_tremor
83,8320775,1.721,-0.5518795558986727,-0.04003758172476085,0.7657837722322355,2.7284165028278964,-3.4404540514611486,-3.3578696829836825,no_tremor
