sample,t_ms,t_s,ax,ay,az,gx,gy,gz,tremor
0,9897389,0.0,-0.12606203537770003,0.06493984019907013,0.9359554464810946,-0.8391239290298985,4.620780934282081,-1.1577534434307708,tremor
1,9897394,0.005,-0.12700102647268074,0.06478177915169658,0.9380824970359328,-1.360804335515564,7.618002801321682,-1.4580612771602774,tremor
2,9897403,0.014,-0.12871594097146638,0.06449449241850984,0.9410536625278123,-1.8705513883152567,10.667353864699058,-1.75714121205427,tremor
3,9897462,0.073,-0.13164151395784404,0.06400873493073485,0.9449091434599847,-2.379845637437549,13.904715370898835,-2.0532783191223847,tremor
4,9897472,0.083,-0.13622747109984173,0.06325524783695169,0.94948474333382,-2.8997707792972096,17.45211781446281,-2.3444532389935535,tremor
5,9897482,0.093,-0.14289206921138461,0.06217198668186169,0.9544747065262532,-3.4405657893399875,21.41170536270349,-2.628342543183828,tremor
6,9897496,0.107,-0.15200114942121723,0.0607066843169752,0.9595015308162822,-4.011217447027287,25.860460266498833,-2.9023247102316305,tremor
7,9897526,0.137,-0.16386014583005834,0.058817222933226464,0.9641589747076387,-4.619106211120928,30.845914665910616,-3.163490768174061,tremor
8,9897545,0.156,-0.17870960733924762,0.05647149998025883,0.968030773319033,-5.269715862599674,36.383045251456004,-3.4086590773010403,tremor
9,9897555,0.166,-0.19671996819889445,0.05364747209505971,0.9706961748117245,-5.966415112217002,42.45250623330708,-3.6343949034017164,tremor
10,9897594,0.205,-0.21798500485722666,0.05033342367369925,0.9717311692196229,-6.710317846572398,49.000309084219396,-3.8370372881986907,tremor
11,9897599,0.21,-0.24251498303521996,0.04652827195128218,0.9707101961824955,-7.500227688948526,55.93900428424096,-4.01273773993113,tremor
12,9897628,0.239,-0.27023080439597685,0.0422417016136441,0.967210221210485,-8.332671231114382,63.150361053340575,-4.15751659195488,tremor
13,9897637,0.248,-0.30096027405947057,0.037493978189246685,0.9608175355796178,-9.202021599556826,70.48947552172571,-4.267342663402855,tremor
14,9897680,0.291,-0.33443730085287177,0.03231535741472372,0.9511369504632388,-10.100709333905462,77.79016615132277,-4.338239751012717,tremor
15,9897735,0.346,-0.3703045353480386,0.026745068575089855,0.9378027888052846,-11.019511245611376,84.87144309077529,-4.366419907866006,tremor
16,9897843,0.454,-0.40811966984305054,0.020829902096821992,0.9204909896469134,-11.947901730591619,91.54478221310616,-4.348439460345628,tremor
17,9897852,0.463,-0.44736536963246376,0.014622477411888954,0.8989316230413914,-12.874447074708936,97.62191171763116,-4.281370408828051,tremor
18,9897881,0.492,-0.48746257867307935,0.008179305062655249,0.872921123404587,-13.787221347485076,102.92281706676653,-4.162977612426151,tremor
19,9897890,0.501,-0.527786750105264,0.0015587821771621078,0.8423335570025998,-14.67421910056663,107.28364666076138,-3.9918902015441753,tremor
20,9897905,0.516,-0.5676863976569397,-0.005180731288216304,0.8071302324530149,-15.523733487059031,110.56413912113025,-3.767753434180803,tremor
21,9897910,0.521,-0.6065032556252136,-0.011982616324674511,0.7673669587353317,-16.324663069078706,112.65413893582159,-3.4913460380003474,tremor
22,9897914,0.525,-0.643593285890229,-0.018793361287075486,0.7231982960432795,-17.06671424059064,113.47878376790818,-3.1646502871154256,tremor
23,9897966,0.577,-0.6783477881980874,-0.02556350759319421,0.6748782724710597,-17.740482821525006,113.00204935224723,-2.7908682787044232,tremor
24,9898051,0.662,-0.7102139391287301,-0.032248135847361185,0.6227572694774997,-18.33742440959376,111.22848833383652,-2.3743859755672414,tremor
25,9898162,0.773,-0.738714159899633,-0.03880690209049147,0.567275091644094,-18.84974879445683,108.20314725513532,-1.920693154123621,tremor
26,9898166,0.777,-0.7634637462072904,-0.045203676954390676,0.5089505823237495,-19.27028956511957,104.00977222746536,-1.4362700738141552,tremor
27,9898208,0.819,-0.7841861822157911,-0.051405872564903,0.4483684616422797,-19.592403670438674,98.7675383725906,-0.9284507701903957,tremor
28,9898247,0.858,-0.8007255479758171,-0.05738356264834203,0.3861642802790162,-19.809950822991404,92.62666728490052,-0.4052709806850123,tremor
29,9898251,0.862,-0.813055445173688,-0.06310850862948249,0.3230084476771182,-19.917390521587798,85.76337219934723,0.12469176870147095,tremor
30,9898257,0.868,-0.8212838903514841,-0.0685531942204727,0.2595901866283544,-19.910011952934127,78.37451015949893,0.6524780518696794,tremor
31,9898291,0.902,-0.8256536189059952,-0.07368994312835589,0.19660201716842818,-19.78427932185614,70.67211628482917,1.1689011887753802,tremor
32,9898300,0.911,-0.8265372104099415,-0.07849015823102312,0.1347250582571109,-19.538241720542043,62.87774508010668,1.6646997834296302,tremor
33,9898305,0.916,-0.8244264631160507,-0.08292369288463493,0.07461515786464967,-19.171937299250615,55.21638717322127,2.1307014920601532,tremor
34,9898341,0.952,-0.8199156373190848,-0.08695836419407373,0.016889710977291104,-18.687725417588897,47.90975891167968,2.558014872723525,tremor
35,9898360,0.971,-0.8136786386734749,-0.09055964975627344,-0.03788496301694281,-18.090502647023026,41.1689645843305,2.9382591944923577,tremor
36,9898371,0.982,-0.8064408741333745,-0.09369065495075944,-0.08920567352975267,-17.387784094728875,35.18679566772342,3.263829345714954,tremor
37,9898462,1.073,-0.798947194465999,-0.09631246544001612,-0.13664364963055017,-16.58964997973741,30.13012712855629,3.528180937203398,tremor
38,9898466,1.077,-0.7919278249927808,-0.09838499218457047,-0.17985472293149887,-15.708568890874856,26.132938632005494,3.7261122225788723,tremor
39,9898472,1.083,-0.7860643826126247,-0.0998683804636129,-0.21858796883194703,-14.75911640910664,23.29045852575536,3.854015736886189,tremor
40,9898477,1.088,-0.7819580241891261,-0.10072499969271066,-0.25269235185000066,-13.757609119226451,21.654857016965455,3.9100747210794884,tremor
41,9898481,1.092,-0.7801015639384519,-0.10092195709498786,-0.2821209597176151,-12.72166855605807,21.23282956747579,3.8943869781786637,tremor
42,9898486,1.097,-0.7808571015216815,-0.10043398815217303,-0.3069324978236394,-11.669722683736344,21.985311975331815,3.8090091695754915,tremor
43,9898491,1.102,-0.7844403432084046,-0.09924648704681867,-0.32728983441462234,-10.620451176704256,23.82945114803327,3.6579244739756573,tremor
44,9898496,1.107,-0.7909123864704093,-0.09735837469593821,-0.34345552088972,-9.59218714181082,26.642822686094604,3.4469435643653883,tremor
45,9898501,1.112,-0.8001792894981616,-0.09478447816815405,-0.3557843476625615,-8.602298994516746,30.2697436785601,3.183551872033271,tremor
46,9898506,1.117,-0.8119992850259063,-0.09155711950013755,-0.3647131261565246,-7.666587524533112,34.52938234209978,2.8767153303116917,tremor
47,9898515,1.126,-0.8259970497351244,-0.08772668010961118,-0.3707480064197187,-6.798741027672746,39.22522182730274,2.536653612563947,tremor
48,9898520,1.131,-0.8416840339962955,-0.08336100791352241,-0.3744497440557351,-6.009893135867658,44.15530367897217,2.174586304079008,tremor
49,9898525,1.136,-0.8584835193250872,-0.0785436521056936,-0.3764174164187335,-5.308322178616164,49.12257333939248,1.8024553833316288,tremor
50,9898529,1.14,-0.8757588290292534,-0.0733710273631307,-0.3772711526296565,-4.699317613078658,53.94459640944588,1.4326278804618002,tremor
51,9898534,1.145,-0.892842991249568,-0.0679487084982284,-0.3776344812294389,-4.185220398082152,58.461927098759446,1.077585187670152,tremor
52,9898539,1.15,-0.9090681511872136,-0.06238712694953798,-0.3781169104660177,-3.7656240068637845,62.5444956126345,0.7496083312030277,tremor
53,9898544,1.155,-0.9237931471400743,-0.056796977365114736,-0.3792973378957753,-3.437705207054934,66.09553559041596,0.46046923870112816,tremor
54,9898549,1.16,-0.9364278930743981,-0.051284646686077025,-0.38170883773193565,-3.19664197064206,69.05278776823931,0.22113524735530982,tremor
55,9898554,1.165,-0.9464535377070333,-0.045947953973183984,-0.3858252966998214,-3.0360715349926513,71.38698102470067,0.041488283343154124,tremor
56,9898599,1.21,-0.9534377837230372,-0.040872443367555376,-0.39205026412174204,-2.948544188263992,73.09789145820642,-0.06994628389398896,tremor
57,9898604,1.215,-0.9570452237452531,-0.03612841273226423,-0.40070825498034646,-2.9259354053559474,74.2085819481698,-0.10626962728419138,tremor
58,9898609,1.22,-0.9570430165840523,-0.03176879429347094,-0.41203860800442954,-2.959788544871872,74.7586627085639,-0.06248413174441014,tremor
59,9898652,1.263,-0.9533025790954827,-0.027827938025421328,-0.42619187488024896,-3.041572762840592,74.79750100416211,0.06423156044355216,tremor
60,9898657,1.268,-0.9457981018874512,-0.024321289747544925,-0.4432286253611652,-3.1628565333210448,74.37819697728258,0.2742664983737195,tremor
61,9898703,1.314,-0.9346025894245654,-0.021245907392686947,-0.4631205140549816,-3.3154125756901833,73.55286645338583,0.5653730563001633,tremor
62,9898728,1.339,-0.9198818654770966,-0.018581719955584344,-0.48575346899795835,-3.4912781624189404,72.3694269028089,0.9325513630928935,tremor
63,9898757,1.368,-0.9018867218120977,-0.016293402756928244,-0.5109329043033656,-3.682792113391232,70.86978107052063,1.3680528625412915,tremor
64,9898831,1.442,-0.8809432446078501,-0.014332723358094645,-0.5383908821831254,-3.882620609471112,69.08912306534702,1.8615194101653587,tremor
65,9898855,1.466,-0.8574413650567991,-0.012641211174808827,-0.5677951165057079,-4.083776996080198,67.05607494962825,2.400259580880727,tremor
66,9898908,1.519,-0.8318217926660969,-0.011153019445413212,-0.598759627102343,-4.2796404513264985,64.79342713141703,2.969652469174271,tremor
67,9898954,1.565,-0.8045616145949432,-0.009797867888693263,-0.6308567646399829,-4.463980765435442,62.31929808923421,3.5536617572775695,tremor
68,9898959,1.57,-0.7761589382921543,-0.008503964824624628,-0.663630267652507,-4.630995059637167,59.64851056888439,4.135437115260903,tremor
69,9898979,1.59,-0.74711703519993,-0.007200808095925706,-0.6966089870916683,-4.775356512346017,56.793956032495636,4.697973812732345,tremor
70,9899041,1.652,-0.7179285363718788,-0.005821765065455603,-0.72932089553168,-4.892269712885019,53.76775058888551,5.2247950031259816,tremor
71,9899082,1.693,-0.6890603220950755,-0.004306342183273363,-0.7613069720903137,-4.977525365527563,50.58207517662257,5.700617239148832,tremor
72,9899140,1.751,-0.660939796365455,-0.002602074509949984,-0.792134527731108,-5.027547844992675,47.24969600284737,6.111961053572975,tremor
73,9899149,1.76,-0.6339432213888951,-0.000665989628151128,-0.8214095283766923,-5.039430210915248,43.784242572370886,6.447675175462513,tremor
74,9899168,1.779,-0.6083867126054798,0.0015343749891398232,-0.8487874953416408,-5.010953243505397,40.20036963110643,6.699352422506244,tremor
75,9899199,1.81,-0.5845203617110771,0.0040203934973508946,-0.8739826035894103,-4.9405915428106075,36.51394037066485,6.861623283351428,tremor
76,9899203,1.814,-0.5625257465479976,0.006802167786432148,-0.8967746390412734,-4.827520902288922,32.74233261426421,6.932317418371174,tremor
77,9899209,1.82,-0.542516803435279,0.009878656361769319,-0.9170135135459816,-4.671649596320461,28.904895246201615,6.912485665771607,tremor
78,9899218,1.829,-0.5245437311058682,0.013238014896758557,-0.9346210920395674,-4.473693663310163,25.023501198048436,6.806279556087933,tremor
79,9899227,1.838,-0.5085993449134805,0.01685806234254133,-0.949590189122607,-4.235301787002307,21.123088375138998,6.620693528625525,tremor
80,9899277,1.888,-0.49462716106940224,0.020706834590320307,-0.9619807523331958,-3.9592144420211035,17.23206027317906,6.36518508238122,tremor
81,9899287,1.898,-0.48253047303422536,0.024743250749510247,-0.9719134512860234,-3.649421584401135,13.38242415850415,6.051196625027325,tremor
82,9899292,1.903,-0.47218175934130835,0.028917970513433942,-0.9795610970561439,-3.3112702960318643,9.609565639166265,5.6916076222716,tremor
83,9899329,1.94,-0.4634318896884413,0.03317454481916296,-0.9851384719700707,-2.9514740983366257,5.951590440068443,5.300146439208039,tremor
84,9899373,1.984,-0.45611873043219,0.03745094884665791,-0.9888912118193238,-2.577989281615592,2.448207297508707,4.890789001871892,tremor
85,9899383,1.994,-0.4500748656131456,0.04168154498529841,-0.9910843452979272,-2.1997436771598537,-0.8608222708111882,4.477168082955208,tremor
86,9899534,2.145,-0.4451342414009479,0.045799470458850605,-0.9919910030361273,-1.8262225900169715,-3.9375873330442674,4.072014901340514,tremor
87,9899574,2.185,-0.4411376175278884,0.049739389263744084,-0.9918817216244992,-1.4669348180244,-6.748153658680105,3.686654780328102,tremor
