sample,t_ms,t_s,ax,ay,az,gx,gy,gz,tremor
0,9754124,0.0,-0.34888427840714964,-0.24760206241419516,0.841882879112866,2.070452578621987,-7.3247363961302705,-0.7128891330853667,tremor
1,9754134,0.01,-0.3488831437939419,-0.2476434637007221,0.8417854246872977,2.1472442728971037,-7.805471013339711,-0.7118471293764619,tremor
2,9754139,0.015,-0.3489050224577942,-0.24768995471166821,0.8417135256786739,2.20969022517755,-8.076548721239776,-0.7209005872173685,tremor
3,9754143,0.019,-0.3489698954945376,-0.2477359128681613,0.8417055238372205,2.256206526750708,-8.120862651868796,-0.7410179714003131,tremor
4,9754179,0.055,-0.34910098815811913,-0.24777336587111054,0.8418041713467024,2.285210872379548,-7.921940222511557,-0.7731532211106786,tremor
5,9754188,0.064,-0.3493215736082745,-0.24779471150682145,0.842045452702628,2.29513390262935,-7.464105650366409,-0.8182367586518,tremor
6,9754193,0.069,-0.34965359837902227,-0.24779423654196903,0.842453983549328,2.2844311728796165,-6.7326439763428425,-0.8771661821618787,tremor
7,9754198,0.074,-0.3501176208785789,-0.2477684640402057,0.843043190315274,2.2515956874026277,-5.713965137336248,-0.9507967163984778,tremor
8,9754222,0.098,-0.35073327206226196,-0.2477159128068099,0.843817335074293,2.1951709223137206,-4.395766524633356,-1.0399314999059783,tremor
9,9754227,0.103,-0.3515197542464676,-0.2476366994616792,0.8447736496872087,2.113764245172416,-2.767192377771503,-1.1453117880380819,tremor
10,9754232,0.108,-0.3524961973339375,-0.24753217968925112,0.8459039630540209,2.006060622471458,-0.8189882917890399,-1.267607150816185,tremor
11,9754236,0.112,-0.35368185137321806,-0.24740468118855896,0.8471957723332799,1.8708364905804888,1.4563509343754002,-1.4074057433879341,tremor
12,9754241,0.117,-0.35509614934625944,-0.24725732054931276,0.8486328937217983,1.7069736518930427,4.064441907428835,-1.5652047249960193,tremor
13,9754246,0.122,-0.35675868082120227,-0.2470938804235077,0.8501958436793027,1.5134730462461403,7.008883511642507,-1.741400900025135,tremor
14,9754260,0.136,-0.35868910855393465,-0.24691872473743087,0.8518620660974279,1.2894682380363705,10.291139834756304,-1.936281652799655,tremor
15,9754265,0.141,-0.36090704986307753,-0.24673673546571348,0.8536060819837638,1.0342384517923515,13.910436910437658,-2.150016247710446,tremor
16,9754270,0.146,-0.3634319366354523,-0.2465532600071488,0.8553996087266347,0.7472209834304238,17.863674994573834,-2.3826475685307815,tremor
17,9754296,0.172,-0.36628286251845704,-0.246374062315569,0.8572116765038216,0.4280228113575358,22.145358029927802,-2.634084374534304,tremor
18,9754301,0.177,-0.3694784226073469,-0.24620527371157444,0.8590087573379397,0.07643123168454637,26.747541871649588,-2.904094154887019,tremor
19,9754306,0.182,-0.37303654905638955,-0.24605334108143806,0.8607549150957482,-0.3075766540180405,31.659802742956344,-3.1922966668475574,tremor
20,9754315,0.191,-0.37697434501678617,-0.2459249712888779,0.862411980490186,-0.7238257614117579,36.86922726431153,-3.498158249394968,tremor
21,9754320,0.196,-0.38130791878835785,-0.24582707132710252,0.8639397526527803,-1.1719363072864908,42.36042524853981,-3.820987013297737,tremor
22,9754325,0.201,-0.3860522198508332,-0.24576668418439954,0.8652962273584969,-1.651318690909594,48.11556627528424,-4.159929020033671,tremor
23,9754330,0.206,-0.391220878381053,-0.24575092068866003,0.866437851068721,-2.161170093236167,54.11444084710036,-4.513965572211824,tremor
24,9754335,0.211,-0.39682604988210335,-0.24578688779711805,0.8673197993591666,-2.700472896919694,60.33454668298391,-4.8819117446804725,tremor
25,9754349,0.225,-0.4028782665974056,-0.24588161394456623,0.8678962778742761,-3.267995009651327,66.75120042167622,-5.262416287699214,tremor
26,9754358,0.234,-0.40938629742341787,-0.246041972177697,0.8681208436161675,-3.8622921489909037,73.33767468703829,-5.653963031936319,tremor
27,9754363,0.239,-0.4163570180460099,-0.24627460189575578,0.867946744088011,-4.481712118846964,80.06536011316543,-6.054873919747676,tremor
28,9754373,0.249,-0.4237952929921938,-0.24658583009199703,0.8673272715430105,-5.1244010773155155,86.90395154100634,-6.463313777212994,tremor
29,9754383,0.259,-0.43170387120163844,-0.24698159304610498,0.8662161293272914,-5.78831176361216,93.82165718505196,-6.877296925068766,tremor
30,9754388,0.264,-0.4400832965787654,-0.24746735945315304,0.8645678070426054,-6.471213618511619,100.78542913370774,-7.294695702254573,tremor
31,9754392,0.268,-0.44893183478902027,-0.248048055988512,0.8623379609941985,-7.170704697897315,107.76121309988335,-7.713250941948126,tremor
32,9754427,0.303,-0.45824541731796753,-0.2487279962996123,0.8594837961379652,-7.884225242830454,114.71421489619695,-8.130584396717163,tremor
33,9754432,0.308,-0.46801760352958016,-0.24951081438427866,0.8559644455139613,-8.609072733664854,121.60918070543619,-8.544213060166646,tremor
34,9754437,0.313,-0.4782395611631948,-0.25039940326159793,0.8517413429758485,-9.342418225721056,128.41068791300737,-8.951565285591863,tremor
35,9754442,0.318,-0.4889000654359147,-0.2513958597659958,0.846778584932501,-10.081323748769435,135.0834431366037,-9.349998568242787,tremor
36,9754447,0.323,-0.49998551671065056,-0.25250143620164817,0.8410432768392131,-10.82276055805131,141.59258415695038,-9.736818842331932,tremor
37,9754452,0.328,-0.511479976572821,-0.2537164994888437,0.8345058603214125,-11.563628048191125,147.90398267279915,-10.109301143084629,tremor
38,9754456,0.332,-0.5233652221277421,-0.2550404983246788,0.8271404170698933,-12.300773174141879,153.9845450856266,-10.46471148922572,tremor
39,9754461,0.337,-0.5356208183645347,-0.25647193877519553,0.8189249459878345,-13.031010256643654,159.80250879592765,-10.800329845468728,tremor
40,9754466,0.342,-0.5482242085015516,-0.258008368620302,0.8098416104700119,-13.751141078559396,165.32773172704438,-11.113474024294161,tremor
41,9754471,0.347,-0.5611508223001029,-0.2596463706895586,0.7998769531303767,-14.457975200086096,170.53197296328372,-11.401524378928169,tremor
42,9754480,0.356,-0.5743742023736181,-0.2613815653568308,0.7890220757449706,-15.148350432571439,175.389162479618,-11.661949122501959,tremor
43,9754485,0.361,-0.5878661484944094,-0.2632086223032059,0.7772727826233045,-15.819153409788251,179.87565793457063,-11.892330081435418,tremor
44,9754495,0.371,-0.6015968797763946,-0.26512128160636256,0.764629686041554,-16.46734018032219,183.9704863819214,-12.090388656271355,tremor
45,9754504,0.38,-0.6155352143579427,-0.2671123841644525,0.7510982727405924,-17.08995671520711,187.65556852293167,-12.254011723346027,tremor
46,9754509,0.385,-0.629648765799884,-0.2691739114055427,0.7366889307845091,-17.684159182700952,190.91592277398783,-12.38127716798016,tremor
47,9754514,0.39,-0.6439041548393619,-0.2712970341617819,0.7214169362681696,-18.247233790032915,193.73984598627905,-12.47047869546944,tremor
48,9754541,0.417,-0.6582672344103065,-0.27347217049494954,0.7053023994457477,-18.776615934391263,196.11906716446765,-12.520149519677622,tremor
49,9754546,0.422,-0.6727033249926304,-0.2756890521457109,0.6883701698407151,-19.26990834933545,198.04887006271468,-12.529084480122648,tremor
50,9754551,0.427,-0.6871774564595526,-0.27793679914682246,0.6706496998387157,-19.724897889233475,199.52818021228097,-12.49636009144066,tremor
51,9754565,0.441,-0.7016546117687956,-0.2802040019987543,0.652174866233518,-20.139570576079873,200.55961190781133,-12.421351994411348,tremor
52,9754570,0.446,-0.716099967212168,-0.28247881066393987,0.6329837492770317,-20.512124548820836,201.14947105778035,-12.303749265871499,tremor
53,9754580,0.456,-0.7304791235971396,-0.28474902950179964,0.6131183690468062,-20.840980607248483,201.30771060724163,-12.143565061368523,tremor
54,9754585,0.461,-0.7447583227442867,-0.28700221714937285,0.5926243794287245,-21.124790129147964,201.04783642111568,-11.941143111781146,tremor
55,9754589,0.465,-0.7589046440737782,-0.28922579026059975,0.5715507207222367,-21.362440255427558,200.3867629852383,-11.697159676341247,tremor
56,9754594,0.47,-0.7728861768141136,-0.29140712995772283,0.5499492327750647,-21.553056370468443,199.34461990701917,-11.41262067270432,tremor
57,9754599,0.475,-0.7866721644487,-0.29353368982206623,0.5278742315793382,-21.696002034389135,197.94451182465053,-11.088853860351492,tremor
58,9754608,0.484,-0.8002331193393464,-0.29559310425245794,0.5053820533366657,-21.790876630603442,196.21223583561124,-10.727496140706156,tremor
59,9754613,0.489,-0.813540906927887,-0.29757329603556587,0.482530571052115,-21.83751105943382,194.17596183383742,-10.330476239987915,tremor
60,9754618,0.494,-0.826568800400736,-0.29946258198814274,0.4593786896718639,-21.835961822747638,191.8658821012594,-9.899993231839584,tremor
61,9754633,0.509,-0.8392915080760653,-0.30124977553193494,0.4359858265566726,-21.786503796152957,189.31383703093982,-9.43849150305461,tremor
62,9754664,0.54,-0.8516851768944299,-0.3029242850386086,0.41241138460327265,-21.689621875765695,186.5529239086307,-8.948632839673891,tremor
63,9754673,0.549,-0.8637273760971744,-0.3044762067366021,0.38871422552147283,-21.546001535809975,183.61709528974208,-8.433266300172749,tremor
64,9754678,0.554,-0.8753970653052847,-0.3058964109207789,0.36495215061950365,-21.356518182617698,180.54075284496056,-7.895396457341132,tremor
65,9754688,0.564,-0.8866745507025624,-0.3071766201761258,0.3411813959960804,-21.12222509489303,177.35834187077674,-7.338150466326873,tremor
66,9754693,0.569,-0.8975414320132622,-0.3083094783483389,0.31745614842738773,-20.84433974565487,174.10395121748573,-6.764744303967816,tremor
67,9754698,0.574,-0.9079805417643312,-0.3092886090955238,0.2938280876512106,-20.524228422904084,170.8109232740846,-6.17844846459218,tremor
68,9754708,0.584,-0.9179758773113295,-0.31010866306303386,0.27034596032549246,-20.163389282963784,167.51147879001516,-5.582553403217515,tremor
69,9754717,0.593,-0.9275125255684886,-0.3107653530561406,0.24705519071801604,-19.763434235972113,164.23636154797902,-4.980335077549069,tremor
70,9754722,0.598,-0.9365765804338935,-0.3112554770387333,0.22399753311297477,-19.326070315595096,161.01450806874817,-4.375021029461663,tremor
71,9754727,0.603,-0.9451550534949666,-0.3115769293215606,0.20121077086937716,-18.85308136300261,157.87274749056994,-3.769757531730209,tremor
72,9754732,0.608,-0.9532357795737378,-0.31172870084815363,0.1787284668782353,-18.34631091843991,154.83553642945452,-3.167578377578171,tremor
73,9754737,0.613,-0.9608073197982744,-0.3117108699536535,0.15657976971488421,-17.807647157949425,151.9247329719637,-2.5713758952479195,tremor
74,9754742,0.618,-0.967858865929133,-0.3115245852859676,0.1347892790121456,-17.23901056184718,149.15941302720145,-1.9838747299246215,tremor
75,9754746,0.622,-0.9743801504230355,-0.31117204269159165,0.11337697249376034,-16.642344787002905,146.5557311475784,-1.407608861213945,tremor
76,9754751,0.627,-0.9803613670260959,-0.3106564577595525,0.092358195745038,-16.019610962441625,144.1268266953591,-0.844902224775706,tremor
77,9754761,0.637,-0.9857931064549456,-0.30998203538959845,0.07174371421577155,-15.372785357436385,141.88277495329785,-0.29785318678129025,tremor
78,9754786,0.662,-0.9906663109023727,-0.30915393723242895,0.05153982522428085,-14.703860105044438,139.83058152215915,0.23167701629250106,tremor
79,9754791,0.667,-0.994972249735683,-0.30817824720160264,0.03174852597611445,-14.014846433410222,137.974217208803,0.7420719043199256,tremor
80,9754796,0.672,-0.9987025170212611,-0.30706193458678027,0.012367732009340656,-13.307779704781856,136.3146897285715,1.2319636134310474,tremor
81,9754801,0.677,-1.0018490497425483,-0.3058128137494109,-0.006608460736607563,-12.584725525894397,134.85014808054316,1.700233257804815,tremor
82,9754805,0.681,-1.004404164165343,-0.30443949908013784,-0.025189477669498674,-11.847786277929078,133.5760154659889,2.1460081155162642,tremor
83,9754810,0.686,-1.0063606070123388,-0.3029513538927469,-0.043387938560389167,-11.099107583321564,132.48514702359233,2.568655970130043,tremor
84,9754815,0.691,-1.0077116180172743,-0.3013584321920652,-0.06121930874900927,-10.34088442810272,131.56800928792947,2.9677769205872173,tremor
85,9754829,0.705,-1.0084510009784207,-0.2996714127083344,-0.07870153455651652,-9.575366851821157,130.81287899841345,3.3431929359848365,tremor
86,9754844,0.72,-1.008573201489833,-0.29790152515045965,-0.09585466781742502,-8.804865276981293,130.20605958647357,3.6949353853446234,tremor
87,9754853,0.729,-1.0080733909014963,-0.29606046919821943,-0.11270048330838309,-8.031755655909047,129.7321142329476,4.02323072310416,tremor
88,9754858,0.734,-1.006947557464428,-0.29416032722171515,-0.12926209187433246,-7.258484648075071,129.37411467158066,4.328484471789701,tremor
89,9754863,0.739,-1.0051926067085462,-0.2922134719893066,-0.14556355140546023,-6.4875750011706295,129.11390479007275,4.611263628308887,tremor
90,9754873,0.749,-1.0028064735723294,-0.2902324706586823,-0.16162947760842603,-5.721631209588625,128.93237751049531,4.872277637377362,tremor
91,9754878,0.754,-0.9997882484952321,-0.2882299861671188,-0.17748465674844416,-4.963345389556205,128.80976249772445,5.112358123018511,tremor
92,9754882,0.758,-0.9961383186088942,-0.28621867682714364,-0.19315366313782473,-4.215503161579335,128.72592109642878,5.332437639635372,tremor
93,9754910,0.786,-0.9918585234467361,-0.2842110945903154,-0.20866048499495624,-3.4809891805233244,128.6606436849019,5.533527790558961,tremor
94,9754914,0.79,-0.9869523224296111,-0.28221958215282017,-0.2240281632545536,-2.762791816046971,128.5939435159102,5.716697154456452,tremor
95,9754919,0.795,-0.9814249690644039,-0.2802561689090318,-0.2392784487898985,-2.064006387623815,128.50634031849128,5.883049537049747,tremor
96,9754924,0.8,-0.975283684695608,-0.27833246575260007,-0.2544314840835076,-1.3878363313387898,128.37912673675825,6.033703093885231,tremor
97,9754929,0.805,-0.9685378231629876,-0.2764595588865831,-0.2695055154589786,-0.7375917378986145,128.1946112369272,6.169770823618464,tremor
98,9754938,0.814,-0.9611990170966461,-0.2746479031120237,-0.2845166414939484,-0.11668484225926987,127.93633232593292,6.292342813780414,tremor
99,9754948,0.824,-0.953281296903049,-0.2729072154740096,-0.29947860224701744,0.47137776906479456,127.5892405391237,6.402470464632928,tremor
100,9754953,0.829,-0.9448011747106194,-0.27124637059720064,-0.31440261261227553,1.0230062807707188,127.13984642820452,6.501152765242979,tremor
101,9754957,0.833,-0.9357776875127028,-0.26967329946881863,-0.32929724164754703,1.534542003840138,126.57633453021869,6.589324586317707,tremor
102,9754962,0.838,-0.9262323962524555,-0.26819489375154737,-0.3441683382689947,2.0022747823702858,125.88864486056114,6.667846902803095,tremor
103,9754967,0.843,-0.9161893403629874,-0.26681691787040984,-0.3590190023778832,2.422463244479014,125.06852470665083,6.737498854566696,tremor
104,9754972,0.848,-0.9056749500156308,-0.265543931085258,-0.37384959934080836,2.791357690784795,124.10955432335241,6.798971566700975,tremor
105,9754977,0.853,-0.894717920773206,-0.26437922153603566,-0.38865781480123557,3.105225416888264,123.00715053457631,6.852863656241761,tremor
106,9754982,0.858,-0.8833490572693611,-0.2633247538599183,-0.40343874606919283,3.360378257483621,121.75855225537973,6.899678341910252,tremor
107,9754986,0.862,-0.8716010937570506,-0.26238113147649705,-0.4181850258375241,3.553202116329952,120.36279160584638,6.939822059357746,tremor
108,9754992,0.868,-0.8595084997503761,-0.26154757408382895,-0.4328869737318368,3.680188208007055,118.82065363654765,6.973604486070406,tremor
109,9755006,0.882,-0.8471072784455401,-0.26082191037737157,-0.4475327712335839,3.7379656837184183,117.13462677166159,7.001239911664207,tremor
110,9755033,0.909,-0.8344347641554117,-0.26020058556714765,-0.46210865582117633,3.7233352496091054,115.30884495542304,7.022849949995101,tremor
111,9755038,0.914,-0.8215294227581693,-0.2596786829844977,-0.4765991307267374,3.6333033310148726,113.34902126819661,7.038467662074129,tremor
112,9755043,0.919,-0.8084306564484739,-0.2592499589645055,-0.49098718743534675,3.4651163188240797,111.26237168033285,7.0480432141182146,tremor
113,9755048,0.924,-0.7951786113704977,-0.258906890236546,-0.50525453883186,3.216294472722243,109.05752694046716,7.051451203517501,tremor
114,9755057,0.933,-0.781813984530497,-0.25864073317817377,-0.5193818615731257,2.884665136962328,106.74443057453797,7.0484997322273735,tremor
115,9755072,0.948,-0.7683778251111657,-0.25844159440030967,-0.5333490467074157,2.4683950091607376,104.3342215990766,7.038941200944833,tremor
116,9755077,0.953,-0.7549113251010374,-0.2582985121721868,-0.5471354577179224,1.9660212563681994,101.83910162932172,7.022484666429971,tremor
117,9755087,0.963,-0.7414555950029676,-0.2581995481339992,-0.5607201950270622,1.376481281367293,99.27218732538603,6.998809482645211,tremor
118,9755092,0.968,-0.7280514221571974,-0.2581318885823029,-0.5740823655959347,0.6991409099193505,96.64735031198113,6.967579859503047,tremor
119,9755097,0.973,-0.7147390116173113,-0.2580819543686435,-0.5872013556585224,-0.06617929112173436,93.97904761333125,6.928459928720887,tremor
120,9755116,0.992,-0.7015577121272821,-0.2580355181645446,-0.6000571039462081,-0.9191799284678578,91.28214613169655,6.88112889945499,tremor
121,9755120,0.996,-0.6885457320875226,-0.2579778275684819,-0.6126303721081107,-1.8590613596595849,88.57174473890117,6.825295911056781,tremor
122,9755125,1.001,-0.67573985203109,-0.25789373232402785,-0.6249030085470477,-2.884505395897506,85.86299720363193,6.760714242126467,tremor
123,9755162,1.038,-0.6631751407453845,-0.2577678138412341,-0.6368582016900682,-3.9936605692726594,83.17093855310254,6.687194603609824,tremor
124,9755182,1.058,-0.6508846817042914,-0.2575845152944378,-0.6484807188593024,-5.184131318760346,80.51031673855812,6.604617308470964,tremor
125,9755201,1.077,-0.6388993152386596,-0.25732827078011267,-0.6597571273456538,-6.452971338140734,77.89543089972334,6.512943147887206,tremor
126,9755206,1.082,-0.6272474005215566,-0.25698363227533083,-0.670675994831897,-7.796681244625969,75.33997735713749,6.412222803556443,tremor
127,9755211,1.087,-0.6159546006084361,-0.25653539335192027,-0.6812280667518409,-9.211210699823043,72.85690473240336,6.302604602530192,tremor
128,9755216,1.092,-0.6050436936532004,-0.25596870872965105,-0.6914064183936338,-10.691965130149317,70.45828003237197,6.184340405000999,tremor
129,9755225,1.101,-0.594534413738209,-0.25526920880436377,-0.7012065795814135,-12.233817214731594,68.15516778775039,6.05778942852721,tremor
130,9755230,1.106,-0.5844433250313975,-0.25442310830314385,-0.7106266297085104,-13.831123307615384,65.9575242507519,5.923419860311478,tremor
131,9755250,1.126,-0.5747837328175228,-0.2534173082411409,-0.7196672608721427,-15.477744928120341,63.87410826632782,5.781808190024596,tremor
132,9755254,1.13,-0.5655656341213254,-0.2522394904174165,-0.7283318069822134,-17.167075388470643,61.912409832254255,5.633636300986375,tremor
133,9755281,1.157,-0.5567957091251734,-0.25087820380759807,-0.7366262370628855,-18.892071536122437,60.078596650141414,5.479686470128619,tremor
134,9755286,1.162,-0.5484773525758985,-0.24932294238308095,-0.744559111565163,-20.645290480013617,58.377478258750536,5.32083452359195,tremor
135,9755290,1.166,-0.5406107422607019,-0.2475642140808979,-0.752141501327117,-22.418931062698395,56.812486776387665,5.158041453258726,tremor
136,9755295,1.171,-0.533192939878215,-0.24559360082428966,-0.7593868697594458,-24.204879753996426,55.385672985958216,4.992343807879593,tremor
137,9755305,1.181,-0.5262180186090714,-0.2434038096182393,-0.7663109197788882,-25.994760589537815,54.097716511799,4.824843133404541,tremor
138,9755310,1.186,-0.5196772115323427,-0.2409887148061424,-0.7729314078695029,-27.779988759301816,52.94794908608376,4.656694667658863,tremor
139,9755315,1.191,-0.5135590756334086,-0.23834339158485934,-0.7792679283772536,-29.551827456320943,51.93439025237771,4.489095417764391,tremor
140,9755324,1.2,-0.5078496672703661,-0.23546414085768116,-0.7853416717228964,-31.30144761060879,51.053795192636144,4.323271683433117,tremor
141,9755334,1.21,-0.5025327263450592,-0.23234850548064256,-0.7911751606495369,-33.01999014599992,50.30171462502464,4.160466044633223,tremor
142,9755339,1.215,-0.49758986780589637,-0.22899527794566993,-0.7967919689055758,-34.69863039732549,49.672566864132634,4.001923810110505,tremor
143,9755343,1.219,-0.49300078026099303,-0.22540449955751374,-0.8022164269038481,-36.328644302840836,49.15972213118682,3.848878924204565,tremor
144,9755353,1.229,-0.4887434322184012,-0.22157745120699687,-0.8074733188998919,-37.90147593688528,48.75559902910193,3.702539355044164,tremor
145,9755358,1.234,-0.4847942866949151,-0.21751663591971243,-0.812587576112529,-39.40880587246673,48.451772760560864,3.5640720387773,tremor
146,9755368,1.244,-0.48112852464317374,-0.2132257534578327,-0.817583970000091,-40.84261977066377,48.239094197870784,3.434587529524894,tremor
147,9755377,1.253,-0.4777202769126982,-0.20870966735815985,-0.8224868096529669,-42.195276491992516,48.10781835209848,3.3151245956976867,tremor
148,9755405,1.281,-0.47454286340753044,-0.2039743648854785,-0.8273196470231422,-43.45957492071201,48.047740181047814,3.206635098047163,tremor
149,9755409,1.285,-0.4715690368962053,-0.1990269104530309,-0.8321049935351336,-44.62881859303389,48.04833508843116,3.109969568337126,tremor
150,9755414,1.29,-0.4687712277779873,-0.19387539310277585,-0.8368640515405397,-45.69687713494112,48.098901005810376,3.0258639645925696,tremor
151,9755419,1.295,-0.46612178523967424,-0.1885288686437368,-0.8416164640861593,-46.65824345902585,48.188698727233565,2.954928097658307,tremor
152,9755429,1.305,-0.46359320982371083,-0.1829972970202745,-0.846380086525184,-47.50808565399173,48.30708723065028,2.897636200048716,tremor
153,9755434,1.31,-0.46115837252752023,-0.17729147543306606,-0.8511707835565935,-48.242292529438785,48.44365101799443,2.854320046547446,tremor
154,9755438,1.314,-0.45879071611013444,-0.17142296767751233,-0.856002255273013,-48.85751185159677,48.58831693860103,2.825164946640797,tremor
155,9755443,1.319,-0.45646443518482305,-0.16540403011142718,-0.8608858956815163,-49.351180420551884,48.7314584525534,2.810208821632837,tremor
156,9755448,1.324,-0.454154632807399,-0.1592475346289365,-0.865830686893966,-49.72154529121676,48.86398580593399,2.8093444620867007,tremor
157,9755453,1.329,-0.4518374525186578,-0.15296688901116035,-0.8708431317362931,-49.96767562036873,48.977421115357835,2.8223249399081483,tremor
158,9755463,1.339,-0.4494901860644231,-0.1465759550542839,-0.8759272268888166,-50.08946482141633,49.06395788826203,2.8487720283106404,tremor
159,9755468,1.344,-0.44709135820734963,-0.14008896494580894,-0.8810844778446887,-50.08762291953911,49.11650503106078,2.888187365724473,tremor
160,9755472,1.348,-0.44462079108311114,-0.13352043646818476,-0.8863139559724705,-49.96365921557897,49.1287159059764,2.939965990147518,tremor
161,9755482,1.358,-0.44205965137640857,-0.1268850877466756,-0.8916123968136305,-49.719855579947016,49.09500346884589,3.003411773233803,tremor
162,9755487,1.363,-0.4393904841557582,-0.12019775240812977,-0.8969743374756406,-49.35923089996209,49.01054293190065,3.077754205563973,tremor
163,9755492,1.368,-0.43659723749186613,-0.11347329615294098,-0.9023922896617771,-48.885497389305336,48.87126372444113,3.1621659353291425,tremor
164,9755502,1.378,-0.43366528199714577,-0.10672653583004757,-0.9078569436017302,-48.30300963370473,48.67383274403176,3.255780450240404,tremor
165,9755529,1.405,-0.4305814291821085,-0.09997216211110567,-0.913357397017974,-47.61670739146225,48.4156309695755,3.35770931792014,tremor
166,9755534,1.41,-0.42733395204598823,-0.09322466676469159,-0.9188814023881091,-46.832053286306625,48.09472541222999,3.4670584551972916,tremor
167,9755539,1.415,-0.4239126106037892,-0.08649827533636265,-0.9244156252509678,-45.95496660927973,47.70983809357235,3.5829429691141423,tremor
168,9755553,1.429,-0.4203086840819582,-0.07980688577189722,-0.9299459062489578,-44.99175446808782,47.26031329525623,3.7045001913249616,tremor
169,9755582,1.458,-0.4165150102959718,-0.07316401322311368,-0.9354575200318367,-43.949041483312044,46.746083819828954,3.830900605717126,tremor
170,9755592,1.468,-0.41252603134612376,-0.06658274099668572,-0.9409354249876374,-42.8336991524122,46.16763656806392,3.9613564434044553,tremor
171,9755596,1.472,-0.4083378434281771,-0.06007567738752541,-0.9463644988365749,-41.65277591522158,45.52597746072919,4.095127795622781,tremor
172,9755651,1.527,-0.4039482474849924,-0.05365491800868097,-0.9517297562203954,-40.413428873879454,44.82259560423138,4.231526190436632,tremor
173,9755661,1.537,-0.3993567967630806,-0.0473320132004373,-0.9570165454008029,-39.12285803862257,44.05942654247164,4.369915706100689,tremor
174,9755666,1.542,-0.39456483705717027,-0.041117940154971104,-0.9622107220141581,-37.78824387320496,43.23881439476023,4.509711836966648,tremor
175,9755671,1.547,-0.38957553540236073,-0.03502307948125187,-0.9672987985737294,-36.41668879424322,42.36347267360729,4.650378445806494,tremor
176,9755685,1.561,-0.38439389313127426,-0.029057195999534643,-0.9722680691401981,-35.01516314563999,41.43644366248339,4.791423196264941,tremor
177,9755690,1.566,-0.3790267395884225,-0.02322942355853429,-0.9771067093216053,-33.59045603567235,40.46105642366618,4.9323918599912115,tremor
178,9755695,1.571,-0.37348270346837226,-0.01754825360841251,-0.9818038524817082,-32.14913130026716,39.44088375441903,5.072861854594504,tremor
179,9755700,1.576,-0.3677721597529053,-0.012021527160040065,-0.9863496436687179,-30.697488747600705,38.379698655304544,5.212435310055631,tremor
180,9755710,1.586,-0.3619071515153307,-0.006656429644388637,-0.9907352732695908,-29.24153075141515,37.28143107332774,5.350731897135076,tremor
181,9755720,1.596,-0.355901287317345,-0.001459488083872017,-0.9949529927202909,-27.786934196225282,36.150125809359004,5.487381595532975,tremor
182,9755725,1.601,-0.34976961637813486,0.003563430073627177,-0.9989961147591846,-26.339027734624633,34.98990251494079,5.622017542906876,tremor
183,9755729,1.605,-0.34352848495485694,0.008407117104901702,-1.0028590007160099,-24.90277428617545,33.804918627682916,5.754269091382448,tremor
184,9755739,1.615,-0.33719537825797863,0.013067024712246429,-1.0065370372091174,-23.482758675086764,32.59933589574493,5.88375520146515,tremor
185,9755744,1.62,-0.3307887526115219,0.01753926368180582,-1.0100266044123847,-22.083180257397462,31.377290839494883,6.010078317137957,tremor
186,9755749,1.625,-0.3243278624166258,0.021820603680889367,-1.0133250377901482,-20.707850322370266,30.14286914566057,6.132818885179985,tremor
187,9755774,1.65,-0.3178325858231857,0.025908473111090825,-1.0164305849266881,-19.360193970353382,28.900083653521126,6.251530703622045,tremor
188,9755784,1.66,-0.31132325196889327,0.029800958666257895,-1.0193423588358472,-18.043256079066296,27.65285533547492,6.365737305316051,tremor
189,9755789,1.665,-0.30482047141140056,0.03349680401689099,-1.022060288953921,-16.759710884598228,26.404996546107167,6.474929595282787,tremor
190,9755794,1.67,-0.29834497024484646,0.03699540690107566,-1.0245850709044877,-15.511874637288601,25.160195844066426,6.578564953114536,tremor
191,9755813,1.689,-0.29191742763558753,0.040296813879685596,-1.026918116065874,-14.30172075787406,23.92200386371441,6.676067973318941,tremor
192,9755818,1.694,-0.2855583162789432,0.043401712113897886,-1.029061501941571,-13.130896918885856,22.69381996154049,6.766832944116571,tremor
193,9755823,1.699,-0.2792877455298209,0.0463114177167087,-1.031017924294257,-12.000743506109359,21.47887960134522,6.8502280670934015,tremor
194,9755827,1.703,-0.273125307525046,0.049027860468101966,-1.0327906519216687,-10.912312969337203,20.280242613308904,6.9256013125706355,tremor
195,9755837,1.713,-0.26708992728949,0.05155356491551999,-1.0343834848054414,-9.866389645363283,19.100782549194268,6.9922877065579785,tremor
196,9755847,1.723,-0.261199718433743,0.053891628068424006,-1.0358007161444451,-8.863509721947697,17.94317737473558,7.04961776893684,tremor
197,9755852,1.728,-0.2554718464944524,0.05604569401337199,-1.0370470984949072,-7.903981098788421,16.80990171379546,7.096926777468732,tremor
198,9755871,1.747,-0.24992240216355194,0.05801992581116477,-1.0381278138891188,-6.987902977755431,15.70322080310784,7.133564522019843,tremor
199,9755897,1.773,-0.24456628655282356,0.05981897499000166,-1.039048447409357,-6.115185068171041,14.62518624486385,7.15890523870603,tremor
200,9755902,1.778,-0.2394171102461797,0.061447948838687594,-1.0398149632916172,-5.2855663167706215,13.577633572647349,7.172357470294457,tremor
201,9755906,1.782,-0.23448710727233305,0.06291237557737586,-1.0404336822952893,-4.4986330665291545,12.562181583513091,7.17337367289074,tremor
202,9755926,1.802,-0.22978706441245556,0.06421816739807278,-1.0409112588893112,-3.7538365224458676,11.580233333285591,7.161459455977694,tremor
203,9755930,1.806,-0.22532626558265864,0.06537158136494878,-1.0412546568380727,-3.0505093705919086,10.6329786426862,7.1361823820830015,tremor
204,9755935,1.811,-0.2211124505105338,0.06637917824948389,-1.041471122025468,-2.387881376148968,9.721397931691376,7.097180257107135,tremor
205,9755940,1.816,-0.21715178662424062,0.06724777951821038,-1.041568151777008,-1.7650937910468794,8.846267206637108,7.044168820366992,tremor
206,9755949,1.825,-0.21344885301717165,0.06798442285057231,-1.0415534604443488,-1.181212439007409,8.008164071818488,6.976948709623788,tremor
207,9755954,1.83,-0.21000663552828655,0.06859631670768053,-1.0414349415224835,-0.6352394113978667,7.207474705108558,6.895411546942982,tremor
208,9755959,1.835,-0.2068265323387108,0.06909079457765964,-1.041220627007448,-0.12612338832152004,6.44440179428759,6.79954497803755,tremor
209,9755969,1.845,-0.20390836995372572,0.06947526957627655,-1.0409186450131906,0.34723132057109374,5.718973450591009,6.689436503655008,tremor
210,9755974,1.85,-0.20125042992622175,0.06975719007556788,-1.0405371768073808,0.7859568570288682,5.031053088161578,6.5652759614683776,tremor
211,9755979,1.855,-0.1988494870873598,0.06994399696948445,-1.0400844143795163,1.1912148211270144,4.380350192905449,6.427356544144678,tremor
212,9755983,1.859,-0.1967008602898244,0.07004308307495262,-1.0395685194327473,1.564190002217681,3.7664318262379117,6.276074271353724,tremor
213,9755988,1.864,-0.19479847666719388,0.07006175502801402,-1.038997584333051,1.906084653906956,3.1887346452701615,6.1119258726257835,tremor
214,9755993,1.869,-0.19313495014167315,0.0700071978908327,-1.0383795951156418,2.218113174616438,2.6465771914067884,5.935505087364065,tremor
215,9756019,1.895,-0.19170167439602384,0.0698864425592285,-1.0377223962088618,2.5014971060257034,2.1391722128478445,5.74749744889366,tremor
216,9756034,1.91,-0.190488929833769,0.06970633597177196,-1.037033656164649,2.7574604132739076,1.66563883453877,5.548673687717821,tremor
217,9756044,1.92,-0.18948600329108692,0.06947351408473942,-1.036320833461695,2.98722505883909,1.2250144418814402,5.339881955081694,tremor
218,9756048,1.924,-0.18868131856074274,0.06919437759648847,-1.0355911414469998,3.192006924411865,0.8162661658446639,5.122039115509929,tremor
219,9756053,1.929,-0.18806257524982928,0.06887507046755391,-1.0348515117367412,3.3730121680467637,0.4383018382442631,4.896121372283609,tremor
220,9756058,1.934,-0.18761689316603228,0.06852146136071287,-1.034108555867823,3.5314341203656783,0.08998025884316463,4.6631544715432165,tremor
221,9756067,1.943,-0.18733095929917862,0.0681391281862275,-1.0333685255777727,3.6684508168551457,-0.2298793780119717,4.424203691498318,tremor
222,9756077,1.953,-0.18719117450040398,0.06773334595799636,-1.032637272680472,3.785223232028353,-0.522488996847227,4.180363780250648,tremor
223,9756082,1.958,-0.18718379713179195,0.06730907813531847,-1.0319202100029634,3.882894231663028,-0.7890841130740446,3.9327489705388428,tremor
224,9756087,1.963,-0.18729508124597863,0.0668709715411514,-1.0312222751795583,3.962588203250576,-1.0309172022338384,3.682483174733655,tremor
225,9756092,1.968,-0.1875114072360526,0.06642335481821457,-1.0305478992139394,4.025411274283197,-1.249251850482314,3.430690444550645,tremor
226,9756097,1.973,-0.18781940333614305,0.06597024022395448,-1.0299009816048725,4.072451990232521,-1.4453575487240595,3.178485761896818,tremor
227,9756102,1.978,-0.188206056806725,0.06551532839439381,-1.0292848735119862,4.104782300144424,-1.6205049967189875,2.9269662078091954,tremor
228,9756111,1.987,-0.18865881406014065,0.06506201554662167,-1.0287023699646969,4.123458685760273,-1.7759617988623992,2.677202537083791,tremor
229,9756116,1.992,-0.18916566933484372,0.06461340246056756,-1.028155711548359,4.129523268138919,-1.9129884487248856,2.430231170408281,tremor
230,9756140,2.016,-0.1897152417892633,0.06417230450232114,-1.0276465953989715,4.124004732786345,-2.032834509065698,2.187046607340899,tremor
231,9756145,2.021,-0.19029684105295624,0.06374126194119423,-1.027176194767528,4.107918929172998,-2.13673489775585,1.9485942647596715,tremor
232,9756149,2.025,-0.19090052135899682,0.06332254988078614,-1.026745185945114,4.082269021923858,-2.2259061931175115,1.7157637558393815,tremor
233,9756154,2.03,-0.19151712441973356,0.06291818726573938,-1.0263537810269325,4.048045097838205,-2.301542882912391,1.489382640354617,tremor
234,9756159,2.035,-0.19213831123423536,0.06252994462080978,-1.0260017648653652,4.006223164165445,-2.3648135051654706,1.2702106933133377,tremor
235,9756164,2.04,-0.1927565830538924,0.06215935039923969,-1.0256885346076214,3.95776350735245,-2.416856664623184,1.0589347521846793,tremor
236,9756169,2.045,-0.19336529178959952,0.06180769603428498,-1.0254131403912161,3.903608415239795,-2.4587769488039446,0.8561642117697489,tremor
237,9756174,2.05,-0.1939586402159288,0.061476039974853826,-1.0251743260291213,3.8446792972842716,-2.4916408044788176,0.6624272397291546,tremor
238,9756178,2.054,-0.19453167240805322,0.06116521112326549,-1.024970568809226,3.7818732655650806,-2.5164724634662097,0.47816778533304477,tremor
239,9756183,2.059,-0.19508025493034578,0.06087581217137657,-1.0248001178226742,3.7160592632468554,-2.5342500229720706,0.30374344994951397,tremor
240,9756188,2.064,-0.19560104937823888,0.060608223355075784,-1.024661030496079,3.648073846002995,-2.545901789829833,0.13942428061816492,tremor
241,9756193,2.069,-0.1960914769562267,0.06036260712708226,-1.0245512072166016,3.578716734974767,-2.5523029912135704,-0.01460746253323875,tremor
242,9756198,2.074,-0.19654967585599623,0.060138914193540775,-1.024468424097304,3.508746267141929,-2.5542729389104015,-0.15825652881097618,tremor
243,9756217,2.093,-0.19697445228195748,0.05993689127804321,-1.0244103640301156,3.4388748716634066,-2.5525727121731623,-0.2915128715340107,tremor
244,9756227,2.103,-0.19736522605930842,0.05975609087441737,-1.0243746462175003,3.3697647007166034,-2.5479033982614214,-0.4144488180042013,tremor
245,9756262,2.138,-0.1977219718525537,0.05959588313587317,-1.0243588543692175,3.3020235418057537,-2.540904905270178,-0.527215241350603,tremor
246,9756267,2.143,-0.19804515711473356,0.05945546993376181,-1.0243605637108026,3.236201134952753,-2.5321553457119688,-0.6300367851913415,tremor
247,9756281,2.157,-0.1983356779652177,0.059333901014769895,-1.0243773668921965,3.172786011215542,-2.5221709850566425,-0.7232062169974511,tremor
248,9756286,2.162,-0.19859479423625467,0.05923009209747558,-1.0244068988228257,3.1122029576450965,-2.5114067533593007,-0.8070780096467353,tremor
249,9756291,2.167,-0.198824064919153,0.059142844679054854,-1.0244468604005832,3.054811198292073,-2.5002573224681885,-0.8820612703315743,tremor
250,9756295,2.171,-0.1990252851772123,0.05907086726788751,-1.0244950410465261,3.000903362342891,-2.489058750242105,-0.9486121496150242,tremor
251,9756300,2.176,-0.19920042598434318,0.05901279771413802,-1.0245493399021928,2.95070529044152,-2.478090685214894,-1.0072258704408168,tremor
252,9756305,2.181,-0.1993515773102255,0.05896722627507451,-1.0246077854919016,2.9043767102143803,-2.467579111961076,-1.058428518393646,tremor
253,9756310,2.186,-0.19948089561734134,0.058932719023085355,-1.0246685536011464,2.8620127928910564,-2.457699602212349,-1.1027687325778008,tremor
254,9756325,2.201,-0.1995905562711892,0.058907841181105064,-1.0247299830789545,2.823646584822945,-2.448581022642446,-1.140809433073693,tremor
255,9756329,2.205,-0.1996827112987107,0.05889117995222834,-1.0247905892419111,2.7892522903697685,-2.4403096390165997,-1.1731197169094894,tremor
256,9756334,2.21,-0.19975945276655774,0.05888136639820473,-1.0248490745455627,2.7587493659994315,-2.432933548143805,-1.2002670497935628,tremor
257,9756339,2.215,-0.19982278189630662,0.058877095916611916,-1.0249043361995531,2.7320073696427145,-2.426467362429883,-1.222809875184805,tremor
258,9756344,2.22,-0.19987458389637125,0.058877146870636374,-1.024955470438532,2.7088514940865087,-2.420897065249565,-1.2412907551978087,tremor
259,9756348,2.224,-0.19991660837796887,0.058880396940327276,-1.0250017732203884,2.6890686977620395,-2.416184948328658,-1.2562301486183776,tremor
260,9756353,2.229,-0.19995045513607435,0.05888583679133909,-1.0250427372023116,2.6724143302522303,-2.4122745357900515,-1.2681209193376872,tremor
261,9756358,2.234,-0.19997756500856087,0.05889258069759181,-1.025078044937976,2.658619133732848,-2.4090953951529674,-1.2774236541549404,tremor
