sample,t_ms,t_s,ax,ay,az,gx,gy,gz,tremor
0,9498197,0.0,0.09876294601122046,-0.22282199822846524,0.8908963394892471,-0.8217686244453449,-2.1398496311938486,-0.1862138064102336,no_tremor
1,9498202,0.005,0.09860692108859125,-0.22275503989109854,0.8910299460731476,-0.7481059066163473,-2.130540879292777,-0.24751804623532914,no_tremor
2,9498207,0.01,0.09839102582376356,-0.22266597324435006,0.8912176094542805,-0.6753770068373093,-2.1178600091091067,-0.31478832985861294,no_tremor
3,9498212,0.015,0.09811004789516019,-0.2225549364896282,0.8914659589760239,-0.6038655028909291,-2.1008155067146204,-0.38789751726479155,no_tremor
4,9498221,0.024,0.09776957914864245,-0.22242660086702773,0.8917725290478804,-0.5338424716499194,-2.078371771264694,-0.46666639017469796,no_tremor
5,9498226,0.029,0.09738091112525732,-0.2222875475088426,0.8921297376836111,-0.46556386749523826,-2.049457709092206,-0.5508622591859047,no_tremor
6,9498231,0.034,0.09695628487067148,-0.2221441546745175,0.8925288081505465,-0.39926813620368196,-2.0129763671199443,-0.6401979330945664,no_tremor
7,9498236,0.039,0.09650636087332701,-0.22200162621546413,0.8929619485066588,-0.33517410585571666,-1.9678155675314168,-0.734331078449954,no_tremor
8,9498241,0.044,0.0960394384844427,-0.221863810191879,0.8934230877206376,-0.27347919033962265,-1.9128594912727357,-0.832863996177766,no_tremor
9,9498246,0.049,0.09556158154593238,-0.22173337825911704,0.8939078332557113,-0.21435793401612008,-1.8470011463845588,-0.9353438405436934,no_tremor
10,9498250,0.053,0.09507706107916426,-0.22161209954482552,0.8944131366458229,-0.1579609181246867,-1.769155647429421,-1.0412633038357895,no_tremor
11,9498255,0.058,0.09458882403208528,-0.22150109184430564,0.8949369169027712,-0.1044140411673737,-1.6782742239031185,-1.1500617879501736,no_tremor
12,9498265,0.068,0.0940988829034567,-0.22140101637291762,0.8954777378214648,-0.05381817736877202,-1.5733588685152873,-1.2611270812429747,no_tremor
13,9498275,0.078,0.09360860850891126,-0.2213122175370434,0.896034560190229,-0.006249209391535338,-1.4534775304808885,-1.3737975550171917,no_tremor
14,9498279,0.082,0.09311894008066497,-0.2212348197471003,0.8966065609443044,0.03824157659523316,-1.3177797533407178,-1.4873648886863735,no_tremor
15,9498284,0.087,0.0926305337828537,-0.22116879382072535,0.8971930038460384,0.07962675373570798,-1.1655126491472596,-1.6010773263958713,no_tremor
16,9498294,0.097,0.09214386844614612,-0.22111400297082925,0.8977931471110168,0.1179017034507676,-0.9960370892094293,-1.7141434610223611,no_tremor
17,9498323,0.126,0.0916593227871891,-0.22107023548699223,0.8984061765780488,0.15308328562410306,-0.8088439757290539,-1.8257365337754483,no_tremor
18,9498328,0.131,0.09117723410993094,-0.2210372288513656,0.8990311562589104,0.1852082702574642,-0.6035704402706547,-1.9349992287883528,no_tremor
19,9498333,0.136,0.09069794516237595,-0.22101468830670642,0.8996669907170645,0.21433157446178663,-0.380015797175563,-2.041048932833526,no_tremor
20,9498343,0.146,0.09022184344199566,-0.2210023017136929,0.9003123956405656,0.24052435097802732,-0.13815706596424498,-2.142983422572619,no_tremor
21,9498353,0.156,0.08974939561350764,-0.22099975175803185,0.900965874310199,0.2638719754761578,0.12183613207676244,-2.239886937291321,no_tremor
22,9498367,0.17,0.08928117861753962,-0.221006726074258,0.9016256985665138,0.2844719795409098,0.3995875024584569,-2.3308365939510085,no_tremor
23,9498372,0.175,0.08881790833818762,-0.22102292555091752,0.9022898934748342,0.30243197452846005,0.6945010325513277,-2.4149091022743066,no_tremor
24,9498377,0.18,0.08836046623569112,-0.22104807090605863,0.9029562252713964,0.3178676085041358,1.0057491752647776,-2.491187739097043,no_tremor
25,9498382,0.185,0.08790992404919973,-0.22108190752849508,0.903622192415822,0.33090059430681223,1.3322624637438834,-2.558769542759965,no_tremor
26,9498391,0.194,0.0874675664752447,-0.2211242085399087,0.9042850197241209,0.3416568414133161,1.6727207596736144,-2.616772689994725,no_tremor
27,9498396,0.199,0.08703491159302316,-0.22117477602639207,0.9049416556457358,0.35026471785833246,2.025546337630193,-2.664344019967929,no_tremor
28,9498401,0.204,0.08661372871563243,-0.22123344040314913,0.9055887727998884,0.35685346164464915,2.388899006460859,-2.700666672910489,no_tremor
29,9498406,0.209,0.08620605328398524,-0.22130005790480212,0.9062227719147833,0.36155175489598457,2.760673464744962,-2.7249678134722495,no_tremor
30,9498411,0.214,0.08581419838006014,-0.22137450623084703,0.906839789326788,0.364486469134081,3.1384990804019504,-2.7365264108677794,no_tremor
31,9498416,0.219,0.08544076241460787,-0.22145667841764846,0.9074357082004806,0.3657815861156826,3.519742274671291,-2.734681048588887,no_tremor
32,9498441,0.244,0.08508863253964265,-0.2215464750523858,0.9080061736269218,0.36555729467913384,3.9015116783441335,-2.7188377355405393,no_tremor
33,9498446,0.249,0.08476098334735364,-0.22164379498849618,0.9085466117475652,0.36392925964970446,4.280666213345212,-2.6884776874504963,no_tremor
34,9498451,0.254,0.08446127044455307,-0.2217485247643919,0.9090522530348245,0.3610080545648446,4.653826235974988,-2.6431650425200446,no_tremor
35,9498460,0.263,0.08419321853546552,-0.2218605269653184,0.9095181598368558,0.35689874650255765,5.017387860577924,-2.5825544696427403,no_tremor
36,9498465,0.268,0.0839608037041535,-0.22197962779999583,0.9099392582630459,0.3517006189314256,5.367540565265149,-2.506398622389392,no_tremor
37,9498470,0.273,0.0837682296573676,-0.22210560418761868,0.9103103744481611,0.3455070173321249,5.700288164529652,-2.4145553883495037,no_tremor
38,9498480,0.283,0.08361989776363406,-0.22223817066614296,0.9106262751880106,0.33840530238829836,6.0114732160501845,-2.306994882216661,no_tremor
39,9498485,0.288,0.08352037079976293,-0.22237696643949897,0.9108817128891212,0.33047689649844536,6.296804909498254,-2.1838061323401607,no_tremor
40,9498490,0.293,0.08347433038835761,-0.22252154287991258,0.9110714747207209,0.32179741060386824,6.551890462864616,-2.0452034129153134,no_tremor
41,9498494,0.297,0.08348652817826337,-0.22267135179287448,0.911190435800727,0.31243683941018574,6.772270025966564,-1.891532175464969,no_tremor
42,9498499,0.302,0.08356173088493854,-0.22282573473773973,0.9112336161898184,0.30245981373127057,6.953455060820837,-1.7232745328555599,no_tremor
43,9498504,0.307,0.08370465937123753,-0.22298391367774476,0.9111962414103165,0.2919258984470056,7.090970134453972,-1.5410542473171085,no_tremor
44,9498509,0.312,0.08391992201314272,-0.2231449832104506,0.9110738061506272,0.28088992309074495,7.180398022029135,-1.3456411714122127,no_tremor
45,9498514,0.317,0.08421194266143602,-0.22330790460395314,0.9108621407624552,0.2694023298906583,7.217427977569884,-1.1379550876050826,no_tremor
46,9498528,0.331,0.08458488358051376,-0.2234715018359769,0.9105574801079375,0.2575095224618053,7.197906986733693,-0.9190688880766386,no_tremor
47,9498533,0.336,0.08504256382023528,-0.22363445980224916,0.910156534268153,0.2452541981658747,7.117893772123013,-0.690211032319927,no_tremor
48,9498538,0.341,0.0855883735558936,-0.22379532482732076,0.9096565605837956,0.23267564820717251,6.973715277961612,-0.45276721631237643,no_tremor
49,9498563,0.366,0.08622518501438549,-0.2239525075754001,0.9090554364631527,0.21981001113415438,6.762025318566045,-0.2082811836531375,no_tremor
50,9498568,0.371,0.08695526068962423,-0.22410428842128133,0.9083517323609791,0.2066904672860565,6.479865033903388,0.04154539395054042,no_tremor
51,9498573,0.376,0.08778015963388969,-0.22424882530295295,0.9075447843022206,0.1933473639576346,6.124724755241885,0.2948540415834054,no_tremor
52,9498582,0.385,0.08870064268969363,-0.22438416403909808,0.9066347652938872,0.1798082636866032,5.694606844431404,0.5496316872137063,no_tremor
53,9498587,0.39,0.08971657759469359,-0.22450825105751712,0.9056227549344146,0.16609791093206805,5.188089032107212,0.8037140252221063,no_tremor
54,9498592,0.395,0.09082684494788709,-0.22461894844536134,0.9045108064925607,0.15223811506929844,4.604387743593112,1.0547901136366276,no_tremor
55,9498597,0.4,0.09202924606851057,-0.22471405119962323,0.9033020106894825,0.13824754941519724,3.9434208669126116,1.300408280498621,no_tremor
56,9498606,0.409,0.09332041381065012,-0.22479130652720655,0.902000555381361,0.1241414665208929,3.2058693855728806,1.5379834125616725,no_tremor
57,9498611,0.414,0.09469572741766083,-0.2248484350186,0.9006117803085134,0.1099313294714537,2.393237270317132,1.7648056957308484,no_tremor
58,9498616,0.419,0.09614923251196228,-0.22488315349793797,0.8991422260519507,0.09562435815723691,1.5079089996552175,1.9780508709209004,no_tremor
59,9498621,0.424,0.09767356731810709,-0.2248931993349365,0.8975996763201648,0.08122298929183504,0.5532040594697318,2.1747920605744655,no_tremor
60,9498625,0.428,0.09925989621027603,-0.22487635599042502,0.8959931926770919,0.06672424975954831,-0.4665722421148835,2.352013209406662,no_tremor
61,9498630,0.433,0.10089785165936944,-0.22483047955633678,0.8943331408158605,0.05211904400302105,-1.5460823169363769,2.5066241682306627,no_tremor
62,9498635,0.438,0.10257548562944806,-0.2247535260424315,0.892631207481387,0.037391356252513115,-2.6789148713959956,2.635477432436206,no_tremor
63,9498645,0.448,0.10427923143831798,-0.22464357915523916,0.8909004071477941,0.02251736691243092,-3.8575491863744045,2.7353865269706064,no_tremor
64,9498655,0.458,0.10599387705253983,-0.22449887830963675,0.8891550775643603,0.007464480255599851,-5.073325767623789,2.8031460074412333,no_tremor
65,9498659,0.462,0.10770255073314586,-0.22431784661044468,0.887410863297696,-0.007809741203451761,-6.316424018399797,2.835553022518336,no_tremor
66,9498685,0.488,0.1093867198850403,-0.22409911854122902,0.8856846864210355,-0.023358741741619005,-7.575847566416753,2.829430357048732,no_tremor
67,9498690,0.493,0.1110262038906804,-0.22384156710092948,0.8839947035383778,-0.039248244711126354,-8.839417850717368,2.781650849227187,no_tremor
68,9498695,0.498,0.11259920162751276,-0.22354433013617891,0.8823602483868355,-0.055557641811205136,-10.093776540903436,2.6891630493035747,no_tremor
69,9498700,0.503,0.11408233427914845,-0.2232068356273078,0.8808017593393506,-0.07238151004599384,-11.324397322114343,2.549017961497758,no_tremor
70,9498704,0.507,0.1154507039527108,-0.22282882569732154,0.8793406912337437,-0.08983126616944341,-12.515607534499654,2.3583966851181,no_tremor
71,9498709,0.512,0.11667796850930053,-0.2224103791239942,0.8779994110811945,-0.10803696566282855,-13.650620104987178,2.114638746174134,no_tremor
72,9498719,0.522,0.11773643290108844,-0.2219519321447574,0.8768010773534034,-0.1271492495358677,-14.711576150778148,1.815270888114091,no_tremor
73,9498724,0.527,0.1185971571872338,-0.22145429735214556,0.8757695027077189,-0.147341438434194,-15.679598567835487,1.458036070298671,no_tremor
74,9498729,0.532,0.11923008127185249,-0.2209186804844758,0.8749290001787515,-0.16881176992602154,-16.53485684425653,1.0409224055233242,no_tremor
75,9498733,0.536,0.11960416627091705,-0.2203466949225421,0.8743042130395268,-0.19178577092905427,-17.256643258408975,0.5621917529582895,no_tremor
76,9498738,0.541,0.11968755227153044,-0.21974037370857838,0.8739199287120477,-0.21651875230939976,-17.823460534600812,0.020407669474770202,no_tremor
77,9498743,0.546,0.11944773209670224,-0.2191021789085723,0.8738008772842758,-0.24329840638928352,-18.21312093373023,-0.5855375901407871,no_tremor
78,9498748,0.551,0.11885174053177867,-0.21843500814305114,0.8739715153670209,-0.2724474809036176,-18.40285665248041,-1.2563973445942638,no_tremor
79,9498753,0.556,0.11786635830530502,-0.2177421981145737,0.8744557961997117,-0.3043264961101346,-18.369441293217243,-1.9925463577352576,no_tremor
80,9498758,0.561,0.11645832994785094,-0.21702752496239247,0.8752769270884585,-0.33933646658668376,-18.0893220493469,-2.7939586430694954,no_tremor
81,9498762,0.565,0.11459459447830268,-0.2162952012764491,0.8764571154331796,-0.3779215861650664,-17.538762128780096,-3.660187533227177,no_tremor
82,9498767,0.57,0.11224252769028523,-0.21554986960473926,0.878017304772637,-0.42057183275228077,-16.693992812683486,-4.590348341498357,no_tremor
83,9498772,0.575,0.10937019463456284,-0.2147965922910738,0.8799769024464559,-0.46782544822531535,-15.531374419901965,-5.583103933153851,no_tremor
84,9498777,0.58,0.10594661071998022,-0.2140408374854352,0.8823535006406167,-0.5202712463069245,-14.027565322035123,-6.636653510466275,no_tremor
85,9498782,0.585,0.1019420096896338,-0.21328846117755196,0.8851625927460595,-0.5785506985021691,-12.159698032907126,-7.748724897200674,no_tremor
86,9498807,0.61,0.09732811657450756,-0.21254568511702074,0.8884172871170521,-0.6433597456648965,-9.905561281050264,-8.916570585860331,no_tremor
87,9498812,0.615,0.09207842358743112,-0.21181907050128032,0.8921280204645194,-0.715450281251559,-7.243786865869,-10.136967783865762,no_tremor
88,9498821,0.624,0.08616846679850508,-0.2111154873369514,0.8963022732570074,-0.7956312518347548,-4.154039998039682,-11.406222662986071,no_tremor
89,9498836,0.639,0.07957610133009674,-0.21044207941130247,0.9009442896255806,-0.8847693205967084,-0.6172117332071901,-12.72017898051894,no_tremor
90,9498841,0.644,0.07228177272476233,-0.20980622484917627,0.906054804375986,-0.9837890398419269,3.3843879738426983,-14.074231202430601,no_tremor
91,9498846,0.649,0.06426878207192059,-0.20921549227615674,0.91163077979948,-1.093672478742674,7.866838138305432,-15.463342219184636,no_tremor
92,9498850,0.653,0.05552354242785951,-0.20867759266009575,0.9176651550407758,-1.215458252591091,12.844417139652066,-16.882065704798976,no_tremor
93,9498855,0.658,0.04603582402917976,-0.2082003269593443,0.9241466108256857,-1.3502399001524266,18.32941728562199,-18.324573128359592,no_tremor
94,9498860,0.663,0.0357989857849075,-0.20779152976633064,0.9310593523700996,-1.4991635567639618,24.331965214787992,-19.78468538354184,no_tremor
95,9498865,0.668,0.024810190542039444,-0.20745900919875415,0.9383829132838019,-1.6634248730491892,30.859849810272944,-21.25590895434271,no_tremor
96,9498870,0.673,0.013070601658511103,-0.20721048335670017,0.9460919832457074,-1.8442651330086108,37.918359278509826,-22.731476483690322,no_tremor
97,9498879,0.682,0.0005855584910352575,-0.20705351373113365,0.9541562621610632,-2.042966531335141,45.5101290046427,-24.204391555818297,no_tremor
98,9498884,0.687,-0.012635271484204458,-0.20699543601574802,0.962540343417481,-2.26084657856488,53.63500173060756,-25.66747744292408,no_tremor
99,9498889,0.692,-0.02657776605201065,-0.20704328883794376,0.9712036287388127,-2.499251614520048,62.28990151669959,-27.11342950141772,no_tremor
100,9498894,0.697,-0.04122324909016484,-0.2072037409836721,0.9801002769985523,-2.7595494255641246,71.4687228493625,-28.53487083389543,no_tremor
101,9498899,0.702,-0.05654842058653882,-0.2074830177433202,0.9891791892016838,-3.0431209787116944,81.16223615394577,-29.92441076173043,no_tremor
102,9498904,0.707,-0.07252531732623708,-0.20788682705079545,0.998384031677101,-3.3513513035039195,91.3580108642517,-31.27470558139468,no_tremor
103,9498930,0.733,-0.08912130545408031,-0.208420286125266,1.0076532993399232,-3.685619567958092,102.04035708952088,-32.578521005978565,no_tremor
104,9498935,0.738,-0.10629910581278938,-0.20908784935487415,1.0169204206791678,-4.047288405747838,113.19028680449452,-33.828795623609224,no_tremor
105,9498940,0.743,-0.12401685264489828,-0.20989323818475036,1.0261139058932618,-4.437692557612336,124.78549537968529,-35.0187046421076,no_tremor
106,9498945,0.748,-0.1422281859576838,-0.21083937378871806,1.035157539323529,-4.85812689197738,136.800364184395,-36.14172314248124,no_tremor
107,9498950,0.753,-0.16088237761419644,-0.21192831331620485,1.0439706170149767,-5.309833870223603,149.2059849413071,-37.19168803784539,no_tremor
108,9498955,0.758,-0.17992449103781888,-0.21316119051383595,1.0524682298610923,-5.793990523493965,161.97020647431057,-38.162857927312494,no_tremor
109,9498960,0.763,-0.19929557428780295,-0.2145381615252703,1.0605615923697576,-6.311695011840844,175.0577044465979,-39.0499700406152,no_tremor
110,9498965,0.768,-0.21893288615572917,-0.2160583566728662,1.0681584166325886,-6.863952842793486,188.43007461751702,-39.84829348451742,no_tremor
111,9498970,0.773,-0.23877015482892247,-0.21771983902013956,1.0751633306054451,-7.451662834242035,202.04595004811728,-40.55367802574049,no_tremor
112,9498975,0.778,-0.2587378685542483,-0.21951957050374665,1.0814783393291727,-8.075602915137857,215.86114255587248,-41.16259767903127,no_tremor
113,9498980,0.783,-0.2787635976057861,-0.22145338640658957,1.0870033272508137,-8.736415866285537,229.82880856001236,-41.67218841509002,no_tremor
114,9498984,0.787,-0.29877234670577607,-0.2235159789180372,1.0916365993580874,-9.434595111539208,243.8996392727247,-42.08027936113662,no_tremor
115,9498994,0.797,-0.3186869368650213,-0.22570089049135172,1.0952754584230868,-10.170470675908689,258.0220749792873,-42.38541693479853,no_tremor
116,9499004,0.807,-0.3384284153947061,-0.22800051766008372,1.0978168152711778,-10.94419543105718,272.14254291098104,-42.58688142824465,no_tremor
117,9499009,0.812,-0.3579164925983347,-0.2304061259119382,1.099157828650134,-11.755731751414062,286.2057179498752,-42.68469564454608,no_tremor
118,9499014,0.817,-0.3770700033849083,-0.2329078761376549,1.0991965709689802,-12.604838707189492,300.1548051225126,-42.679625283739604,no_tremor
119,9499019,0.822,-0.39580739175588087,-0.23549486307129777,1.0978327158965182,-13.491059924758506,313.93184255087084,-42.573170883240934,no_tremor
120,9499023,0.826,-0.4140472158064962,-0.2381551660154633,1.0949682435434103,-14.413712249798106,327.4780232366947,-42.36755123570301,no_tremor
121,9499056,0.859,-0.43170867053886935,-0.24087591199994957,1.090508158686612,-15.371875352981055,340.7340337526076,-42.065678334918594,no_tremor
122,9499061,0.864,-0.4487121254040301,-0.24364335135603138,1.0843612172215753,-16.36438242025385,353.64040759842237,-41.67112403411763,no_tremor
123,9499066,0.869,-0.4649796730823719,-0.24644294550216228,1.0764406557409338,-17.389812068096525,366.13789067566734,-41.18807873869258,no_tremor
124,9499071,0.874,-0.480435685605606,-0.2492594665330846,1.0666649188390183,-18.446481617502666,378.16781607889556,-40.62130259465795,no_tremor
125,9499076,0.879,-0.49500737355386226,-0.25207710798616023,1.054958378437616,-19.532441847845796,389.6724852259933,-39.97606977174212,no_tremor
126,9499081,0.884,-0.5086253437499839,-0.2548796059297144,1.0412520391364954,-20.64547333233914,400.595552240365,-39.258106572361704,no_tremor
127,9499100,0.903,-0.5212241506198431,-0.2576503692820199,1.0254842233347161,-21.783084429758258,410.882408423287,-38.473524222428075,no_tremor
128,9499105,0.908,-0.5327428361849078,-0.2603726180316392,1.0076012296701249,-22.94251097368917,420.4805635947202,-37.628747314922144,no_tremor
129,9499114,0.917,-0.5431254534998525,-0.26302952780015354,0.9875579582076162,-24.12071766582998,429.3400210407319,-36.73043897761123,no_tremor
130,9499119,0.922,-0.5523215682521568,-0.26560437898274936,0.9653184957897589,-25.314401152250614,437.4136428059347,-35.785423914174395,no_tremor
131,9499124,0.927,-0.5602867332121587,-0.26808070853898996,0.9408566550550499,-26.519994749333158,444.6575021249061,-34.80061051706137,no_tremor
132,9499129,0.932,-0.5669829302606434,-0.2704424623997008,0.9141564608270871,-27.733674794467184,451.0312198921094,-33.78291327027361,no_tremor
133,9499134,0.937,-0.5723789748136717,-0.27267414641303084,0.8852125778725188,-28.95136862640607,456.49828220367783,-32.73917665479966,no_tremor
134,9499139,0.942,-0.5764508775911921,-0.27476097377367364,0.854030674405483,-30.168764247772046,461.02633614312964,-31.67610174267981,no_tremor
135,9499144,0.947,-0.5791821588176397,-0.2766890069603994,0.8206277161730169,-31.381321779633954,464.58746111193784,-30.600176620311313,no_tremor
136,9499181,0.984,-0.5805641100848028,-0.27844529234253784,0.7850321864852798,-32.58428687660948,467.1584131215005,-29.517611719231454,no_tremor
137,9499186,0.989,-0.5805959992464815,-0.28001798579576204,0.747284228152045,-33.772706323435095,468.72083957384456,-28.434281052150535,no_tremor
138,9499191,0.994,-0.5792852138691091,-0.2813964678736096,0.7074357039375512,-34.94144607313373,469.2614621844211,-27.35567024744173,no_tremor
139,9499195,0.998,-0.5766473389768075,-0.282571447288886,0.6655501728183082,-36.08521200411199,468.7722258648658,-26.28683213941223,no_tremor
140,9499200,1.003,-0.5727061651592924,-0.2835350516457483,0.6217027799910769,-37.19857366278064,467.25041159594906,-25.232350505854527,no_tremor
141,9499205,1.008,-0.5674936236000376,-0.2842809045188614,0.5759800592221056,-38.275991220376895,464.69871156988376,-24.196312361728644,no_tremor
142,9499215,1.018,-0.5610496452502607,-0.284804188104817,0.5284796467716687,-39.31184581228492,461.1252651484932,-23.18228903333037,no_tremor
143,9499220,1.023,-0.553421942224695,-0.2851016907846165,0.4793099067972115,-40.30047334907891,456.5436544600924,-22.193326057553993,no_tremor
144,9499225,1.028,-0.5446657105207731,-0.2851718390463875,0.42858946885182087,-41.2362017935654,450.97285874451404,-21.231941775007844,no_tremor
145,9499230,1.033,-0.5348432543462701,-0.28501471333403455,0.37644667885529715,-42.113391791849025,444.4371668582216,-20.30013431222912,no_tremor
146,9499234,1.037,-0.52402353365225,-0.28463204751616616,0.3230189657173413,-42.92648043526618,436.9660476762505,-19.399396478408832,no_tremor
147,9499244,1.047,-0.5122816378686026,-0.2840272118125329,0.2684521266306724,-43.67002781957448,428.5939784810974,-18.530737940029006,no_tremor
148,9499249,1.052,-0.49969819027967166,-0.28320517917108423,0.2128995349215894,-44.338765961277616,419.360231816785,-17.694713889259035,no_tremor
149,9499254,1.057,-0.48635868889697675,-0.2821724752540472,0.15652127523855075,-44.927649529619686,409.3086217151441,-16.891459298041386,no_tremor
150,9499259,1.062,-0.47235279101439803,-0.28093711236167956,0.09948321176291694,-45.43190775714522,398.4872106759772,-16.12072775946835,no_tremor
151,9499264,1.067,-0.4577735498029666,-0.2795085077936954,0.04195599602719338,-45.847096802802234,386.94797930479507,-15.381933867745905,no_tremor
152,9499269,1.072,-0.4427166122770321,-0.2778973873188662,-0.015885978182040086,-46.16915176151827,374.7464610747149,-14.674198077386322,no_tremor
153,9499274,1.077,-0.4272793887312275,-0.27611567459341163,-0.07386566447880463,-46.394437446767675,361.9413452667294,-13.996393004786071,no_tremor
154,9499279,1.082,-0.4115602043188744,-0.2741763675408752,-0.1318044888679419,-46.51979702342314,348.594051735142,-13.34719018161397,no_tremor
155,9499307,1.11,-0.395657443834106,-0.2720934028838262,-0.189523500014352,-46.542597543481264,334.7682817258757,-12.725106330106353,no_tremor
156,9499312,1.115,-0.37966870098083816,-0.2698815102048783,-0.24684453395724298,-46.46077144284058,320.5295495225693,-12.12854829920765,no_tremor
157,9499321,1.124,-0.3636899434454176,-0.26755605711377894,-0.3035913817671034,-46.27285309845352,305.944700159775,-11.5558558778058,no_tremor
158,9499326,1.129,-0.3478147048894419,-0.2651328873074206,-0.3595909481660852,-45.97800962546051,291.08141875037296,-11.005341793546638,no_tremor
159,9499331,1.134,-0.3321333144930621,-0.26262815352316343,-0.4146743889300046,-45.57606521054486,276.0077370749571,-10.475328318292568,no_tremor
160,9499336,1.139,-0.316732173890638,-0.2600581475893167,-0.46867821500346846,-45.067518419723974,260.79154299038515,-9.964180031693113,no_tremor
161,9499341,1.144,-0.3016930902853229,-0.2574391299530933,-0.5214453516753641,-44.45355207306613,245.50009799812764,-9.470332433692253,no_tremor
162,9499346,1.149,-0.2870926732784059,-0.25478716119943445,-0.5728261418331658,-43.73603543694132,230.19956803456847,-8.992316235794979,no_tremor
163,9499356,1.159,-0.2730018015861994,-0.25211793815075434,-0.6226792831844513,-42.91751864210654,214.9545722418128,-8.528777291531048,no_tremor
164,9499361,1.164,-0.2594851644210724,-0.2494466371485562,-0.6708726903508646,-42.00121938894933,199.82775416025376,-8.078492240562053,no_tremor
165,9499366,1.169,-0.24660088095111263,-0.24678776705578614,-0.7172842738663271,-40.99100214365071,184.87937944540755,-7.640380030676091,no_tremor
166,9499370,1.173,-0.23440019997501382,-0.24415503437730232,-0.7618026293264092,-39.89135015525193,170.16696383215537,-7.213509544289659,no_tremor
167,9499380,1.183,-0.22292728078273297,-0.24156122267121016,-0.8043276312239053,-38.70733073127868,155.74493463364914,-6.797103594526783,no_tremor
168,9499385,1.188,-0.21221905511893926,-0.2390180881183719,-0.8447709273440784,-37.4445542999695,141.66432856720792,-6.390539578239959,no_tremor
169,9499390,1.193,-0.20230516920016123,-0.23653627274086722,-0.883056330949806,-36.10912786213153,127.97252815017265,-5.993347086640067,no_tremor
170,9499396,1.199,-0.19320800381608674,-0.23412523632826285,-0.9191201093292971,-34.70760349527702,114.71303830864099,-5.605202782714066,no_tremor
171,9499401,1.204,-0.18494276962733777,-0.23179320766264883,-0.9529111685798985,-33.24692261660677,101.92530420048328,-5.225922860603656,no_tremor
172,9499426,1.229,-0.1775176738262272,-0.2295471551509767,-0.9843911357380485,-31.73435674123396,89.6445705953722,-4.8554534071923685,no_tremor
173,9499431,1.234,-0.1709341533502895,-0.2273927764996284,-1.0135343405171018,-30.177445490914593,77.90178251519995,-4.493858990719546,no_tremor
174,9499435,1.238,-0.16518716886822452,-0.22533450662772625,-1.040327699961697,-28.58393261848849,66.7235262562527,-4.1413098035659,no_tremor
175,9499440,1.243,-0.16026555287449823,-0.22337554264045334,-1.064770510249918,-26.961700814314224,56.13200942012807,-3.798067683333213,no_tremor
176,9499445,1.248,-0.15615240452708073,-0.2215178843934046,-1.086874150655176,-25.318706053220165,46.14507818722083,-3.4644713261008553,no_tremor
177,9499450,1.253,-0.1528255234091927,-0.21976238898071412,-1.106661705307784,-23.66291222512453,36.7762697675682,-3.1409209893418577,no_tremor
178,9499455,1.258,-0.15025787420940956,-0.2181088373653954,-1.124167508870956,-22.002226770582386,28.034897739128045,-2.827862962330147,no_tremor
179,9499460,1.263,-0.14841807437884935,-0.21655601132457147,-1.1394366225764665,-20.34443801356313,19.926167813375393,-2.5257740614619584,no_tremor
180,9499464,1.267,-0.14727089710690022,-0.21510177888894771,-1.1525242472679234,-18.697154846404256,12.451321438541857,-2.2351463879164712,no_tremor
181,9499469,1.272,-0.14677778241820866,-0.213743186500317,-1.1634950801963768,-17.067749375568866,5.607804553405645,-1.9564725660111075,no_tremor
182,9499474,1.277,-0.14689734978921185,-0.2124765561797835,-1.1724226223290268,-15.463303082195395,-0.6105412648182543,-1.6902316628768552,no_tremor
183,9499479,1.282,-0.14758590636619015,-0.21129758608098453,-1.1793884428927504,-13.890556990034277,-6.2132680568216,-1.4368759735251315,no_tremor
184,9499484,1.287,-0.14879794559421256,-0.21020145288752157,-1.184481407802988,-12.355866267569443,-11.21309395361571,-1.1968188389020145,no_tremor
185,9499489,1.292,-0.1504866317987001,-0.20918291459616775,-1.1877968785437227,-10.865159623642645,-15.625661661733941,-0.9704236467921166,no_tremor
186,9499494,1.297,-0.15260426696813642,-0.20823641230511933,-1.1894358879797542,-9.423903788903424,-19.469285715718932,-0.7579941457472004,no_tremor
187,9499499,1.302,-0.1551027366459098,-0.20735616970095333,-1.1895042995080067,-8.037073309691596,-22.76469118657331,-0.5597661805403877,no_tremor
188,9499504,1.307,-0.1579339324373812,-0.20653628901307625,-1.1881119558963147,-6.709125815914199,-25.534746450761126,-0.3759009340981746,no_tremor
189,9499508,1.311,-0.16105014916720334,-0.20577084228623393,-1.1853718241185527,-5.443982859012334,-27.804192527964123,-0.20647973535841055,no_tremor
190,9499513,1.316,-0.16440445517797803,-0.20505395691688194,-1.1813991424735877,-4.245016349619608,-29.59937139216637,-0.05150046479082178,no_tremor
191,9499518,1.321,-0.16795103464326355,-0.20437989451397587,-1.1763105762690065,-3.1150405569131,-30.947955553254534,0.0891244406748714,no_tremor
192,9499548,1.351,-0.17164550107623316,-0.20374312228271121,-1.1702233883528,-2.0563095631302835,-31.878681097534106,0.2155684132345815,no_tremor
193,9499558,1.361,-0.1754451814531355,-0.2031383762905194,-1.1632546307734333,-1.0705199982911928,-32.42108626557302,0.32808967203268957,no_tremor
194,9499562,1.365,-0.17930937054641485,-0.2025607161521468,-1.1555203638094598,-0.15881881458475103,-32.60525752928376,0.42702872451903784,no_tremor
195,9499567,1.37,-0.1831995551921222,-0.20200557085331125,-1.147134908481372,0.6781841987589162,-32.4615849957445,0.5128045673456155,no_tremor
196,9499572,1.375,-0.1870796083236898,-0.20146877560719514,-1.1382101383865284,1.4403995075164018,-32.02052880250965,0.5859097210116625,no_tremor
197,9499577,1.38,-0.1909159527143727,-0.20094659979624085,-1.128854816257249,2.1282369154188157,-31.312397977373585,0.6469042446047086,no_tremor
198,9499582,1.385,-0.19467769450306135,-0.20043576619136716,-1.1191739800462488,2.74258104756492,-30.367143023915933,0.6964088848234948,no_tremor
199,9499587,1.39,-0.19833672674312786,-0.1999334617639572,-1.10926838263022,3.284763659739328,-29.214163274316643,0.7350975181811304,no_tremor
200,9499591,1.394,-0.20186780341340216,-0.19943734051560139,-1.0992339884342297,3.756533206457997,-27.88212983142236,0.7636890468722508,no_tremor
201,9499597,1.4,-0.20524858455931402,-0.198945518848454,-1.0891615294553114,4.160022100780243,-26.39882470808557,0.7829389070661398,no_tremor
202,9499602,1.405,-0.20845965348070353,-0.19845656408580145,-1.0791361223358438,4.497712093656929,-24.79099656691188,0.7936303437044535,no_tremor
203,9499606,1.409,-0.21148450713815828,-0.19796947682756538,-1.0692369473326975,4.772398191652142,-23.0842332705622,0.7965655988456118,no_tremor
204,9499611,1.414,-0.2143095211987537,-0.19748366788765098,-1.0595369892678304,4.987151520686187,-21.302851274144828,0.792557151758807,no_tremor
205,9499616,1.419,-0.21692389137230608,-0.19699893060737275,-1.0501028398460306,5.145281530686054,-19.469801728976027,0.7824191389434091,no_tremor
206,9499621,1.424,-0.21931955288980534,-0.1965154093693862,-1.0409945600972954,5.250297921846232,-17.606593021974884,0.7669590716948302,no_tremor
207,9499631,1.434,-0.22149108013761457,-0.1960335651474666,-1.0322656011519684,5.305872657410818,-15.733229346856437,0.7469699579150149,no_tremor
208,9499636,1.439,-0.22343556857757332,-0.19555413891775325,-1.0239627810888692,5.315802410024359,-13.868164791347843,0.7232229229492148,no_tremor
209,9499645,1.448,-0.22515250115034202,-0.19507811372676856,-1.0161263152082776,5.283971768382262,-12.028272328422542,0.69646041063772,no_tremor
210,9499671,1.474,-0.22664360137671022,-0.19460667616221633,-1.0087898967665143,5.214317508363684,-10.228827018652975,0.6673900307430545,no_tremor
211,9499676,1.479,-0.22791267534293524,-0.19414117790737292,-1.0019808249569977,5.110794208757402,-8.483502664376301,0.6366791036735315,no_tremor
212,9499681,1.484,-0.22896544468969726,-0.19368309798341055,-0.9957201767213005,4.97734146646283,-6.804381102838019,0.6049499392756733,no_tremor
213,9499686,1.489,-0.22980937263141044,-0.19323400620179532,-0.9900230188099551,4.817852939346641,-5.201973282618789,0.572775873850406,no_tremor
214,9499691,1.494,-0.23045348492514298,-0.19279552826620733,-0.9848986563774934,4.636147416563605,-3.6852512335810976,0.5406780780649856,no_tremor
215,9499696,1.499,-0.23090818759526463,-0.19236931288387593,-0.9803509142865507,4.435942086814827,-2.2616900145879306,0.5091231377401102,no_tremor
216,9499701,1.504,-0.23118508310660782,-0.1919570011716629,-0.9763784472136768,4.220828145848757,-0.9373187052999374,0.4785213997052268,no_tremor
217,9499705,1.508,-0.23129678656847485,-0.19156019857338052,-0.972975074598058,3.994248856108182,0.28322050213715033,0.44922606612564936,no_tremor
218,9499710,1.513,-0.23125674344625807,-0.19118044944198512,-0.9701301364560705,3.7594801437294705,1.3966060601840589,0.42153301271957705,no_tremor
219,9499715,1.518,-0.23107905015820404,-0.1908192143836079,-0.9678288661004376,3.519613790857018,2.4007646203539887,0.39568129896919835,no_tremor
220,9499720,1.523,-0.23077827884276975,-0.1904778504100039,-0.9660527758522809,3.277543254209653,3.29479332931338,0.37185433179253446,no_tremor
221,9499725,1.528,-0.23036930749706303,-0.19015759390196085,-0.9647800519156241,3.035952113801123,4.078877801753763,0.35018163794517737,no_tremor
222,9499730,1.533,-0.22986715660794604,-0.1898595463484265,-0.9639859546939263,2.797305128627409,4.754206690227119,0.33074119429429616,no_tremor
223,9499735,1.538,-0.229286833322342,-0.18958466279436662,-0.9636432209633975,2.563841849337297,5.32288375134571,0.3135622593645074,no_tremor
224,9499740,1.543,-0.22864318412907977,-0.18933374290435942,-0.9637224644744771,2.337572712102513,5.787838281426125,0.298628645372781,no_tremor
225,9499744,1.547,-0.22795075694772934,-0.18910742452829446,-0.9641925717273698,2.120277513909942,6.152734762973999,0.28588236813353873,no_tremor
226,9499749,1.552,-0.22722367343675376,-0.18890617963981773,-0.9650210898567485,1.9135061479969124,6.421882526156442,0.2752276119982388,no_tremor
227,9499754,1.557,-0.22647551224072734,-0.1887303125067883,-0.9661746037619598,1.7185814595171667,6.600146186410421,0.2665349468838421,no_tremor
228,9499759,1.562,-0.2257192037918185,-0.1885799599453549,-0.9676190998300367,1.5366040656016853,6.6928575710304035,0.25964573374283245,no_tremor
229,9499764,1.567,-0.2249669371627168,-0.18845509350462686,-0.9693203138174745,1.368458970060863,6.705729795089574,0.254376654017685,no_tremor
230,9499769,1.572,-0.22423007933663433,-0.18835552342654469,-0.9712440606811518,1.2148237903823957,6.644774091524358,0.25052429846744595,no_tremor
231,9499793,1.596,-0.22351910711661252,-0.1882809042246887,-0.9733565443772801,1.0761784035336883,6.516219942414089,0.24786975164837693,no_tremor
232,9499798,1.601,-0.2228435517447209,-0.1882307417256544,-0.9756246458791222,0.9528158084857118,6.326438998982658,0.246183110460203,no_tremor
233,9499803,1.606,-0.22221195614761577,-0.1882044014165356,-0.978016187900714,0.8448539989270165,6.081873217026066,0.24522787871515303,no_tremor
234,9499808,1.611,-0.2216318445759345,-0.18820111794126929,-0.9805001750585808,0.7522486405618105,5.788967572433692,0.24476518460476793,no_tremor
235,9499812,1.615,-0.2211097042687016,-0.18822000558660398,-0.9830470084601965,0.6748063537318388,5.454107658572713,0.24455777371046822,no_tremor
236,9499817,1.62,-0.22065097865536473,-0.18826006959523092,-0.985628673977604,0.6121984126808326,5.0835624047143035,0.2443737360870423,no_tremor
237,9499822,1.625,-0.22026007150903743,-0.18832021813963407,-0.9882189037445582,0.5639746860068662,4.68343209394533,0.24398993169740654,no_tremor
238,9499832,1.635,-0.21994036138464151,-0.18839927478627436,-0.9907933107012097,0.529577657342186,4.259601801243474,0.24319508464755651,no_tremor
239,9499837,1.64,-0.21969422561381804,-0.1884959912768032,-0.9933294962968524,0.5083563799209266,3.817700318174473,0.24179252380830946,no_tremor
240,9499841,1.644,-0.2195230730835041,-0.1886090604522494,-0.9958071317436548,0.4995802328080626,3.363064580285259,0.23960255507243503,no_tremor
241,9499846,1.649,-0.21942738499567496,-0.18873712914876126,-0.9982080134873134,0.502452360377414,2.9007095666565053,0.23646445757406953,no_tremor
242,9499861,1.664,-0.21940676279026408,-0.1888788109004278,-1.000516093818712,0.5161226907307682,2.435303597795141,0.23223810203925502,no_tremor
243,9499866,1.669,-0.21945998240922837,-0.189032698296123,-1.0027174877885041,0.5397004432028482,1.9711489174051808,0.22680519413744266,no_tremor
244,9499871,1.674,-0.2195850540836586,-0.1891973748525652,-1.0048004577984302,0.572266049237548,1.5121674046651836,0.2200701495713369,no_tremor
245,9499876,1.679,-0.21977928683362033,-0.18937142628371034,-1.00675537742328,0.6128824240584572,1.0618912255150013,0.21196061100224042,no_tremor
246,9499881,1.684,-0.22003935687809215,-0.18955345106594074,-1.0085746761608316,0.6606055385882693,0.6234581938329676,0.20242762029308217,no_tremor
247,9499886,1.689,-0.22036137915703186,-0.18974207021823208,-1.0102527669119816,0.7144942523914128,0.19961157705880453,0.19144546345975486,no_tremor
248,9499891,1.694,-0.22074098116780488,-0.18993593623588084,-1.011785958061365,0.7736193794189731,-0.20729595298526005,0.17901120999919007,no_tremor
249,9499915,1.718,-0.22117337831394107,-0.19013374113509224,-1.0131723520640277,0.8370719690190656,-0.595294553585314,0.1651439719664862,no_tremor
250,9499920,1.723,-0.2216534499570582,-0.1903342235836692,-1.0144117324508104,0.9039707944523412,-0.9627859838244561,0.14988391025379855,no_tremor
251,9499925,1.728,-0.22217581535676392,-0.19053617511033813,-1.0155054411482918,0.9734690490116746,-1.3085292895089822,0.13329101564710166,no_tremor
252,9499930,1.733,-0.22273490868465884,-0.19073844540216017,-1.0164562479721206,1.044760254970423,-1.6316237821162685,0.11544369091877688,no_tremor
253,9499934,1.737,-0.22332505231341498,-0.19093994671616515,-1.0172682140985827,1.11708339311353,-1.9314896930287937,0.09643715833420052,no_tremor
254,9499940,1.743,-0.22394052761336625,-0.1911396574476291,-1.0179465512511923,1.189727261864241,-2.207846877384973,0.07638171528482156,no_tremor
255,9499944,1.747,-0.22457564253628198,-0.19133662491275066,-1.0184974782596838,1.2620340768172293,-2.4606919319857483,0.05540085977895462,no_tremor
256,9499954,1.757,-0.2252247953260129,-0.19152996741712516,-1.0189280765604765,1.3334023249143265,-2.690274080746242,0.03362930737116911,no_tremor
257,9499964,1.767,-0.2258825337653439,-0.1917188756925295,-1.0192461461128777,1.403288892181866,-2.8970701691386007,0.011210921664689755,no_tremor
258,9499969,1.772,-0.2265436094451781,-0.1919026137921923,-1.0194600631063873,1.4712104884818547,-3.0817590949483114,-0.011703418578408618,no_tremor
259,9499973,1.776,-0.22720302662437647,-0.19208051953788965,-1.0195786407338558,1.536744395901287,-3.245195985776797,-0.0349579918049181,no_tremor
260,9499978,1.781,-0.2278560853349826,-0.1922520046099059,-1.0196109942049632,1.5995285690492345,-3.3883864143578006,-0.05839442079593022,no_tremor
261,9499983,1.786,-0.22849841847714772,-0.19241655436258287,-1.0195664110758744,1.659261116272652,-3.512460921835149,-0.08185384900858113,no_tremor
262,9499988,1.791,-0.22912602273974253,-0.19257372743397433,-1.0194542278745244,1.7156991914071649,-3.6186500973867752,-0.1051790799859022,no_tremor
263,9499993,1.796,-0.22973528327515672,-0.19272315519883648,-1.0192837139067732,1.7686573268915202,-3.708260440119573,-0.12821665367661852,no_tremor
264,9500003,1.806,-0.23032299214870533,-0.19286454109113635,-1.0190639630366263,1.8180052415211423,-3.782651205995494,-0.15081883419804734,no_tremor
265,9500008,1.811,-0.23088636067262328,-0.19299765979716288,-1.0188037941438222,1.8636651599173133,-3.8432124191195776,-0.17284548498295985,no_tremor
266,9500013,1.816,-0.23142302581957058,-0.1931223562951884,-1.0185116608745353,1.905608685443593,-3.8913442037717045,-0.19416580956576324,no_tremor
267,9500038,1.841,-0.23193105098829175,-0.19323854469455334,-1.018195571215772,1.9438532730266376,-3.928437571218449,-0.2146599394470239,no_tremor
268,9500042,1.845,-0.23240892146211867,-0.19334620680801234,-1.0178630173406629,1.9784583524119286,-3.95585677292668,-0.23422035379087866,no_tremor
269,9500047,1.85,-0.23285553495745798,-0.19344539037795025,-1.0175209160884486,2.0095211555452375,-3.9749233094263476,-0.2527531179690125,no_tremor
270,9500052,1.855,-0.23327018770291263,-0.19353620687115994,-1.017175560356446,2.0371723045187964,-3.986901663811599,-0.27017892837499585,no_tremor
271,9500057,1.86,-0.23365255651955205,-0.19361882875916864,-1.0168325815885926,2.0615712195336577,-3.9929868132065627,-0.28643394983301984,no_tremor
272,9500067,1.87,-0.23400267738915445,-0.19369348621144986,-1.0164969234449346,2.0829014094559857,-3.9942935609036874,-0.30147043060245887,no_tremor
273,9500071,1.874,-0.234320921000664,-0.1937604631461816,-1.016172826629313,2.1013657099381344,-3.991847724629519,-0.3152570795949548,no_tremor
274,9500076,1.879,-0.2346079657564163,-0.19382009260609592,-1.0158638247402585,2.117181535257637,-3.986579210291192,-0.3277791913129011,no_tremor
275,9500081,1.884,-0.23486476869972084,-0.1938727514540659,-1.0155727508945473,2.1305762102046657,-3.9793169937188066,-0.33903850604548114,no_tremor
276,9500086,1.889,-0.23509253479556796,-0.19391885441309736,-1.0153017547553602,2.1417824477313303,-3.9707860238003154,-0.3490527958486308,no_tremor
277,9500091,1.894,-0.23529268495907693,-0.19395884750692075,-1.0150523294783764,2.1510340365022325,-3.9616060478380075,-0.357855170556479,no_tremor
278,9500096,1.899,-0.2354668231854184,-0.19399320098884962,-1.0148253479698213,2.1585617999134286,-3.9522923431541073,-0.36549310221681536,no_tremor
279,9500101,1.904,-0.23561670309456692,-0.19402240187634426,-1.014621107730415,2.1645898850888337,-3.943258317526194,-0.3720271707404965,no_tremor
280,9500105,1.908,-0.23574419416887973,-0.19404694623519175,-1.0144393834380512,2.169332437325186,-3.9348199150063756,-0.3775295383588614,no_tremor
