sample,t_ms,t_s,ax,ay,az,gx,gy,gz,tremor
0,7120988,0.0,-0.09147813055594299,-0.1916307098901068,-1.0318693747096226,0.257717633820838,-1.5380134521529933,-11.073013687033939,no_tremor
1,7120999,0.011,-0.08755241762364771,-0.1909168266205129,-1.033065355678987,1.0476835664334274,-2.040528162484501,-10.066656642123585,no_tremor
2,7121010,0.022,-0.08173231219034188,-0.18985592774914434,-1.0347193870174038,1.8789500856556878,-2.3721674575883323,-8.723903226163761,no_tremor
3,7121021,0.033,-0.07354391186131706,-0.18834113274252076,-1.0368851766416598,2.7560348180057783,-2.460284897689478,-6.876792887836312,no_tremor
4,7121033,0.045,-0.06276362870188146,-0.18629617948838595,-1.0395381228692344,3.678863891203239,-2.234868490042652,-4.364412956244613,no_tremor
5,7121044,0.056,-0.04937235991103284,-0.18367044027050064,-1.0426093461557924,4.64219972236542,-1.6315211408131185,-1.040062675946689,no_tremor
6,7121055,0.067,-0.033484309908209026,-0.18043135137497168,-1.0460162907608224,5.635323622356008,-0.5944344559397586,3.2217054284943702,no_tremor
7,7121066,0.078,-0.015303478551248886,-0.1765612020549773,-1.0496774192842306,6.6420115628384035,0.9207540764329398,8.518436198112447,no_tremor
8,7121077,0.089,0.004890634328387225,-0.17205780878023225,-1.053515202870921,7.640832226585986,2.944332521279762,14.913790571714404,no_tremor
9,7121120,0.132,0.026740891453159204,-0.16693698083335076,-1.057453854680266,8.605784268750936,5.490227009736406,22.432504870722955,no_tremor
10,7121131,0.143,0.04980582301957859,-0.16123502292634645,-1.0614161403466014,9.507273814021215,8.554166673975487,31.05654661048919,no_tremor
11,7121142,0.154,0.0735556435591303,-0.155010236010485,-1.0653213146339977,10.31341353474994,12.112408257303287,40.72269179676663,no_tremor
12,7121165,0.177,0.09737444245156364,-0.1483429327429261,-1.0690848224279652,10.991601751592698,16.121118276929018,51.3217027823156,no_tremor
13,7121176,0.188,0.1205696810081052,-0.141333831393011,-1.0726197091832776,11.510315077117733,20.51649383236582,62.69922560412001,no_tremor
14,7121187,0.199,0.1423888414791424,-0.13410090569095268,-1.0758393855454684,11.841023248763754,25.21567799423703,74.65845249344869,no_tremor
15,7121230,0.242,0.16204235183512253,-0.12677491321891254,-1.0786612701179021,11.96011269282544,30.11849250129403,86.96451120660144,no_tremor
16,7121242,0.254,0.1787314682386184,-0.11949393468403395,-1.0810107947365952,11.850688904547379,35.10997064882346,99.35045307267218,no_tremor
17,7121253,0.265,0.19167950492313635,-0.11239733957138057,-1.082825264507115,11.50412005771031,40.0636295742381,111.52462663559088,no_tremor
18,7121264,0.276,0.20016462081177583,-0.10561964494556966,-1.0840571133610153,10.921188690307375,44.84537786597811,123.17915732604162,no_tremor
19,7121275,0.287,0.20355230492354115,-0.09928474393530484,-1.0846761832850873,10.112736569831318,49.317915936076425,133.99921379578564,no_tremor
20,7121298,0.31,0.2013257515640976,-0.09350094268078708,-1.0846707754703877,9.099718412700396,53.34545614026052,143.6727242071821,no_tremor
21,7121309,0.321,0.19311247103277124,-0.08835716011082427,-1.0840473627916216,7.912619520321092,56.79856888279826,151.90020072283806,no_tremor
22,7121320,0.332,0.17870572179814836,-0.08392052064080856,-1.082829001883003,6.590237558968233,59.55894946423849,158.4043322777502,no_tremor
23,7121353,0.365,0.1580796545815065,-0.08023541687619545,-1.0810526280834412,5.177877656608421,61.52389538822355,162.93901568241304,no_tremor
24,7121364,0.376,0.13139740925624316,-0.07732395312168064,-1.0787655481533327,3.7250603630496677,62.61028249944929,165.2975155291755,no_tremor
25,7121375,0.387,0.09901178341453533,-0.07518752204008626,-1.0760215520420389,2.28288916090307,62.757832367613275,165.31947446205498,no_tremor
26,7121398,0.41,0.06145847351340107,-0.07380914286347383,-1.0728771271983022,0.9012607281163255,61.93147997957201,162.89653633371321,no_tremor
27,7121409,0.421,0.019442249653171387,-0.07315612717630976,-1.0693882545801672,-0.37388021893110357,60.122688125720465,157.976394397234,no_tremor
28,7121420,0.432,-0.026183258093019322,-0.07318265489757411,-1.065608182409919,-1.5030419049478403,57.349615814557,150.56513277423696,no_tremor
29,7121431,0.443,-0.07444122297148591,-0.07383193746283999,-1.0615864226732037,-2.45526355928937,53.656128447169905,140.72779013166897,no_tremor
30,7121476,0.488,-0.12426159459032399,-0.07503779536288628,-1.0573690295416711,-3.209626763786157,49.10972727589748,128.5871396584266,no_tremor
31,7121488,0.5,-0.17451409752093566,-0.07672564766365456,-1.053000037708318,-3.7561014629480924,43.798560659230425,114.3207482712177,no_tremor
32,7121510,0.522,-0.2240428808891824,-0.07881306619235084,-1.0485237885584768,-4.095680573753499,37.827744367344714,98.15644458040313,no_tremor
33,7121521,0.533,-0.27170141453038577,-0.08121016124763286,-1.0439877611093273,-4.23981348963797,31.315251478101683,80.36637927514721,no_tremor
34,7121533,0.545,-0.3163862713385858,-0.08382012573268297,-1.0394454538338445,-4.209203698522354,24.387632667599057,61.25989693785446,no_tremor
35,7121555,0.567,-0.35706855988760494,-0.08654026613361648,-1.0349588405068735,-4.032083490654912,17.17580306968431,41.175458733266105,no_tremor
36,7121566,0.578,-0.39282196644557493,-0.08926379327654267,-1.0305999609037573,-3.7421147239705332,9.811094067781001,20.47187127613137,no_tremor
37,7121632,0.644,-0.42284660828263093,-0.09188253936621002,-1.0264513104001098,-3.3760857790371097,2.4217261548168416,-0.4809036083183653,no_tremor
38,7121644,0.656,-0.4464881642761199,-0.09429062178895975,-1.0226048483341121,-2.9715792657952567,-4.87018425062715,-21.311061411145932,no_tremor
39,7121655,0.667,-0.46325201072428007,-0.0963889093036372,-1.0191596236987719,-2.564772495085023,-11.951016207473375,-41.654080601390596,no_tremor
40,7121667,0.679,-0.47281232979928683,-0.09808999437502597,-1.01621818182438,-2.1885058845601613,-18.71741447878083,-61.16136698481284,no_tremor
41,7121678,0.69,-0.47501635731900255,-0.09932326943033096,-1.0138820378889015,-1.870718835992494,-25.077468936056032,-79.50816984726254,no_tremor
42,7121689,0.701,-0.4698840823496463,-0.10003966279263724,-1.0122465702290115,-1.6333143267338741,-30.951377460773397,-96.40058905724096,no_tremor
43,7121721,0.733,-0.4576038000943469,-0.10021560979621875,-1.0113957030183618,-1.4914772792187734,-36.27169618921106,-111.58155425640699,no_tremor
44,7121733,0.745,-0.43852395971390556,-0.09985590146797217,-1.011396727537173,-1.4534407889146435,-40.983290852479335,-124.83570152337637,no_tremor
45,7121744,0.756,-0.41314175526537267,-0.09899514909665234,-1.0122955702818708,-1.5206696938146986,-45.04309427171175,-135.99310070971896,no_tremor
46,7121755,0.767,-0.3820888945480103,-0.09769771077104474,-1.014112769763184,-1.6884118476369774,-48.41975467365032,-144.93180743291705,no_tremor
47,7121766,0.778,-0.34611495472332354,-0.09605603163634455,-1.0168403821248926,-1.9465521887423343,-51.0932364369701,-151.57923458955472,no_tremor
48,7121777,0.789,-0.3060686981563277,-0.09418744502603454,-1.0204400005392589,-2.280692832132176,-53.054415154111474,-155.91235887311865,no_tremor
49,7121789,0.801,-0.262877680915359,-0.09222956476121526,-1.0248420393685214,-2.6733746937750698,-54.30469334739418,-157.95679421646506,no_tremor
50,7121800,0.812,-0.217526447874589,-0.09033447162063013,-1.0299463936184023,-3.105353247951075,-54.85564953461671,-157.78477520790128,no_tremor
51,7121811,0.823,-0.17103358483047962,-0.08866196170296961,-1.0356245319422281,-3.556842992539017,-54.728718866901524,-155.5121024098852,no_tremor
52,7121844,0.856,-0.12442790487918813,-0.08737218152059033,-1.0417230165609765,-4.008651978623383,-53.95488660676402,-151.29411256827183,no_tremor
53,7121856,0.868,-0.07872409720395715,-0.08661802132697062,-1.0480683687403445,-4.443139546531398,-52.57435706879456,-145.32075303105663,no_tremor
54,7121878,0.89,-0.03489826198142389,-0.08653766894178194,-1.0544731178991993,-4.844947567497348,-50.63614428298995,-137.81086225031444,no_tremor
55,7121889,0.901,0.00613612635908254,-0.08724773542093484,-1.0607427899402917,-5.201477758187228,-48.197521619159865,-129.0057861623985,no_tremor
56,7121901,0.913,0.043551178581210534,-0.08883734733060351,-1.0666835117180495,-5.5031129335662206,-45.32326843128067,-119.16249107126816,no_tremor
57,7121912,0.924,0.07662575427279433,-0.09136355594141667,-1.0721098439333538,-5.743204491667159,-42.08466193450941,-108.54636391046812,no_tremor
58,7121934,0.946,0.10476408300745933,-0.09484833981049555,-1.0768524175240797,-5.91786826735675,-38.5581811487007,-97.42391783485778,no_tremor
59,7121967,0.979,0.1275111020652859,-0.0992773739871017,-1.080764948768282,-6.025644309909166,-34.823916264210716,-86.0556440963275,no_tremor
60,7121978,0.99,0.144563806267168,-0.1046006123789119,-1.0837302461629252,-6.067082348026921,-30.963709106741153,-74.68926739269462,no_tremor
61,7122000,1.012,0.15577798293031744,-0.11073459533690391,-1.085664888326366,-6.044312568522622,-27.059084397611404,-63.553662941052465,no_tremor
62,7122011,1.023,0.1611698399570723,-0.11756627514656046,-1.0865223341854888,-5.960650414425582,-23.189062172722352,-52.853668975556985,no_tremor
63,7122023,1.035,0.1609122348704473,-0.12495806820756833,-1.086294315998829,-5.820267027322043,-19.427963674773775,-42.7659756436161,no_tremor
64,7122045,1.057,0.15532546554146115,-0.13275380250208774,-1.0850104591612435,-5.627938838643643,-15.843331965934622,-33.436200267025534,no_tremor
65,7122056,1.068,0.1448628649792817,-0.1407852264345538,-1.082736168754143,-5.388874561394048,-12.494083756642317,-24.977185595236573,no_tremor
66,7122088,1.1,0.13009172836766192,-0.14887876463138644,-1.079568918391026,-5.108606365279713,-9.428993838225132,-17.468494149390068,no_tremor
67,7122099,1.111,0.11167037088248867,-0.15686223051115253,-1.0756331671413684,-4.792924413116794,-6.685592165095842,-10.95702220224811,no_tremor
68,7122133,1.145,0.09032235029299066,-0.16457122391266743,-1.0710742092227317,-4.447831041190715,-4.2895282344824235,-5.458619921636349,no_tremor
69,7122144,1.156,0.0668090649067719,-0.17185495612549953,-1.066051321745236,-4.079493010179119,-2.2544286407017955,-0.9605769037339795,no_tremor
70,7122155,1.167,0.04190202940860509,-0.1785812644903572,-1.0607306100771696,-3.694176257532953,-0.5822425857037272,2.575187005830461,no_tremor
71,7122167,1.179,0.016356121329046527,-0.1846406147898208,-1.055277951445959,-3.2981555942375915,0.7359607081013678,5.208397462978672,no_tremor
72,7122178,1.19,-0.009115019859836537,-0.1899489455657617,-1.049852403810263,-2.8976000329568508,1.7188054594353053,7.016343929523291,no_tremor
73,7122210,1.222,-0.0338604501002706,-0.1944492794873177,-1.044600386029633,-2.4984413697854517,2.3931154640373404,8.089613379626549,no_tremor
74,7122221,1.233,-0.05730948306994793,-0.19811210277079758,-1.0396508598543033,-2.1062382081618276,2.7922043221404507,8.52780298491598,no_tremor
75,7122232,1.244,-0.07898486251966268,-0.20093458376962897,-1.0351116658727562,-1.7260492191385701,2.9540423624190244,8.435361376214857,no_tremor
76,7122243,1.255,-0.09851130072747752,-0.2029387590014558,-1.0310670900366417,-1.3623278579194724,2.9193889240233144,7.917690528480095,no_tremor
77,7122254,1.266,-0.11561937217555057,-0.20416885630595097,-1.027576666252482,-1.0188466609751063,2.7299731803948464,7.077619858679844,no_tremor
78,7122265,1.277,-0.1301449611183515,-0.20468795070758136,-1.0246751555032176,-0.698654351538705,2.4268008985200282,6.01234135240247,no_tremor
79,7122276,1.288,-0.14202464520735997,-0.2045741600588242,-1.0223735867418597,-0.4040649569869807,2.048656585052765,4.81087035615793,no_tremor
80,7122288,1.3,-0.1512875511836312,-0.20391658608614457,-1.0206612032794975,-0.13667548738895938,1.630857587462173,3.5520723382130206,no_tremor
81,7122299,1.311,-0.15804433699193868,-0.2028111940321642,-1.0195081323436526,0.10259298731349724,1.2042981243864617,2.3032726185907997,no_tremor
82,7122330,1.342,-0.16247403129678176,-0.2013568034436864,-1.0188685840040699,0.313437236280825,0.7947995497902955,1.1194444501524297,no_tremor
83,7122341,1.353,-0.16480949358240915,-0.1996513369599049,-1.0186843861488872,0.49610390307223,0.4227629017727191,0.04295101832953237,no_tremor
84,7122353,1.365,-0.16532224904272871,-0.1977884461114683,-1.01888867164582,0.6513189671080258,0.10310385756110546,-0.896201108058275,no_tremor
85,7122364,1.376,-0.16430740977073593,-0.19585460548130948,-1.0194095494643616,0.7802209997976836,-0.1545616676686904,-1.6796557831262051,no_tremor
86,7122386,1.398,-0.16206932454534412,-0.19392674100484697,-1.0201736106450232,0.8843024043368347,-0.34552203872618303,-2.299621320081594,no_tremor
87,7122398,1.41,-0.15890850847560803,-0.19207043602204094,-1.0211091399541976,0.965359766208196,-0.4694107229071258,-2.7574892703402645,no_tremor
88,7122409,1.421,-0.1551102951192917,-0.19033873981495725,-1.0221489233637608,1.025451306166952,-0.5295300666311913,-3.0622498299811753,no_tremor
89,7122420,1.432,-0.15093553370606552,-0.18877158571870373,-1.0232325608863082,1.0668569771695378,-0.532101215275446,-3.228797514408038,no_tremor
90,7122452,1.464,-0.14661352996515253,-0.18739580666685138,-1.0243082162783355,1.0920354958685117,-0.48547951838700737,-3.2762165016720797,no_tremor
91,7122463,1.475,-0.1423373061514616,-0.18622571378834885,-1.0253337618743297,1.1035728194017673,-0.39937302775266287,-3.226125867865316,no_tremor
92,7122474,1.486,-0.13826113796084497,-0.18526417947222754,-1.0262773083109835,1.1041182189886103,-0.2841009587278659,-3.10115256828952,no_tremor
93,7122485,1.497,-0.13450021823383015,-0.18450414300726944,-1.027117142707671,1.0963068315846847,-0.14992600135327983,-2.923585879033131,no_tremor
94,7122496,1.508,-0.13113220679764961,-0.18393043750166194,-1.027841131487851,1.0826709815746836,-0.006487265131665423,-2.714252031652841,no_tremor
