sample,t_ms,t_s,ax,ay,az,gx,gy,gz,tremor
0,7330862,0.0,-0.38023169348036356,-0.12076809574232568,-0.9493081161096014,-5.493847677675664,-6.268167866282239,-3.546705570209852,tremor
1,7330874,0.012,-0.3789261064008572,-0.11941166329623006,-0.9482897163549763,-4.2973411685987335,-17.15342207396911,-3.2922965654675185,tremor
2,7330896,0.034,-0.37740493494907024,-0.11756248964395632,-0.9469813699431777,-3.185918362411018,-26.947304729685637,-2.9184272031724547,tremor
3,7330907,0.045,-0.37581483713168173,-0.11517756194445555,-0.9453799093595502,-2.1031773929490374,-35.5424973140549,-2.372137122301825,tremor
4,7330918,0.056,-0.37436966151310835,-0.11229419183192943,-0.9435318090971339,-0.9929813382151184,-42.85987948932285,-1.6005179946173353,tremor
5,7330962,0.1,-0.37325771734519875,-0.1089816054015342,-0.9414994562965006,0.19790398097748024,-48.84864645124713,-0.5532811606212454,tremor
6,7330973,0.111,-0.3725865515746925,-0.10530122270516468,-0.9393419371533921,1.5173347715858654,-53.486733842100456,0.8147003967379797,tremor
7,7330984,0.122,-0.37236893717416597,-0.1012892351240295,-0.9371120492447461,3.005573690055347,-56.78162015646557,2.540992444564134,tremor
8,7330995,0.133,-0.3725322634750682,-0.09695517549756291,-0.9348608022516302,4.693415191012255,-58.7713816624604,4.653443076542644,tremor
9,7331007,0.145,-0.3729368637193457,-0.09228814270849632,-0.9326425637214854,6.6007094249356655,-59.525643620334144,7.168346248074628,tremor
10,7331029,0.167,-0.37339629318614337,-0.08726536221229286,-0.9305175652442838,8.735312663399265,-59.1458326425086,10.088974397653915,tremor
11,7331040,0.178,-0.3736975416051896,-0.0818606585859887,-0.9285508487140693,11.092459663545492,-57.76393667024067,13.40450510044445,tremor
12,7331074,0.212,-0.3736213065488953,-0.07605204911633208,-0.9268078864433508,13.654521240496566,-55.538891222253206,17.089352695581344,tremor
13,7331085,0.223,-0.3729629102207329,-0.06982834227702875,-0.925347616127648,16.391084571895753,-52.64981982721953,21.102917058831892,tremor
14,7331097,0.235,-0.3715540891997962,-0.06319479946379591,-0.9242138857443978,19.259285577402338,-49.285734948117515,25.389780596832445,tremor
15,7331108,0.246,-0.36928517910371733,-0.056177884201724294,-0.9234264647484335,22.204345161648952,-45.63195920812302,29.880417115672007,tremor
16,7331119,0.257,-0.366126377193983,-0.04882902144284025,-0.9229728681381272,25.1603199304684,-41.85435644488203,34.4925086571707,tremor
17,7331130,0.268,-0.36214594979000186,-0.04122717982422682,-0.9228022289863913,28.05116467427822,-38.08327281379117,39.132979667294464,tremor
18,7331142,0.28,-0.35752262288874104,-0.033479998480800494,-0.9228223128524925,30.79229575279915,-34.3996478627984,43.700837920584114,tremor
19,7331153,0.291,-0.3525491521260458,-0.025723126695326344,-0.9229004883980683,33.29290740524044,-30.82586984410326,48.0908532183832,tremor
20,7331164,0.302,-0.34762442762365114,-0.01811745163075952,-0.9228690756475514,35.459286108445326,-27.323512637658123,52.198007190829436,tremor
21,7331198,0.336,-0.34323260216498347,-0.010843981557597497,-0.9225350277788185,37.199257474288025,-23.7991139998591,55.92251507835348,tremor
22,7331209,0.347,-0.33990964168174026,-0.00409634721265528,-0.9216934060041664,38.427682315326045,-20.11778933441413,59.17507434099765,tremor
23,7331220,0.358,-0.33820007011292674,0.0019288238230695488,-0.9201436153040741,39.07263908969042,-16.123027742412432,61.881878362884464,tremor
24,7331231,0.369,-0.3386088677036346,0.007043057809739321,-0.9177069224764739,39.08167504875868,-11.659874273219659,63.988893179064696,tremor
25,7331242,0.38,-0.3415547619783743,0.01107778005170374,-0.9142434444332024,38.427363293055194,-6.598161458344773,65.46495199613433,tremor
26,7331254,0.392,-0.347331108381466,0.01389549681258998,-0.9096666693231868,37.111410112828096,-0.8525917581229079,66.30336028687299,tremor
27,7331265,0.403,-0.35607924853250034,0.015399199646294184,-0.9039537458418455,35.16670924433606,5.602821781380617,66.52188561542386,tremor
28,7331276,0.414,-0.36777706133952276,0.015538929966340346,-0.8971502763046972,32.65700131459996,12.727369283143423,66.16119191468088,tremor
29,7331321,0.459,-0.3822429230015296,0.014314795615258013,-0.8893691037965338,29.674121671876623,20.413496718938063,65.28193665550516,tremor
30,7331332,0.47,-0.3991530047008244,0.01177622769648524,-0.8807834207335612,26.333150621337765,28.49297720322653,63.96085866283007,tremor
31,7331343,0.481,-0.41806824887937954,0.008017795813691154,-0.871615230990688,22.766039957855504,36.74778407791236,62.28622856660002,tremor
32,7331355,0.493,-0.4384668254933357,0.0031723304633533723,-0.8621206051959535,19.114400609237155,44.923933092706356,60.35300850129562,tremor
33,7331377,0.515,-0.45977841039620015,-0.0025976693755164625,-0.8525732375956452,15.522072303591417,52.74695046323101,58.25798839482698,tremor
34,7331388,0.526,-0.48141785381575264,-0.009109360980034491,-0.8432476290440143,12.127915149606869,59.93821167131186,56.09506839843023,tremor
35,7331400,0.538,-0.5028170514184455,-0.016168797505306313,-0.8344029323677357,9.059070379724133,66.23181571083775,53.950781458641245,tremor
36,7331446,0.584,-0.5234544964761723,-0.023579504465776398,-0.8262682382587229,6.424823708122522,71.39165590723101,51.90012729201807,tremor
37,7331468,0.606,-0.5428818294158545,-0.031150037146266407,-0.8190299261786472,4.311208363595039,75.22789109358551,50.00282607491324,tremor
38,7331480,0.618,-0.560745914400561,-0.03870031071544815,-0.8128216505377748,2.7765812489444297,77.61137329045248,48.30016881642759,tremor
39,7331491,0.629,-0.576804146245302,-0.046066562718946096,-0.8077175088863575,1.8485150715304255,78.48421196139952,46.81268730016854,tremor
40,7331502,0.64,-0.5909305103443663,-0.053104834458704876,-0.8037288682931982,1.5223782241909576,77.86488996682867,45.53884760585388,tremor
41,7331513,0.651,-0.6031107696307979,-0.0596928951631768,-0.8008051736704409,1.7618737774741793,75.84714699877061,44.454889804750465,tremor
42,7331525,0.663,-0.6134268815210314,-0.06573061516533521,-0.7988388359875811,2.501597480046918,72.59287018310609,43.51582789538587,tremor
43,7331536,0.674,-0.6220327650292011,-0.0711389298694771,-0.7976740180571132,3.6514110542891105,68.32012729025124,42.65752279449583,tremor
44,7331570,0.708,-0.6291251487163628,-0.07585771172344627,-0.7971188177527777,5.102179021930494,63.28803598554728,41.79966629164432,tremor
45,7331581,0.719,-0.6349139274033765,-0.07984304487299874,-0.7969600266955809,6.73225371604395,57.780283643028895,40.8494770604457,tremor
46,7331604,0.742,-0.6395960532487357,-0.0830645075782358,-0.7969793824969185,8.41407794943971,52.088778060697386,39.70591827055242,tremor
47,7331615,0.753,-0.6433356283530132,-0.0855030313832308,-0.7969701102844592,10.020429701245101,46.49824400776763,38.26429097601988,tremor
48,7331626,0.764,-0.6462509922253046,-0.08714969438786278,-0.7967525954162175,11.430091188745358,41.271888060809125,36.421105784775094,tremor
49,7331637,0.775,-0.6484078509216148,-0.08800548647644443,-0.796188199294968,12.53294974730323,36.63787984984757,34.07914868890682,tremor
50,7331648,0.786,-0.6498164895933938,-0.08808178955051868,-0.7951904378300484,13.23462316035861,32.77649064493552,31.152621170376147,tremor
51,7331660,0.798,-0.6504311432085145,-0.08740115719667564,-0.7937329226587313,13.460640816930626,29.80816814706118,27.57216850670198,tremor
52,7331692,0.83,-0.6501505169250806,-0.08599798940080439,-0.7918536020137997,13.16006847384816,27.783367301605306,23.28954207857724,tremor
53,7331703,0.841,-0.6488197544188139,-0.08391883937559644,-0.7896549460085207,12.308310057494866,26.675397952522598,18.281588902314017,tremor
54,7331726,0.864,-0.6462352590576979,-0.08122228315390129,-0.7872998298391052,10.908715538925206,26.377744897106155,12.553236344428264,tremor
55,7331737,0.875,-0.6421542208726637,-0.07797844467688772,-0.7850030243800479,8.992623041551045,26.70714807470727,6.139159491038875,tremor
56,7331759,0.897,-0.636310308118745,-0.07426833825341225,-0.7830184644454545,6.61759129995831,27.41316434632537,-0.896102042036887,tremor
57,7331771,0.909,-0.628435865502068,-0.07018315010019766,-0.7816228596466064,3.863805948228321,28.1940785283915,-8.459677342690398,tremor
58,7331782,0.92,-0.6182894725217554,-0.0658234682388492,-0.7810966881416583,0.8288982542397086,28.718109772400883,-16.433485275318585,tremor
59,7331825,0.963,-0.6056863057690708,-0.06129835825692029,-0.7817040281623285,-2.378371073345927,28.64808437587497,-24.67872203725184,tremor
60,7331836,0.974,-0.5905278188459567,-0.056724137075576435,-0.7836728818427802,-5.644973852576396,27.667261676421216,-33.04136263295032,tremor
61,7331847,0.985,-0.5728270329367975,-0.05222273223493483,-0.7871775681073456,-8.860387020754867,25.50389246836354,-41.35824711896049,tremor
62,7331858,0.996,-0.5527262417907656,-0.047919587213259854,-0.7923244697783068,-11.922693561261454,21.952388665334553,-49.46332555536782,tremor
63,7331870,1.008,-0.530505021030523,-0.04394112652920276,-0.7991420385725441,-14.743575798627203,16.88960864257918,-57.193718203369414,tremor
64,7331881,1.019,-0.5065778135578723,-0.04041180590166132,-0.8075755837717293,-17.251966548242738,10.285515873263803,-64.3953718405145,tremor
65,7331892,1.03,-0.48148170665362827,-0.03745076422600496,-0.8174870265414271,-19.396319870059614,2.2081236239701973,-70.92820663493266,tremor
66,7331904,1.042,-0.45585602248094065,-0.03516810123219446,-0.828659486837507,-21.145605704173498,-7.17695144802727,-76.67071535096575,tremor
67,7331938,1.076,-0.43041582630225983,-0.03366084748167307,-0.8408062805671374,-22.489202667174467,-17.611875565472197,-81.52398681342866,tremor
68,7331949,1.087,-0.4059213915489401,-0.03300876539694099,-0.8535836609397067,-23.435865088354358,-28.756565835026453,-85.41508337078143,tremor
69,7331983,1.121,-0.38314519699535965,-0.03327019218006134,-0.8666064816420973,-24.011892953127955,-40.20305739723605,-88.29962530963925,tremor
70,7331994,1.132,-0.3628374538347304,-0.03447817404573124,-0.8794659256839605,-24.258571856869576,-51.49417035072862,-90.16335754843678,tremor
71,7332005,1.143,-0.34569078435101447,-0.03663713685600605,-0.8917485117233492,-24.2289198497846,-62.146241863505786,-91.02244029891429,tremor
72,7332016,1.154,-0.33230470131984813,-0.03972031784135386,-0.9030556669439047,-23.983809734631567,-71.67532456546823,-90.9222527196369,tremor
73,7332061,1.199,-0.3231509702172834,-0.0436681802475612,-0.9130231383123307,-23.587621497457107,-79.62574607107028,-89.93463316728396,tremor
74,7332072,1.21,-0.318541599811459,-0.04838804698322385,-0.9213393759265073,-23.10368200496015,-85.59939389072228,-88.15366883028453,tremor
75,7332084,1.222,-0.31860184694347304,-0.0537551858155766,-0.9277618390832294,-22.589828203442103,-89.28364532294533,-85.69033535180864,tremor
76,7332106,1.244,-0.32325100739291257,-0.05961552664883915,-0.9321300660779106,-22.0944638889304,-90.47559965464797,-82.66642278199184,tremor
77,7332117,1.255,-0.3321937525678843,-0.06579009105764304,-0.9343743944736823,-21.653463476745895,-89.10025682798549,-79.20824390035898,tremor
78,7332129,1.267,-0.34492431853489147,-0.07208108601247126,-0.9345194361592345,-21.28821251701013,-85.22054605760444,-75.44060880853962,tremor
79,7332140,1.278,-0.36074499458040216,-0.07827947518227542,-0.9326817783469367,-21.004972663405585,-79.03763263597779,-71.48148323332228,tremor
80,7332151,1.289,-0.3787991748809461,-0.0841737012095076,-0.9290618655462418,-20.795632314867138,-70.88069825429478,-67.43764520259873,tremor
81,7332185,1.323,-0.3981178388972545,-0.08955910172700215,-0.9239305733489332,-20.63976937750636,-61.18635599287308,-63.4015322514665,tremor
82,7332196,1.334,-0.41767684529826254,-0.09424746055024458,-0.9176115359086955,-20.507822418667732,-50.46894905636426,-59.449346181504055,tremor
83,7332208,1.346,-0.43646102046837215,-0.09807608640181946,-0.910460728770772,-20.3650503208663,-39.28406673296534,-55.6403707627589,tremor
84,7332219,1.357,-0.4535298921417456,-0.10091582750301199,-0.9028450386395616,-20.175870013128954,-28.188518215092692,-52.01736905582454,tremor
85,7332230,1.368,-0.468079268271806,-0.10267750535932002,-0.8951215369220699,-19.908111203867744,-17.7005640904959,-48.60785980126841,tremor
86,7332241,1.379,-0.4794928489009516,-0.10331636388090587,-0.8876189670824794,-19.536725427921613,-8.26431396036888,-45.426020663349405,tremor
87,7332253,1.391,-0.4873787490260031,-0.102834258145112,-0.8806226560665822,-19.046534504401958,-0.22183077297101317,-42.47493215038114,tremor
88,7332264,1.402,-0.49158717154614173,-0.10127943972457006,-0.8743637404582896,-18.433698250343415,6.2043421141062405,-39.74887297241278,tremor
89,7332275,1.413,-0.4922073919977936,-0.09874393557454071,-0.8690132651753077,-17.705723895980835,10.916734712751403,-37.235419678010516,tremor
90,7332309,1.447,-0.48954452466161114,-0.09535867364417404,-0.8646813230965342,-16.88003005626407,13.93657638289293,-34.91719231720168,tremor
91,7332320,1.458,-0.48407897229573876,-0.09128668143824706,-0.8614209217862033,-15.981299823174004,15.387032417638304,-32.773204769016104,tremor
92,7332332,1.47,-0.4764136407751547,-0.08671485455467848,-0.8592357206545289,-15.038063396918075,15.468911530669656,-30.779888514042682,tremor
93,7332343,1.481,-0.46721546511545603,-0.08184492092832932,-0.8580902980095392,-14.079075066370992,14.43251223100376,-28.911929123687578,tremor
94,7332354,1.492,-0.4571581784237092,-0.07688427025859652,-0.8579213360788853,-13.130050450530835,12.549413497180193,-27.143072203734153,tremor
95,7332365,1.503,-0.4468724880082258,-0.07203725702749635,-0.8586481511629224,-12.211218766274541,10.087536402223606,-25.44702815004478,tremor
96,7332376,1.514,-0.4369081527779337,-0.06749743605052602,-0.8601813363980305,-11.335967565232076,7.291894815130973,-23.79855006475668,tremor
97,7332387,1.525,-0.42771030163159846,-0.06344099637340801,-0.8624288245086338,-10.510658798047604,4.372307659698459,-22.174690747321712,tremor
98,7332399,1.537,-0.4196101080883499,-0.0600214758805472,-0.8652992729950492,-9.735504272294452,1.4981237090721142,-20.556171356907033,tremor
99,7332431,1.569,-0.4128279654902034,-0.057365708147405714,-0.8687031871485204,-9.00622359369925,-1.2011223275437186,-18.92872346518692,tremor
100,7332442,1.58,-0.4074858239505105,-0.05557089500094195,-0.8725525334520751,-8.316085529591488,-3.6310496870554037,-17.284211174048377,tremor
101,7332453,1.591,-0.4036245458411332,-0.0547027064827318,-0.8767597238641529,-7.65788063984936,-5.726051505525837,-15.621323386835012,tremor
102,7332464,1.602,-0.40122216827763735,-0.05479435792329996,-0.8812367873467635,-7.025420391142703,-7.44323274797738,-13.945669082149513,tremor
103,7332498,1.636,-0.40020986289267435,-0.05584667124597963,-0.8858953273454002,-6.414315023532789,-8.757939518433396,-12.269209155484337,tremor
104,7332509,1.647,-0.40048393809603755,-0.05782917405518935,-0.8906475344875787,-5.82200989984416,-9.661162277763747,-10.609085928943095,tremor
105,7332520,1.658,-0.40191394675306363,-0.06068231174531258,-0.8954081461982872,-5.247275726606385,-10.158254992972841,-8.986020959654832,tremor
106,7332554,1.692,-0.40434824545111464,-0.06432082409272728,-0.9000969293447624,-4.6894671719796515,-10.268013695859914,-7.422509129220484,tremor
107,7332565,1.703,-0.4076187878615668,-0.06863824573458478,-0.9046411302315099,-4.147851252942729,-10.021274421017868,-5.941033250852841,tremor
108,7332587,1.725,-0.41154652178650575,-0.07351233475728824,-0.9089774323639606,-3.621195630575983,-9.45865198534943,-4.562473503922604,tremor
109,7332598,1.736,-0.4159478765606172,-0.07881106744808393,-0.9130532052673473,-3.1076698985115074,-8.627556275300392,-3.304815642345138,tremor
110,7332621,1.759,-0.4206419741529622,-0.08439873279287177,-0.9168270704058248,-2.6050088272080254,-7.5789555237680135,-2.182195284379496,tremor
111,7332643,1.781,-0.4254577202938352,-0.09014166047097702,-0.9202689470088732,-2.110837219538321,-6.364418319893428,-1.2042696307092642,tremor
112,7332675,1.813,-0.4302399166034476,-0.09591321120607,-0.9233597558811382,-1.623054890908004,-5.033804445940198,-0.3758889420573568,tremor
113,7332686,1.824,-0.4348538527686971,-0.1015978043736281,-0.9260908987847276,-1.1402070303615823,-3.633713129284807,0.302958628919745,tremor
114,7332697,1.835,-0.4391882599610762,-0.1070939063588385,-0.9284635522452506,-0.6617962215831364,-2.2065720856889364,0.8369487276634252,tremor
115,7332709,1.847,-0.44315682223597325,-0.11231601854673506,-0.930487760494402,-0.18851088555336448,-0.7901469476399008,1.2349894547770932,tremor
116,7332720,1.858,-0.4466985498233378,-0.1171957684200411,-0.9321813028945813,0.2776510780080455,0.5827309276407888,1.5095870226573749,tremor
117,7332742,1.88,-0.4497772456050684,-0.12168222322461439,-0.9335683417783132,0.7333851165529413,1.8843399697495058,1.6760513437887867,tremor
118,7332753,1.891,-0.4523801521298613,-0.12574153157967466,-0.9346779033341543,1.1742258557679806,3.0921906193876123,1.7515952858119102,tremor
119,7332765,1.903,-0.45451576277538525,-0.1293559790268628,-0.9355422799848518,1.5948391448300898,4.189091532004158,1.7543876599539685,tremor
120,7332796,1.934,-0.45621077787449144,-0.13252253782208762,-0.9361954531346268,1.9894445416286994,5.163141752946803,1.7026204588998557,tremor
