sample,t_ms,t_s,ax,ay,az,gx,gy,gz,tremor
0,7228828,0.0,-0.3459690386386878,-0.2891671675362718,-0.9157986052116657,1.240868056939952,19.183106751337448,-4.001608436189717,tremor
1,7228833,0.005,-0.3413097384391879,-0.288462146501516,-0.9166521534897315,1.065548483950049,16.05516246658292,-2.438657945771306,tremor
2,7228838,0.01,-0.3349335893103202,-0.2874713616113612,-0.9178935346715147,0.9201677072285123,13.071165697504982,-0.8298931904599178,tremor
3,7228852,0.024,-0.3267372228400596,-0.28616162811374646,-0.9195907159089896,0.8054699939387048,10.243684414396899,0.8236527810426378,tremor
4,7228857,0.029,-0.3169428818924958,-0.28454956956998795,-0.9217501378400974,0.7219686152126059,7.584586728778549,2.5206933462755607,tremor
5,7228867,0.039,-0.3059374903111928,-0.2826804932267659,-0.924337169536451,0.6699391786004124,5.104963412611859,4.259671911259585,tremor
6,7228871,0.043,-0.2941286666659439,-0.28060726121055124,-0.927300749226398,0.6494154898637579,2.815051594724695,6.038748477656525,tremor
7,7228876,0.048,-0.28187067856090425,-0.27837835777546144,-0.9305891020632521,0.6601880641575509,0.7241597954910535,7.855789719842899,tremor
8,7228881,0.053,-0.2694435769148149,-0.276033686138156,-0.9341565699519023,0.7018053825777738,-1.1594053346109907,9.708363037103283,tremor
9,7228886,0.058,-0.257058982967846,-0.2736045768729654,-0.9379650211654063,0.7735779659856618,-2.828409963028916,11.593734944174606,tremor
10,7228896,0.068,-0.2448745844960513,-0.2711153990580632,-0.9419828384772037,0.8745853136489226,-4.2767608244598865,13.508874041592902,tremor
11,7228927,0.099,-0.23300873041848819,-0.26858542116364925,-0.9461832128076164,1.0036857271856723,-5.4995685911755885,15.450458669831322,tremor
12,7228932,0.104,-0.22155216439076292,-0.2660303942350834,-0.9505425138514575,1.1595290062727535,-6.493205395108808,17.414889204441405,tremor
13,7228937,0.109,-0.21057652824917172,-0.263463736759869,-0.9550389903250015,1.3405719568381873,-7.255354796704047,19.39830480351517,tremor
14,7228942,0.114,-0.20014017302430087,-0.2608973597249321,-0.959651823513782,1.5450965921289308,-7.785052370788125,21.396604287158485,tremor
15,7228947,0.119,-0.19029198173042314,-0.25834221285774067,-0.9643604782083467,1.7712308327143125,-8.082715098136616,23.405470722517954,tremor
16,7228952,0.124,-0.18107381377268392,-0.25580863007480076,-0.9691442805553049,2.0169714264568097,-8.15015789800864,25.42039921130735,tremor
17,7228957,0.129,-0.17252202940963687,-0.2533065360097817,-0.9739821612093467,2.280208717910027,-7.990595872058145,27.436727327798508,tremor
18,7228966,0.138,-0.1646684162212314,-0.25084555868888603,-0.9788525165241544,2.5587528033671783,-7.608631124062709,29.449667630187783,tremor
19,7228971,0.143,-0.15754073535622257,-0.24843507979602736,-0.9837331537379315,2.8503605207660176,-7.010223362127149,31.454341664210776,tremor
20,7228976,0.148,-0.1511630315713572,-0.246084243991699,-0.9886012963891323,3.1527626554785453,-6.202643878894037,33.44581489339717,tremor
21,7228981,0.153,-0.1455558008410888,-0.24380194181073964,-0.9934336335595776,3.463690708185194,-5.194412939545905,35.419132024711026,tremor
22,7228985,0.157,-0.14073607580223674,-0.24159677597267995,-0.9982064015554797,3.7809025789437225,-3.9952210810273137,37.369352249751834,tremor
23,7228995,0.167,-0.1367174671525017,-0.23947701780714403,-1.0028954899344025,4.102206572311869,-2.6158353265825616,39.291583986746765,tremor
24,7229005,0.177,-0.13351018452323227,-0.23745055840693052,-1.0074765659060043,4.425483216195634,-1.06799182976114,41.18101878294138,tremor
25,7229009,0.181,-0.13112105070275965,-0.23552485770626666,-1.011925212491684,4.748704506128678,0.6357230426162178,43.03296411569934,tremor
26,7229014,0.186,-0.12955351669918877,-0.23370689369485745,-1.0162170767273702,5.06995033183671,2.482000732142841,44.842874906896846,tremor
27,7229019,0.191,-0.128807680918358,-0.23200311326435352,-1.0203280248459805,5.387422006350909,4.4569447994971645,46.60638363014435,tremor
28,7229050,0.222,-0.12888031301513933,-0.23041938565376277,-1.0242343019129465,5.699452986470495,6.546208472386324,48.319328934258905,tremor
29,7229055,0.227,-0.12976488134250974,-0.22896095907164093,-1.0279126938719534,6.004517027316227,8.73513230374302,49.977782720242125,tremor
30,7229060,0.232,-0.13145158215745847,-0.22763242081575968,-1.0313406903933657,6.301234125554836,11.008878952543874,51.57807558582025,tremor
31,7229070,0.242,-0.13392736876620256,-0.2264376610943162,-1.034496647270163,6.588374646808887,13.352562502216456,53.11682049053754,tremor
32,7229080,0.252,-0.13717597955321018,-0.2253798407828977,-1.037359947332956,6.864861990360522,15.75137037666223,54.59093440689065,tremor
33,7229085,0.257,-0.14117796520294593,-0.22446136351146048,-1.0399111589380794,7.129774033558574,18.19067668466805,55.997657632360195,tremor
34,7229099,0.271,-0.14591071712966483,-0.22368385272209795,-1.0421321910367027,7.382343451838909,20.656146564924164,57.334570368507514,tremor
35,7229104,0.276,-0.15134850084578136,-0.22304813461341913,-1.0440064436967695,7.621956860620527,23.133831698103695,58.59960614320027,tremor
36,7229109,0.281,-0.15746249939615767,-0.222554228130842,-1.0455189527679303,7.848152598719223,25.61025753849895,59.79106166717617,tremor
37,7229113,0.285,-0.16422087280598405,-0.22220134331915414,-1.0466565271924535,8.060616889425564,28.072502973982306,60.907602776731,tremor
38,7229118,0.29,-0.1715888395878415,-0.22198788938231112,-1.0474078773013753,8.259178086873932,30.50827305902376,61.94826621534921,tremor
39,7229128,0.3,-0.17952878571048034,-0.22191149367335555,-1.0477637323105797,8.44379874281681,32.905965221499294,62.912457138594846,tremor
40,7229133,0.305,-0.18800040513179597,-0.22196903256117106,-1.0477169451523518,8.614565305854361,35.25472897778954,63.799942376662585,tremor
41,7229138,0.31,-0.196960874182261,-0.22215667469863457,-1.047262582748481,8.77167538401124,37.5445187575349,64.6108396475818,tremor
42,7229143,0.315,-0.20636505991712714,-0.22246993666343942,-1.0463979998583366,8.915422656412273,39.76613898502459,65.34560307292416,tremor
43,7229168,0.34,-0.21616576021109277,-0.2229037502827428,-1.0451228947283326,9.04617970328343,41.91128012991784,66.00500549780558,tremor
44,7229173,0.345,-0.22631397104245782,-0.2234525402283888,-1.0434393449348813,9.164379220856373,43.97254407959506,66.5901182442062,tremor
45,7229178,0.35,-0.23675917435079893,-0.22411030975155516,-1.0413518220553932,9.2704942725911,45.943456986374684,67.1022890101951,tremor
46,7229183,0.355,-0.24744963835100678,-0.22487073181011547,-1.0388671841219943,9.365018367085469,47.81846781014386,67.5431186448189,tremor
47,7229188,0.36,-0.25833272150764347,-0.22572724242054698,-1.0359946452049236,9.448446221828302,49.59293116243217,67.91443746926728,tremor
48,7229193,0.365,-0.2693551716200927,-0.2266731328894748,-1.032745721922444,9.521256067326053,51.26307371248623,68.218281690702,tremor
49,7229197,0.369,-0.2804634125629148,-0.2277016376469397,-1.029134157160426,9.583894279568149,52.82594423034404,68.45687028976677,tremor
50,7229202,0.374,-0.2916038129855828,-0.22880601468043688,-1.0251758217862263,9.636763012880742,54.279348217674105,68.63258258000582,tremor
51,7229207,0.379,-0.3027229334959223,-0.22997961601142178,-1.0208885956401494,9.680211349311392,55.62176894792766,68.74793645682368,tremor
52,7229212,0.384,-0.31376775133436413,-0.23121594622029157,-1.0162922295690642,9.71453029394671,56.85227755217968,68.80556719200898,tremor
53,7229217,0.389,-0.324685864104425,-0.2325087076707412,-1.0114081907176282,9.739951738411756,57.970435495815984,68.80820650016538,tremor
54,7229222,0.394,-0.3354256765805761,-0.23385183177204374,-1.0062594936995761,9.756651297348776,58.976193345525076,68.75866151230527,tremor
55,7229236,0.408,-0.3459365767977304,-0.23523949631332022,-1.000870520617775,9.764754703246806,59.86979008828605,68.65979323983284,tremor
56,7229241,0.413,-0.3561691093656214,-0.23666612957310765,-0.9952668331609418,9.76434723166527,60.65165740793072,68.51449409739038,tremor
57,7229246,0.418,-0.3660751550557735,-0.23812640251290246,-0.9894749801347497,9.755485433756753,61.322333221272125,68.32566407670538,tremor
58,7229251,0.423,-0.37560812597685933,-0.23961521086336937,-0.9835223037319716,9.738210293383643,61.88238839065785,68.0961852307348,tremor
59,7229256,0.428,-0.3847231849389074,-0.24112764927068944,-0.9774367475682433,9.712560819055168,62.33236984985301,67.82889424178286,tremor
60,7229261,0.433,-0.3933774958894755,-0.2426589798700573,-0.971246669000281,9.678587037116348,62.672762431171606,67.52655300599443,tremor
61,7229266,0.438,-0.4015305096963557,-0.2442045976950653,-0.9649806575338565,9.63636137691011,62.90397051181886,67.19181736136566,tremor
62,7229293,0.465,-0.40914428623241017,-0.24575999522788783,-0.9586673602772329,9.585987533424433,63.026319258549904,66.82720430674037,tremor
63,7229298,0.47,-0.41618384991073415,-0.24732072816319925,-0.9523353144810874,9.527606061074323,63.040073820822485,66.43505828929054,tremor
64,7229303,0.475,-0.4226175718226375,-0.24888238412458882,-0.9460127863384633,9.461396197976141,62.94547345490709,66.01751734787688,tremor
65,7229308,0.48,-0.4284175678472023,-0.2504405556744477,-0.9397276145364077,9.387573741113707,62.7427764691317,65.57648004800404,tremor
66,7229313,0.485,-0.4335600989473642,-0.2519908185420934,-0.9335070566792385,9.306385164288487,62.432311240177754,65.11357419855455,tremor
67,7229318,0.49,-0.43802595764628693,-0.25352871559898754,-0.9273776367001001,9.218098540586599,62.01452840948868,64.63012829610037,tremor
68,7229323,0.495,-0.44180082353041955,-0.25504974675906145,-0.9213649917236869,9.122992138246413,61.49004966869061,64.12714651669432,tremor
69,7229328,0.5,-0.44487557059083943,-0.25654936468990663,-0.9154937174730982,9.021341757745896,60.85970919835763,63.605287892230244,tremor
70,7229333,0.505,-0.44724651029413043,-0.25802297599482993,-0.9097872121456312,8.913407950552854,60.124584753746745,63.064850094389286,tremor
71,7229338,0.51,-0.4489155564434681,-0.2594659473713335,-0.9042675196288763,8.799424212300178,59.28601650381548,62.505758030440454,tremor
72,7229348,0.52,-0.44989030107002626,-0.2608736161702771,-0.898955173900619,8.679587092996268,58.34561292503175,61.9275572572024,tremor
73,7229353,0.525,-0.4501839946156713,-0.2622413047711972,-0.893869047362752,8.554048934119201,57.30524422739607,61.329412063286505,tremor
74,7229358,0.53,-0.44981542825310467,-0.26356433825098524,-0.8890262066044209,8.422913649581762,56.16702484923483,60.71010796883275,tremor
75,7229363,0.535,-0.4488087209591947,-0.264838064950984,-0.8844417795736393,8.286235644545359,54.933287414353686,60.06805834986559,tremor
76,7229367,0.539,-0.4471930184753803,-0.2660578797307401,-0.8801288382767518,8.144021648451972,53.60655114310677,59.401314904170405,tremor
77,7229372,0.544,-0.44500211514745497,-0.2672192499139353,-0.8760983008838593,7.996234959671526,52.18948802719315,58.70758172298932,tremor
78,7229377,0.549,-0.44227401252640974,-0.2683177441514382,-0.8723588565157981,7.842801384499269,50.6848901182574,57.984232802095846,tremor
79,7229382,0.554,-0.43905043034048735,-0.2693490646086869,-0.8689169150892436,7.6836160218432,49.09564104605736,57.22833290365252,tremor
80,7229387,0.559,-0.43537628592378425,-0.2703090829874092,-0.8657765834891797,7.518550011495514,47.424694371599536,56.43666175685686,tremor
81,7229414,0.586,-0.4312991574003187,-0.27119388087309154,-0.8629396681228025,7.347456437350929,45.675060599784146,55.60574165398094,tremor
82,7229419,0.591,-0.4268687439609701,-0.27199979472245395,-0.8604057027048303,7.1701747555941635,43.84980366697509,54.73186855180683,tremor
83,7229428,0.6,-0.42213633365373704,-0.27272346544772874,-0.8581719990826819,6.986533385541938,41.95204659617475,53.81114681184045,tremor
84,7229433,0.605,-0.41715428561872486,-0.2733618920307532,-0.8562337182030474,6.796350424232786,39.984984965593334,52.83952768273475,tremor
85,7229443,0.615,-0.4119755301542285,-0.2739124879775707,-0.8545839580805769,6.5994327717686625,37.951906070721165,51.81285152602935,tremor
86,7229448,0.62,-0.4066530869531032,-0.27437313881767356,-0.8532138558800486,6.395574216186924,35.856211313382026,50.72689361179143,tremor
87,7229457,0.629,-0.40123959978162094,-0.274742258383706,-0.8521127018774246,6.184553167011863,33.701439450390474,49.57741308668343,tremor
88,7229472,0.644,-0.3957868851034579,-0.2750188413654972,-0.8512680639670461,5.966130720738527,31.491288805470443,48.36020448289189,tremor
89,7229477,0.649,-0.39034549275600566,-0.2752025096512853,-0.8506659223517262,5.7400496025848105,29.22963724566992,47.07115094019051,tremor
90,7229481,0.653,-0.3849642785596859,-0.2752935502338688,-0.850290814903803,5.506034299568083,26.920559458268517,45.706278198081186,tremor
91,7229486,0.658,-0.37968999122501473,-0.2752929429184056,-0.8501259942468867,5.263792437983371,24.568341649803937,44.26180840035766,tremor
92,7229491,0.663,-0.3745668785209934,-0.2752023766483577,-0.8501535977627953,5.013017219297591,22.177494110935694,42.73421282815467,tremor
93,7229496,0.668,-0.36963631980927736,-0.2750242538881345,-0.8503548314475093,4.753390552687898,19.752762139065,41.12026280564818,tremor
94,7229501,0.673,-0.3649364933063247,-0.2747616830950678,-0.8507101678786221,4.484586432724232,17.29913563917692,39.417078171258126,tremor
95,7229506,0.678,-0.3605020865753984,-0.27441845982450996,-0.8511995576154244,4.20627411684041,14.821857393367372,37.62217285513291,tremor
96,7229511,0.683,-0.3563640577053153,-0.27399903740089326,-0.8518026522444925,3.918120759543493,12.32642954940197,35.73349723986795,tremor
97,7229543,0.715,-0.3525494524694776,-0.2735084883292036,-0.8524990361228625,3.6197933498322046,9.818617376693103,33.749477098656236,tremor
98,7229548,0.72,-0.3490812796878069,-0.27295245770516197,-0.8532684627888573,3.3109600510219868,7.304448850154968,31.66904899544629,tremor
99,7229553,0.725,-0.34597844346130596,-0.27233710981942777,-0.854091091186506,2.9912913074222787,4.790208280254191,29.49169208385211,tremor
100,7229558,0.73,-0.3432557275615456,-0.27166906897947074,-0.854947716500918,2.6604612873742766,2.282422170781322,27.217456243904252,tremor
101,7229572,0.744,-0.34092382471439375,-0.2709553553532101,-0.8558199906881521,2.318150318406216,-0.21216416290559748,24.846986447287037,tremor
102,7229581,0.753,-0.3389894022497086,-0.2702033164387715,-0.856690628686942,1.9640489250517406,-2.686620011001457,22.381543160661163,tremor
103,7229586,0.758,-0.33745519566027116,-0.269420554642657,-0.8575435976054119,1.597863926178811,-5.133872698931443,19.823018516253825,tremor
104,7229591,0.763,-0.3363201227999986,-0.26861485144137826,-0.8583642875553564,1.2193268184119719,-7.546760226637241,17.17394793364253,tremor
105,7229596,0.768,-0.33557941336864905,-0.2677940887181196,-0.8591396639403721,0.828204402042526,-9.91809171739131,14.437516886987096,tremor
106,7229600,0.772,-0.335224750533558,-0.26696616808453194,-0.85985840167772,0.424311341481841,-12.240713938584875,11.617562575546748,tremor
107,7229606,0.778,-0.33524442361296936,-0.2661389292730025,-0.8605110019728406,0.007524137586022274,-14.507582080214895,8.718570352618913,tremor
108,7229615,0.787,-0.3356234923611108,-0.26532006896044363,-0.8610898919066392,-0.4222041485875928,-16.711833112191453,5.745664877030816,tremor
109,7229625,0.797,-0.3363439643204413,-0.26451706160158783,-0.8615895063409237,-0.8648291306679811,-18.84686032443066,2.7045960566278677,tremor
110,7229635,0.807,-0.3373849868052548,-0.2637370839481302,-0.8620063506449436,-1.3202009590577124,-20.906388013306085,-0.39828005679483175,tremor
111,7229661,0.833,-0.3387230543450757,-0.262986944857265,-0.8623390416970881,-1.7880513513488658,-22.884545632291704,-3.556025201533679,tremor
112,7229666,0.838,-0.34033223103721233,-0.26227302172707023,-0.8625883237760104,-2.2679821449116817,-24.775940980144888,-6.761147434129111,tremor
113,7229671,0.843,-0.34218438566738657,-0.2616012044736231,-0.8627570555970414,-2.7594555349481444,-26.575732069656862,-10.00563404931398,tremor
114,7229676,0.848,-0.34424943622938264,-0.26097684748371525,-0.8628501650731671,-3.261786036197983,-28.27969716079764,-13.280988753383733,tremor
115,7229681,0.853,-0.3464956000755966,-0.2604047295551598,-0.8628745694175608,-3.774134184736714,-29.884302088570102,-16.578273020494713,tremor
116,7229685,0.857,-0.34888964650617227,-0.25988902155642063,-0.8628390597986129,-4.295502063452135,-31.38676356739233,-19.888151610083796,tremor
117,7229700,0.872,-0.3513971499849055,-0.2594332614252407,-0.8627541516325304,-4.824730848170648,-32.78510671888766,-23.200942242505246,tremor
118,7229705,0.877,-0.3539827440196275,-0.2590403361672828,-0.8626319034519374,-5.360500693609562,-34.07821472747292,-26.506669419138543,tremor
119,7229710,0.882,-0.3566103776725104,-0.2587124706716797,-0.8624857088448006,-5.901333383837164,-35.26586833307451,-29.795122337266932,tremor
120,7229714,0.886,-0.35924357827214504,-0.2584512233757318,-0.8623300669936329,-6.4455982396588665,-36.34877286342292,-33.05591679387115,tremor
121,7229719,0.891,-0.3618457248495469,-0.25825748902384194,-0.8621803377393751,-6.991521789772022,-37.328570699799336,-36.27856090030181,tremor
122,7229724,0.896,-0.36438033693513655,-0.2581315089216661,-0.8620524868633505,-7.53720166908746,-38.20783742811923,-39.45252434554551,tremor
123,7229734,0.906,-0.3668113826272827,-0.25807288914768844,-0.8619628265531489,-8.080625110546393,-38.99006040117654,-42.567310853158475,tremor
124,7229739,0.911,-0.36910360838460043,-0.2580806271301965,-0.8619277549802652,-8.619692252147708,-39.67959898869879,-45.61253337825703,tremor
125,7229743,0.915,-0.37122289097213884,-0.25815314682081647,-0.8619634977758288,-9.152244293891375,-40.28162639821518,-48.57799148636044,tremor
126,7229748,0.92,-0.3731366096111032,-0.25828834240203064,-0.862085853157522,-9.67609631607955,-40.802053597334705,-51.45375024359609,tremor
127,7229758,0.93,-0.37481403386848294,-0.25848363007478514,-0.8623099417235253,-10.189074319262335,-41.247436541676656,-54.2302198255266,tremor
128,7229785,0.957,-0.3762267203963528,-0.2587360070163441,-0.862649961615893,-10.689055777111784,-41.624868591560805,-56.89823491958486,tremor
129,7229790,0.962,-0.3773489094914988,-0.2590421161237866,-0.8631189499170516,-11.174012722247761,-41.9418606457416,-59.4491328615894,tremor
130,7229795,0.967,-0.378157910788269,-0.2593983147232683,-0.8637285517473262,-11.642056141879,-42.20621205894117,-61.87482933163861,tremor
131,7229800,0.972,-0.37863446640022813,-0.2598007450929493,-0.8644887994564332,-12.091480288076557,-42.42587574989853,-64.16789036891299,tremor
132,7229804,0.976,-0.3787630795961674,-0.26024540446754635,-0.8654079053530731,-12.520805438553287,-42.60882099577814,-66.32159946749992,tremor
133,7229809,0.981,-0.37853229761732304,-0.2607282121816167,-0.8664920723847251,-12.928817678497499,-42.76289727237523,-68.33001858082027,tremor
134,7229814,0.986,-0.37793493839920284,-0.2612450717533462,-0.8677453278968366,-13.314604389619229,-42.89570220913355,-70.18804196972879,tremor
135,7229819,0.991,-0.37696825260593647,-0.2617919259836261,-0.8691693859591532,-13.677584304089985,-43.0144563486737,-71.89144195967344,tremor
136,7229828,1.0,-0.3756340143831997,-0.2623648035183105,-0.8707635436905247,-14.017531188551647,-43.125886976048115,-73.43690581409298,tremor
137,7229833,1.005,-0.37393853646695874,-0.262959855766873,-0.8725246165261904,-14.334590448919961,-43.23612284641561,-74.82206307832067,tremor
138,7229843,1.015,-0.37189260762821064,-0.2635733835572951,-0.8744469164738999,-14.629288173582886,-43.350601221042645,-76.04550289686189,tremor
139,7229848,1.02,-0.3695113527603327,-0.26420185339900915,-0.8765222761570447,-14.90253234711695,-43.473988247704995,-77.1067809550551,tremor
140,7229853,1.025,-0.3668140180970497,-0.26484190368465343,-0.8787401199458957,-15.155606159286558,-43.6101134146356,-78.00641584384785,tremor
141,7229858,1.03,-0.3638236859702371,-0.26549034155254675,-0.881087581867018,-15.390153499909674,-43.761918577436504,-78.745874795338,tremor
142,7229863,1.035,-0.36056692509211746,-0.2661441314310939,-0.8835496684013197,-15.60815686884549,-43.931421898894605,-79.32754888830712,tremor
143,7229868,1.04,-0.3570733835327037,-0.26680037648462995,-0.8861094628626431,-15.811908044736112,-44.11969693087347,-79.75471797651208,tremor
144,7229873,1.045,-0.3533753323625628,-0.2674562942825438,-0.8887483668883015,-16.003971949761777,-44.326866980173264,-80.03150574475146,tremor
145,7229877,1.049,-0.3495071683810342,-0.2681091880345543,-0.8914463737308099,-16.187144223610115,-44.552114816919094,-80.1628254445412,tremor
146,7229882,1.054,-0.34550488451049277,-0.26875641469350453,-0.8941823675449572,-16.364403081388524,-44.79370769186154,-80.15431699953456,tremor
147,7229909,1.081,-0.3414055163778074,-0.26939535114208824,-0.8969344427203267,-16.538856082176707,-45.049037518725875,-80.01227629901875,tremor
148,7229914,1.086,-0.3372465734026323,-0.27002335957124424,-0.8996802374934577,-16.713682486737547,-45.31467594102499,-79.74357761514077,tremor
149,7229924,1.096,-0.33306546246011004,-0.27063775305005233,-0.9023972765202343,-16.89207195198702,-45.586443828899114,-79.35559018564486,tremor
150,7229928,1.1,-0.3288989119827548,-0.27123576221044404,-0.9050633176761615,-17.07716041565529,-45.85949452757359,-78.8560900988533,tremor
151,7229933,1.105,-0.3247824042886999,-0.2718145039523689,-0.9076566989191293,-17.271964170521937,-46.12840989866517,-78.25316870082708,tremor
152,7229938,1.11,-0.3207496239870083,-0.2723709531258882,-0.9101566814437785,-17.479313290572424,-46.38730786972818,-77.55513881408822,tremor
153,7229943,1.115,-0.3168319304693433,-0.27290191825171245,-0.9125437854819721,-17.701785715846675,-46.62995986155038,-76.77044010984133,tremor
154,7229948,1.12,-0.31305786267426666,-0.2734040224689413,-0.914800114937808,-17.941643402961667,-46.849916124206224,-75.90754500806607,tremor
155,7229952,1.124,-0.3094526844273139,-0.27387369100833975,-0.9169096666308223,-18.200771995557393,-47.04063670319603,-74.97486648966843,tremor
156,7229957,1.129,-0.3060379786465658,-0.2743071465407028,-0.9188586193437973,-18.480625464536484,-47.195625491444076,-73.9806691907853,tremor
157,7229962,1.134,-0.30283129850004037,-0.2747004137068221,-0.9206355972409194,-18.78217711623652,-47.3085646124594,-72.93298511091385,tremor
158,7229967,1.139,-0.2998458831651583,-0.2750493339738147,-0.9222319016530178,-19.105878272540657,-47.373446232290206,-71.83953520326472,tremor
159,7229976,1.148,-0.29709044515186517,-0.275349591674985,-0.9236417048288545,-19.451625795464782,-47.38469881903451,-70.70765802659751,tremor
160,7229981,1.153,-0.2945690352094399,-0.27559675168863745,-0.924862199124124,-19.81873946421745,-47.33730486680073,-69.54424652144984,tremor
161,7229986,1.158,-0.29228098965205795,-0.27578630872331006,-0.9258936953319425,-20.205950017252178,-47.22690719117504,-68.35569382854237,tremor
162,7229992,1.164,-0.29022096352288723,-0.2759137476427338,-0.9267396645241255,-20.611398445126984,-47.04990110459077,-67.14784889254929,tremor
163,7229997,1.169,-0.2883790513893074,-0.27597461372940235,-0.9274067189130659,-21.032646861471655,-46.803510103141605,-65.92598239323685,tremor
164,7230001,1.173,-0.2867409957502043,-0.2759645912949066,-0.9279045288498344,-21.466700991516618,-46.48584313502571,-64.69476332537761,tremor
165,7230006,1.178,-0.2852884810754547,-0.2758795886328006,-0.9282456750829061,-21.910044007452026,-46.09593205785985,-63.45824631702272,tremor
166,7230033,1.205,-0.28399950942769164,-0.27571582699781155,-0.9284454377127788,-22.358681118416914,-45.633748508254634,-62.219869538614994,tremor
167,7230038,1.21,-0.2828488514879357,-0.2754699310955191,-0.9285215257540892,-22.808194005848062,-45.10020007642926,-60.98246281944322,tremor
168,7230048,1.22,-0.28180856469978827,-0.2751390184860592,-0.9284937536665675,-23.2538039041385,-44.49710635653561,-59.74826536655501,tremor
169,7230052,1.224,-0.28084856828261034,-0.27472078534721517,-0.9283836733903201,-23.69044188783696,-43.82715606599341,-58.51895229493,tremor
170,7230058,1.23,-0.27993726318331996,-0.2742135862003806,-0.9282141720791086,-24.112824760997608,-43.093846933733985,-57.295669042275094,tremor
171,7230062,1.234,-0.279042183755813,-0.2736165054568442,-0.9280090467286343,-24.51553485958055,-42.301410417164604,-56.07907265761881,tremor
172,7230068,1.24,-0.2781306671393713,-0.27292941896116696,-0.9277925672385123,-24.893102067382166,-41.45472352872548,-54.869378907295356,tremor
173,7230072,1.244,-0.27717052596325914,-0.27215304406270446,-0.9275890392081172,-25.24008639405561,-40.559210168767045,-53.666414119184836,tremor
174,7230077,1.249,-0.2761307101108809,-0.2712889771112394,-0.9274223770618444,-25.55115955285597,-39.62073441228518,-52.46967067423733,tremor
175,7230082,1.254,-0.2749819437931122,-0.27033971763024,-0.9273156970446182,-25.821184092313658,-38.64548821624279,-51.27836504690708,tremor
176,7230087,1.259,-0.2736973250549598,-0.2693086787583565,-0.9272909383298567,-26.045288771552446,-37.63987602486313,-50.091497291262115,tremor
177,7230092,1.264,-0.27225287600872206,-0.268200183857328,-0.9273685190311867,-26.218939016877172,-36.61039876615955,-48.907910868102135,tremor
178,7230097,1.269,-0.27062803347718134,-0.26701944945679434,-0.9275670323831768,-26.33800145060366,-35.56353975889754,-47.72635171310742,tremor
179,7230112,1.284,-0.2688060712661621,-0.2657725549410659,-0.9279029868211229,-26.398801634899765,-34.50565508025213,-46.54552546139245,tremor
180,7230116,1.288,-0.26677444689403196,-0.26446639958056334,-0.9283905922028202,-26.39817431823869,-33.44287096187725,-45.36415177696916,tremor
181,7230121,1.293,-0.2645250672232835,-0.26310864767619857,-0.9290415930253771,-26.33350560685812,-32.38099074516442,-44.181014797149416,tremor
182,7230126,1.298,-0.26205446902554524,-0.26170766272727153,-0.929865148237865,-26.202766607904582,-31.325413773636875,-42.99500880455014,tremor
183,7230155,1.327,-0.259363912061256,-0.2602724316639445,-0.9308677561673869,-26.004538208240657,-30.281068274357796,-41.805178392085885,tremor
184,7230160,1.332,-0.2564593838072802,-0.2588124803144327,-0.9320532221873751,-25.738026772586696,-29.252359758389822,-40.610752587021835,tremor
185,7230164,1.336,-0.25335151660222655,-0.2573377814094852,-0.9334226660888812,-25.403070681168263,-28.24313577309969,-39.41117263184337,tremor
186,7230174,1.346,-0.25005541980168267,-0.2558586565589688,-0.9349745656943547,-25.00013779292778,-27.256667023353497,-38.20611335366322,tremor
187,7230179,1.351,-0.2465904315971226,-0.2543856737570256,-0.9367048330848938,-24.530314115508574,-26.29564403717799,-36.99549826001416,tremor
188,7230183,1.355,-0.24297979738510084,-0.2529295420703002,-0.9386069198622213,-23.995284170232686,-25.36218780394776,-35.77950865698396,tremor
189,7230188,1.36,-0.2392502837840621,-0.2515010052258786,-0.9406719480660919,-23.397303733887618,-24.457872267879942,-34.55858718971027,tremor
190,7230198,1.37,-0.23543173933720374,-0.2501107358320456,-0.9428888636340729,-22.73916580106176,-23.5837562669997,-33.33343626092658,tremor
191,7230203,1.375,-0.231556614386027,-0.24876923192839917,-0.9452446095460554,-22.024160734539098,-22.74042245106362,-32.10501180286737,tremor
192,7230213,1.385,-0.2276594533733925,-0.2474867174654198,-0.9477243159751532,-21.256031654399006,-21.928020842616775,-30.874512874239148,tremor
193,7230222,1.394,-0.2237763728118355,-0.2462730481497428,-0.9503115048246662,-20.438926153198345,-21.146314978854285,-29.643367536633946,tremor
194,7230227,1.399,-0.21994453729240301,-0.2451376238555738,-0.9529883059542081,-19.57734540816663,-20.394728950678772,-28.413215440632666,tremor
195,7230233,1.405,-0.21620164430248034,-0.24408930850087796,-0.9557356822128206,-18.67609169061336,-19.67239409494871,-27.185887526761142,tremor
196,7230237,1.409,-0.2125854264898063,-0.24313635794043284,-0.9585336601643328,-17.74021515569578,-18.97819454308106,-25.963383224672764,tremor
197,7230242,1.414,-0.20913317764748315,-0.24228635607147678,-0.9613615631931778,-16.77496064855139,-18.310811232240518,-24.747845518249086,tremor
198,7230247,1.419,-0.2058813063926885,-0.24154615902299126,-0.9641982436021795,-15.785715106006963,-17.66876430290597,-23.54153423818904,tremor
199,7230252,1.424,-0.20286491950920826,-0.2409218470458019,-0.9670223104263765,-14.777955985712143,-17.050454007268478,-22.346797952417276,tremor
200,7230278,1.45,-0.2001174353897597,-0.24041868356749846,-0.969812350029427,-13.757201031511226,-16.454200313655694,-21.1660448528651,tremor
201,7230288,1.46,-0.19767022705586332,-0.2400410808408615,-0.9725471371241722,-12.728959597285494,-15.878281306669674,-20.00171308234817,tremor
202,7230293,1.465,-0.19555229390948362,-0.2397925716992458,-0.9752058346160822,-11.698685710910919,-15.32097027919704,-18.85624099254985,tremor
203,7230298,1.47,-0.19378996167222304,-0.23967578711972307,-0.9777681814951943,-10.671733066250326,-14.780571160116988,-17.732037850779733,tremor
204,7230302,1.474,-0.19240661077185428,-0.23969243954516414,-0.9802146687494361,-9.653312170210995,-14.255451704993055,-16.631455503560776,tremor
205,7230307,1.479,-0.19142243450514138,-0.23984331217683166,-0.9825267038106371,-8.64844992000611,-13.744073754088362,-15.556761461513783,tremor
206,7230312,1.484,-0.19085422936343002,-0.24012825467003715,-0.9846867643082996,-7.661951922558665,-13.245019845107917,-14.510113806960069,tremor
207,7230317,1.489,-0.19071522072580774,-0.240546185813196,-0.9866785418929415,-6.698367883389137,-12.757015539920463,-13.49353825657705,tremor
208,7230322,1.494,-0.19101492756159344,-0.24109510382806648,-0.9884870766374348,-5.761960382981729,-12.278946960968135,-12.508907643279938,tremor
209,7230326,1.498,-0.19175906977500864,-0.2417721048916493,-0.9900988820892905,-4.85667732403574,-11.80987321209905,-11.557924017349771,tremor
210,7230331,1.503,-0.19294952136724497,-0.24257341035327862,-0.9915020605020266,-3.9861282759331726,-11.349033560356986,-10.642103508446766,tremor
211,7230336,1.508,-0.19458431173172763,-0.24349440291684124,-0.9926864072013715,-3.15356486981998,-10.89584946209543,-9.76276403810135,tremor
212,7230341,1.513,-0.1966576762241644,-0.2445296717973977,-0.9936435025218485,-2.361865317541421,-10.44992171337551,-8.921015925639129,tremor
213,7230346,1.518,-0.19916015577587384,-0.2456730665682342,-0.9943667893476711,-1.6135230484493188,-10.01102317768298,-8.117755387456155,tremor
214,7230351,1.523,-0.20207874387659952,-0.24691775911512126,-0.9948516340574742,-0.9106393863270268,-9.579087681604182,-7.353660888493689,tremor
215,7230356,1.528,-0.205397077867599,-0.24825631283451086,-0.995095368636634,-0.25492012906175276,-9.154195761677563,-6.62919226502543,tremor
216,7230361,1.533,-0.20909567026597614,-0.24968075797307512,-0.9950973118979183,0.3523241509039519,-8.736557989166293,-5.944592499971438,tremor
217,7230366,1.538,-0.21315217487146584,-0.2511826718252673,-0.9948587681366371,0.9101742959596456,-8.326496597350204,-5.299891996926141,tremor
218,7230370,1.542,-0.2175416817455036,-0.2527532623988456,-0.9943830021177154,1.418095466870061,-7.9244260966570685,-4.694915167482865,tremor
219,7230400,1.572,-0.22223703483114904,-0.25438345413585134,-0.9936751900092321,1.8759269862780192,-7.530833496580863,-4.129289118092249,tremor
220,7230405,1.577,-0.22720916600068228,-0.25606397433616135,-0.9927423466797938,2.2838693417502625,-7.146258670294547,-3.602454197613397,tremor
221,7230410,1.582,-0.23242743962882806,-0.2577854390531615,-0.9915932305791468,2.6424685604427527,-6.771275309687273,-3.1136761459187112,tremor
222,7230415,1.587,-0.2378600022962791,-0.2595384373858887,-0.9902382281179439,2.9525981656247193,-6.4064728364853405,-2.6620595692337874,tremor
223,7230420,1.592,-0.24347413280877236,-0.261313613249741,-0.9886892199674108,3.2154389330228628,-6.052439565986822,-2.246562460940651,tremor
224,7230424,1.596,-0.24923658827006712,-0.26310174384897694,-0.986959431984909,3.4324566806502967,-5.709747363697474,-1.866011487702401,tremor
225,7230429,1.601,-0.2551139424175492,-0.2648938141904497,-0.9850632735685245,3.605378344322683,-5.378937987035736,-1.5191177690352218,tremor
226,7230439,1.611,-0.26107291280270684,-0.2666810870693061,-0.9830161662105794,3.7361666076343765,-5.0605112585825465,-1.2044928926217795,tremor
227,7230449,1.621,-0.26708067368702204,-0.2684551680285746,-0.980834364911122,3.8269933672679013,-4.754915169007289,-0.920664927142768,tremor
228,7230454,1.626,-0.27310515175552547,-0.2702080648536354,-0.9785347749705433,3.880212321424601,-4.462537952565492,-0.6660942189635832,tremor
229,7230458,1.63,-0.27911530196663803,-0.27193224121910176,-0.9761347665362975,3.898330970718897,-4.183702114090669,-0.4391887876219274,tremor
230,7230468,1.64,-0.28508136110293597,-0.273620664168058,-0.9736519891514075,3.883982316836129,-3.918660316519437,-0.2383191655927673,tremor
231,7230473,1.645,-0.2909750768968561,-0.2752668451757796,-0.9711041884486961,3.839896534680919,-3.6675929697886147,-0.06183255798959192,tremor
232,7230482,1.654,-0.29676991098952304,-0.27686487463015086,-0.9685090270498167,3.768872879654747,-3.430607304975256,0.09193377389183185,tremor
233,7230487,1.659,-0.30244121442939537,-0.27840944964306474,-0.9658839116495362,3.6737520749862043,-3.207737679871365,0.22463997593095908,tremor
234,7230492,1.664,-0.30796637490538925,-0.2798958951838286,-0.9632458281770634,3.5573894064619744,-2.9989468483773685,0.33793196027835354,tremor
235,7230497,1.669,-0.31332493540397516,-0.281320178590463,-0.960611186812083,3.42262873425267,-2.8041279372733587,0.4334306906679831,tremor
236,7230522,1.694,-0.31849868444681156,-0.2826789175633591,-0.9579956784833022,3.272277614009187,-2.6231069088197456,0.512722409441247,tremor
237,7230531,1.703,-0.32347171847356054,-0.2839693817773321,-0.9554141442895443,3.109083702757031,-2.455645342957426,0.5773498101466851,tremor
238,7230536,1.708,-0.3282304772606949,-0.28518948826705715,-0.9528804590633486,2.9357126106530678,-2.3014434420278977,0.6288041515788736,tremor
239,7230546,1.718,-0.3327637535014026,-0.2863377907566018,-0.9504074300556675,2.754727348175744,-2.160143233017887,0.6685183048154963,tremor
240,7230551,1.723,-0.3370626778214305,-0.2874134631270442,-0.9480067114713042,2.568569509239144,-2.0313320042639216,0.6978607231492959,tremor
241,7230555,1.727,-0.34112068059473266,-0.2884162772539454,-0.9456887353416725,2.379542322412016,-1.9145460546618942,0.7181303234898363,tremor
242,7230560,1.732,-0.34493343198295967,-0.28934657549935267,-0.9434626589944917,2.1897956929419466,-1.809274848735267,0.7305522646843664,tremor
243,7230565,1.737,-0.3484987616823747,-0.29020523820702,-0.9413363291743423,2.0013133460699617,-1.7149656614210465,0.7362746029382831,tremor
244,7230570,1.742,-0.35181655993830635,-0.29099364661895755,-0.9393162626837748,1.815902166342576,-1.6310287677434372,0.7363657983861369,tremor
245,7230575,1.747,-0.3548886614875179,-0.2917136417008385,-0.9374076432483212,1.6351838081199077,-1.5568431926648998,0.7318130410701016,tremor
246,7230579,1.751,-0.35771871421202117,-0.2923674794287819,-0.935614334154693,1.46058862947633,-1.4917629931703404,0.7235213593280039,tremor
247,7230594,1.766,-0.36031203442800874,-0.29295778314732346,-0.9339389060634922,1.293351975777563,-1.4351240040044322,0.7123134687864464,tremor
248,7230599,1.771,-0.36267545088035874,-0.2934874936558396,-0.932382679250344,1.1345128113470795,-1.3862509440573154,0.698930316248639,tremor
249,7230604,1.776,-0.36481713965122026,-0.29395981771706897,-0.9309457793780209,0.9849146689321079,-1.3444647537456318,0.684032270541914,tremor
250,7230608,1.78,-0.3667464523016096,-0.2943781757060693,-0.9296272057440665,0.845208858212477,-1.3090900148961384,0.6682009121338116,tremor
251,7230613,1.785,-0.36847373963037405,-0.2947461491307783,-0.9284249107837155,0.7158598472797655,-1.2794622925641117,0.65194137450648,tremor
252,7230618,1.79,-0.37001017344518755,-0.2950674287565653,-0.9273358894405482,0.5971527056055924,-1.2549352313679218,0.6356851919715885,tremor
253,7230644,1.816,-0.3713675686940529,-0.29534576405713814,-0.9263562768552897,0.48920247421696433,-1.234887236123379,0.6197936099279444,tremor
254,7230649,1.821,-0.37255820820843283,-0.29558491469271586,-0.9254814526781768,0.39196530922674,-1.2187275678284608,0.6045613138282815,tremor
255,7230654,1.826,-0.37359467217095055,-0.2957886046821315,-0.9247061501981506,0.30525122845672253,-1.2059016929986366,0.5902205322003554,tremor
256,7230659,1.831,-0.37448967425569846,-0.29596047988642005,-0.9240245684205316,0.22873827626337656,-1.1958957397360646,0.5769454676952575,tremor
257,7230663,1.835,-0.3752559062121755,-0.2961040693564525,-0.9234304852266271,0.16198790686299336,-1.1882399399031833,0.5648570094667623,tremor
258,7230668,1.84,-0.37590589248525275,-0.2962227510178385,-0.9229173698146877,0.10446137049447464,-1.1825109732978871,0.5540276809153755,tremor
259,7230683,1.855,-0.3764518562876634,-0.29631972207638657,-0.9224784927407085,0.05553687027672031,-1.1783331744259642,0.5444867787372211,tremor
260,7230688,1.86,-0.37690559836777765,-0.29639797443123284,-0.922107032032774,0.014527241895785695,-1.175378611470245,0.5362256612293594,tremor
261,7230693,1.865,-0.37727838954064785,-0.2964602752840835,-0.9217961740259646,-0.01930210588228497,-1.1733660954612923,0.5292031443554946,tremor
