sample,t_ms,t_s,ax,ay,az,gx,gy,gz,tremor
0,7366406,0.0,-0.5001390372914327,-0.019640612270143725,-0.9066026971880158,-12.427586274224117,15.02932202365824,-3.083195617266695,tremor
1,7366411,0.005,-0.49985841348697857,-0.019670344085325562,-0.9076579672511003,-12.495965257175888,17.15631354618777,-3.6400231748465526,tremor
2,7366416,0.01,-0.49934132039200047,-0.019686760111916102,-0.9091302790214845,-12.535761979888928,19.0045572160264,-4.167826171713472,tremor
3,7366420,0.014,-0.49849035360755595,-0.01967271187672013,-0.9110615499202199,-12.543508192075585,20.558423009219563,-4.663168022352873,tremor
4,7366425,0.019,-0.49722957579246024,-0.01960829617032795,-0.9134189232275765,-12.515714465625798,21.803952653240575,-5.122683124280744,tremor
5,7366430,0.024,-0.4955116653597451,-0.019475035974614766,-0.9161277664831652,-12.4489006944814,22.729026982482864,-5.543101338469224,tremor
6,7366435,0.029,-0.4933130623095215,-0.019257718516805578,-0.9191036771081874,-12.339629036942307,23.323525649636284,-5.921273134046651,tremor
7,7366440,0.034,-0.49062616057755654,-0.018944466731088367,-0.9222701385982471,-12.184539110550212,23.57947748860655,-6.25419524336908,tremor
8,7366449,0.043,-0.48745297119738484,-0.018526092539631285,-0.9255644408619829,-11.980385188927519,23.49119970371806,-6.539036632513188,tremor
9,7366454,0.048,-0.4838012228629856,-0.017995378118441797,-0.9289373399542628,-11.72407508806334,23.055423937398924,-6.773164548455217,tremor
10,7366459,0.053,-0.4796823972343221,-0.017346528134144626,-0.9323504169920357,-11.412710368213519,22.27140714833586,-6.9541703585335375,tremor
11,7366464,0.058,-0.47511094647644386,-0.016574823422838624,-0.9357731494127267,-11.043627416453713,21.14102511982258,-7.079894851122275,tremor
12,7366469,0.063,-0.4701041178173894,-0.01567643303071549,-0.9391804562371087,-10.614438912829197,19.668846322110085,-7.148452619723239,tremor
13,7366473,0.067,-0.4646820349120692,-0.014648332000895412,-0.9425508737071691,-10.123075119338445,17.862183784780548,-7.158255107472071,tremor
14,7366478,0.072,-0.45886784894821403,-0.013488283159824347,-0.9458652872292334,-9.567824365830646,15.731122611326537,-7.1080318480904925,tremor
15,7366483,0.077,-0.45268786950645157,-0.012194854444753832,-0.9491060885274686,-8.947372041072976,13.288520807416656,-6.996849406253377,tremor
16,7366509,0.103,-0.44617163684981187,-0.01076745371065014,-0.9522566358334962,-8.260837332695651,10.549981216537718,-6.824127499129789,tremor
17,7366514,0.108,-0.439351922595307,-0.009206369930801515,-0.9553009218734259,-7.5078069018117235,7.5337925838028985,-6.589651777158838,tremor
18,7366519,0.113,-0.43226465709895817,-0.007512814047644969,-0.9582233811860524,-6.688364638036053,4.260838131538651,-6.293582766179186,tremor
19,7366524,0.118,-0.4249487865230201,-0.0056889553281928105,-0.9610087896302095,-5.803116633133234,0.7544705592659047,-5.936460537125453,tremor
20,7366529,0.123,-0.41744606424747427,-0.0037379506097030574,-0.9636422244099426,-4.853210546835998,-2.959646926559656,-5.519204777368191,tremor
21,7366533,0.127,-0.40980078191917896,-0.0016639647354064748,-0.9661090636398154,-3.8403486169161183,-6.853733143319508,-5.043110077508411,tremor
22,7366538,0.132,-0.4020594458519069,0.0005278189455129841,-0.968395011663448,-2.7667936816657703,-10.898113771735076,-4.509836398055817,tremor
23,7366548,0.142,-0.39427040502523003,0.002831198741137949,-0.9704861410954047,-1.6353677304179002,-15.06147642924616,-3.9213948243108643,tremor
24,7366553,0.147,-0.3864834376517411,0.005238965855160395,-0.9723689456739764,-0.44944266968353747,-19.31115312923559,-3.2801288465538483,tremor
25,7366558,0.152,-0.3787493041349221,0.007742926830023996,-0.9740304000458605,0.7870768216597639,-23.613426574726375,-2.5886915151181613,tremor
26,7366563,0.157,-0.37111927510382436,0.010333937053772318,-0.9754580239279944,2.0697782880264226,-27.933856119762265,-1.8500189175096604,tremor
27,7366568,0.162,-0.36364464395023005,0.01300194492571412,-0.9766399489524419,3.3937741071156466,-32.2376187165106,-1.06730050833391,tremor
28,7366572,0.166,-0.35637623380090194,0.015736046024416174,-0.9775649870538629,4.753741317789557,-36.489859753814045,-0.24394689217253532,tremor
29,7366578,0.172,-0.34936390906728604,0.018524546391923358,-0.9782226996028571,6.143968128102,-40.65604837978697,0.6164442860139311,tremor
30,7366587,0.181,-0.3426561015976159,0.021355033852180974,-0.978603466680578,7.558406442555932,-44.70233168085667,1.5101236499878403,tremor
31,7366592,0.186,-0.33629936100191593,0.02421445613205374,-0.9786985559630715,8.990729639137996,-48.59588195537942,2.4332258875871915,tremor
32,7366597,0.191,-0.33033793793116634,0.027089204462790117,-0.9785001906539844,10.43439472739292,-52.305231268650985,3.3818053197671345,tremor
33,7366602,0.196,-0.32481340798264524,0.029965201317913408,-0.9780016157799629,11.88270792455454,-55.80058751170788,4.351870554317586,tremor
34,7366606,0.2,-0.3197643425089363,0.032827990992168564,-0.9771971619538827,13.328892596728764,-59.054126314079525,5.339417580355405,tremor
35,7366633,0.227,-0.31522603098881535,0.03566283183698696,-0.9760823054354413,14.766158428616167,-62.04025338572118,6.340460722158824,tremor
36,7366638,0.232,-0.3112302578569426,0.03845478912492859,-0.9746537230118582,16.18777061485229,-64.73583221104856,7.351060947935456,tremor
37,7366643,0.237,-0.30780513488207156,0.04118882769966488,-0.9729093399457719,17.587117823319247,-67.1203725601033,8.36735112420279,tremor
38,7366648,0.242,-0.30497498842621795,0.04384990376094275,-0.9708483690808434,18.957777686130655,-69.17617611538114,9.38555792768039,tremor
39,7366653,0.247,-0.3027602992818021,0.046423055320774266,-0.9684713392410517,20.29357864129603,-70.88843668355834,10.402020277209688,tremor
40,7366658,0.252,-0.30117769129669403,0.04889349103823917,-0.9657801113451502,21.588657075745918,-72.24529391975169,11.41320432029435,tremor
41,7366662,0.256,-0.30023996364362876,0.05124667729114341,-0.9627778811659199,22.837508897087247,-73.23784113779865,12.415715187555495,tremor
42,7366667,0.261,-0.29995616034025074,0.05346842347171218,-0.9594691683435279,24.035034876351,-73.86008952604868,13.406305900206089,tremor
43,7366677,0.271,-0.30033166945669854,0.055544965600065166,-0.9558597920502228,25.176579350199418,-74.1088928685952,14.381883971258118,tremor
44,7366692,0.286,-0.3013683433601925,0.0574630484333024,-0.9519568345302709,26.25796214464535,-73.98383860906235,15.339516372993648,tremor
45,7366697,0.291,-0.3030646303855569,0.059210006309359645,-0.9477685945253764,27.275503878899524,-73.48711265044798,16.276433641202367,tremor
46,7366701,0.295,-0.3054157076018747,0.06077384300238812,-0.9433045332513682,28.226045113508945,-72.62334643159028,17.190033935312528,tremor
47,7366706,0.3,-0.3084136040545202,0.062143310877985226,-0.9385752160271259,29.106960089822532,-71.39945529898944,18.077887854059316,tremor
48,7366716,0.31,-0.3120473042131726,0.06330798961797902,-0.9335922528101284,29.91616602401284,-69.82447685933145,18.93774470456525,tremor
49,7366721,0.315,-0.3163028225463416,0.06425836472801383,-0.9283682407524056,30.65212902708823,-67.90941690232974,19.767540735184003,tremor
50,7366730,0.324,-0.3211632423405446,0.06498590593317312,-0.9229167114878892,31.313867693689357,-65.66710877834339,20.565409576156267,tremor
51,7366762,0.356,-0.3266087152128876,0.06548314538728568,-0.9172520852516028,31.900955224125514,-63.112089950628814,21.32969480528709,tremor
52,7366767,0.361,-0.3326164221974312,0.06574375535107198,-0.9113896331732138,32.413520627580866,-60.26049698465586,22.058964206290494,tremor
53,7366772,0.366,-0.33916050244520396,0.0657626246283162,-0.9053454482424979,32.85224914612399,-57.12997774358401,22.75202497478508,tremor
54,7366777,0.371,-0.3462119607089538,0.06553593260985553,-0.8991364245692257,33.21838161371489,-53.739617346964714,23.407938908875323,tremor
55,7366787,0.381,-0.35373856901665085,0.06506121930898405,-0.8927802437034907,33.51371209376578,-50.10987275463091,24.026036517599827,tremor
56,7366791,0.385,-0.3617047806746905,0.06433744933513438,-0.8862953659831848,33.740582862773856,-46.26250972358505,24.60592896829993,tremor
57,7366796,0.39,-0.37007167579636807,0.06336506739799813,-0.8797010241684909,33.90187563282913,-42.22053530774156,25.147516841921707,tremor
58,7366801,0.395,-0.37879695700959926,0.06214604270505864,-0.8730172160488086,34.00099782385618,-38.00811897980408,25.65099476271523,tremor
59,7366806,0.4,-0.3878350120631761,0.060683899541525164,-0.8662646923078026,34.04186269572832,-33.65049581770433,26.116851119736683,tremor
60,7366811,0.405,-0.3971370569892792,0.05898373141338277,-0.8594649357418844,34.028862220579015,-29.173845967045036,26.545862301560987,tremor
61,7366815,0.409,-0.40665136959239423,0.05705219638444426,-0.85264012796746,33.966831711157404,-24.605145704943812,26.93908111105511,tremor
62,7366820,0.414,-0.41632361861209094,0.05489749163006793,-0.8458131000321111,33.86100542240363,-19.97198683759667,27.297819295430504,tremor
63,7366825,0.419,-0.42609728919875045,0.052529305744233576,-0.8390072638649744,33.71696261362654,-15.302362825909706,27.62362439860159,tremor
64,7366830,0.424,-0.4359142005500528,0.04995874795362207,-0.8322465222533683,33.54056389793106,-10.624421915956935,27.918251402897564,tremor
65,7366835,0.429,-0.4457151068445623,0.04719825409320829,-0.8255551559969907,33.33787810716514,-5.966189611929163,28.183629867803067,tremor
66,7366849,0.443,-0.4554403681091869,0.04426146996371615,-0.8189576880358608,33.115100351274435,-1.3552650158658346,28.421827493447122,tremor
67,7366854,0.448,-0.46503067349014393,0.041163113501559975,-0.8124787256234295,32.8784624348054,3.181502198102856,28.635011235741022,tremor
68,7366882,0.476,-0.4744277957069635,0.03791881801985221,-0.8061427829441874,32.63413729462718,7.618345216537095,28.825407272291297,tremor
69,7366887,0.481,-0.4835753524677886,0.03454495958434839,-0.7999740878446313,32.38813961800217,11.930913034802066,28.995261245218416,tremor
70,7366891,0.485,-0.49241954861186765,0.03105847231132155,-0.7939963774232432,32.146225241472116,16.096590692388755,29.14680025580825,tremor
71,7366896,0.49,-0.5009098720641271,0.027476655943573004,-0.7882326879835868,31.913792248837492,20.094794201276123,29.282198021176058,tremor
72,7366901,0.495,-0.508999717591216,0.023816980416944123,-0.7827051452234995,31.695786823065664,23.907228333902943,29.403544415200894,tremor
73,7366906,0.5,-0.516646914876589,0.02009689225103109,-0.7774347605226689,31.496616851388673,27.51809712396129,29.512820335832977,tremor
74,7366911,0.505,-0.523814141404143,0.016333627499667068,-0.7724412388731485,31.32007606586598,30.91425915621825,29.611878519644804,tremor
75,7366916,0.51,-0.5304692057625032,0.01254403571064804,-0.7677428034613978,31.169281164386515,34.08532216564893,29.702430601840497,tremor
76,7366926,0.52,-0.5365851929340957,0.008744418901423953,-0.7633560412289119,31.04662393099174,37.023673967785555,29.7860404137189,tremor
77,7366930,0.524,-0.5421404695771594,0.004950388986056701,-0.7592957729615153,30.953739880120136,39.72444921650363,29.864123225929507,tremor
78,7366935,0.529,-0.5471185538705958,0.0011767464148356157,-0.755574950616973,30.89149440244201,42.18543386020268,29.93795039148385,tremor
79,7366940,0.534,-0.5515078607632122,-0.002562617963599678,-0.7522045837159542,30.859986807387997,44.406911369328505,30.008658628219376,tremor
80,7366945,0.539,-0.555301339060333,-0.0062547966127089365,-0.7491936957041887,30.858572061693916,46.391456778008894,30.07726301527845,tremor
81,7366950,0.544,-0.558496021386601,-0.00988791421987422,-0.7465493102530869,30.88589944084164,48.14368628557534,30.14467266321656,tremor
82,7366954,0.548,-0.5610925114875351,-0.01345115227580998,-0.744276466513114,30.939966766845178,49.669971580092955,30.211707947348934,tremor
83,7366959,0.553,-0.5630944354600299,-0.016934750603592667,-0.742378261384099,31.018188421512008,50.97812915475676,30.279118163287265,tremor
84,7366964,0.558,-0.5645078842758456,-0.02032998788833257,-0.740855915940625,31.117474911236783,52.0770956642171,30.34759846975503,tremor
85,7366969,0.563,-0.5653408743865667,-0.023629143956348436,-0.7397088622763938,31.23432142180336,52.97660078773877,30.417805027331138,tremor
86,7366974,0.568,-0.5656028513544077,-0.026825447157274314,-0.7389348462431552,31.364902539072606,53.686849107073684,30.490367325631116,tremor
87,7366979,0.573,-0.5653042584882673,-0.02991301069427428,-0.7385300408972861,31.50517012416803,54.21822214458799,30.565896819629753,tremor
88,7367007,0.601,-0.5644561885635561,-0.03288676210779,-0.738489164976193,31.650951226994234,54.58101091855733,30.644991171471784,tremor
89,7367011,0.605,-0.563070132074411,-0.0357423703235508,-0.7388056004665755,31.79804291914608,54.785188142107565,30.72823361506691,tremor
90,7367016,0.61,-0.561157830349002,-0.038476174689466756,-0.7394715033822725,31.942301059352683,54.84022750909533,30.8161872154214,tremor
91,7367021,0.615,-0.5587312365373777,-0.04108512020234174,-0.7404779023400686,32.07972030144974,54.754975380549325,30.909384063538557,tremor
92,7367026,0.62,-0.5558025822511659,-0.04356670263467857,-0.7418147804630284,32.20650311256986,54.537577680585684,31.008309711559686,tremor
93,7367031,0.625,-0.552384542737551,-0.045918926530601735,-0.7434711375065505,32.31911614029729,54.19546208989887,31.113383399586365,tremor
94,7367036,0.63,-0.5484904890613991,-0.04814027810971379,-0.7454350307518172,32.41433289106726,53.73537288067648,31.224934849973025,tremor
95,7367040,0.634,-0.5441348119319388,-0.05022971407875724,-0.7476935949703165,32.48926231805338,53.163453133041514,31.343178602978412,tremor
96,7367045,0.639,-0.5393332985900745,-0.05218666627904972,-0.7502330434743825,32.541363548352365,52.48536674694149,31.468187034583075,tremor
97,7367050,0.644,-0.5341035416056907,-0.054011061056925457,-0.7530386538085592,32.5684475939372,51.70645075692366,31.599863328436314,tremor
98,7367055,0.649,-0.5284653565603548,-0.05570335128804854,-0.7560947429139907,32.56866746652891,50.831887111511854,31.737915765624837,tremor
99,7367060,0.654,-0.5224411844561458,-0.057264558158190294,-0.7593846375505643,32.54049862162024,49.866882385391946,31.881834741895315,tremor
100,7367065,0.659,-0.5160564543555495,-0.05869631913871865,-0.7628906463508013,32.48271205771692,48.81684385856642,32.030873909559425,tremor
101,7367070,0.664,-0.5093398823008278,-0.06000093812466557,-0.7665940400883232,32.39434266430188,47.68754096227593,32.18403675490182,tremor
102,7367075,0.669,-0.5023236840815942,-0.061181433451324665,-0.7704750465776842,32.274655526298744,46.48524217169068,32.34006975207166,tremor
103,7367084,0.678,-0.4950436820042015,-0.06224157948705144,-0.7745128661113118,32.12311284875209,45.21681893466997,32.497462986023486,tremor
104,7367089,0.683,-0.4875392895073329,-0.06318593771649543,-0.7786857125331154,31.93934397364157,43.88981008341435,32.65445882867728,tremor
105,7367094,0.688,-0.4798533622387508,-0.06401987366708882,-0.78297088400807,31.723120640382728,42.512442302940684,32.80906890730338,tremor
106,7367099,0.693,-0.4720319099578835,-0.06474955666869008,-0.7873448663371825,31.474339211874486,41.0936045458675,32.95909923999068,tremor
107,7367104,0.698,-0.46412367017351,-0.06538194023909044,-0.7917834703498948,31.193011067039603,39.64277670263405,33.10218303911638,tremor
108,7367131,0.725,-0.456179551483974,-0.06592472181478877,-0.7962620035368458,30.879261769194812,38.16991527520701,33.235820305876864,tremor
109,7367136,0.73,-0.44825196174783993,-0.06638628154647774,-0.8007554747123558,30.533338984377675,36.685301158130976,33.3574229716327,tremor
110,7367145,0.739,-0.4403940428797259,-0.0667756008926798,-0.8052388291587673,30.15562848511173,35.199356743042024,33.46436402012301,tremor
111,7367150,0.744,-0.4326588394948518,-0.06710216270776338,-0.809687210440484,29.74667698675798,33.72244122006193,33.55402879848633,tremor
112,7367155,0.749,-0.42509843216128623,-0.06737583537342316,-0.8140762439177394,29.307220076239485,32.264633988435484,33.623866629729356,tremor
113,7367160,0.754,-0.4177630673796549,-0.06760674422782408,-0.8183823359696767,28.83821313436636,30.83551648468381,33.67144087193695,tremor
114,7367164,0.758,-0.4107003157445116,-0.06780513408964985,-0.8225829820827649,28.34086292741058,29.443962576788607,33.694475699317074,tremor
115,7367169,0.763,-0.40395428744361783,-0.0679812270541834,-0.8266570763033885,27.81665744494741,28.097947065263348,33.69089807388561,tremor
116,7367174,0.768,-0.39756493075535904,-0.06814507995605323,-0.8305852141220486,27.267391583417915,26.8043808557195,33.65887361038711,tremor
117,7367178,0.772,-0.39156743488662465,-0.06830644594586256,-0.8343499806792007,26.69518641467859,25.56898008180441,33.596835294579506,tremor
118,7367183,0.777,-0.3859917536548609,-0.06847464451028236,-0.8379362162830967,26.102500030632797,24.39617491962516,33.50350428432661,tremor
119,7367188,0.782,-0.3808622613969089,-0.06865844397275667,-0.8413312516225692,25.492128306368166,23.289062102925858,33.37790229629415,tremor
120,7367193,0.787,-0.3761975472746304,-0.06886596004485307,-0.844525105743259,24.86719435415365,22.249403275998354,33.219355355358736,tremor
121,7367198,0.792,-0.3720103490004085,-0.06910457336465621,-0.8475106408185425,24.231125924785427,21.277669359653473,33.027488959595196,tremor
122,7367203,0.797,-0.3683076220597988,-0.06938086817704642,-0.8502836689524527,23.58762052969952,20.373129107240537,32.80221499260043,tremor
123,7367208,0.802,-0.36509073588429575,-0.06970059341144974,-0.8528430076484835,22.940598592390444,19.533978047758332,32.54371099738552,tremor
124,7367212,0.806,-0.3623557842270729,-0.07006864643685905,-0.8551904820964553,22.294145483478815,18.75750211018175,32.25239270886502,tremor
125,7367222,0.816,-0.36009399329861425,-0.07048907877105194,-0.857330873991468,21.65244384570523,18.040268465659953,31.928881015867223,tremor
126,7367227,0.821,-0.3582922080933932,-0.07096512204594028,-0.8592718181249386,21.019698162801916,17.37833460475798,31.573964771771763,tremor
127,7367254,0.848,-0.3569334348644405,-0.0714992316438089,-0.8610236494022285,20.400054043118732,16.767465519277778,31.18856107016219,tremor
128,7367259,0.853,-0.35599741602119644,-0.07209314468483602,-0.8625992041780857,19.797515124460805,16.203348254526027,30.77367471617773,tremor
129,7367263,0.857,-0.3554612130746465,-0.07274794853002389,-0.864013580812987,19.215860786132378,15.681793202054623,30.330358623906868,tremor
130,7367268,0.862,-0.35529977392362877,-0.07346415571626927,-0.8652838651230438,18.65856790267969,15.198912384283181,29.85967673909267,tremor
131,7367273,0.867,-0.35548646295436886,-0.07424178127679808,-0.866428826935894,18.128739663602893,14.751266540739897,29.36267083903669,tremor
132,7367278,0.872,-0.3559935360356095,-0.0750804186896771,-0.8674685943042328,17.629044058172827,14.3359748128763,28.840332240170845,tremor
133,7367283,0.877,-0.35679254719725584,-0.07597931117729823,-0.8684243120941738,17.161664065222414,13.950782972803637,28.293579095549905,tremor
134,7367288,0.882,-0.35785467912133495,-0.07693741568436858,-0.8693177916689863,16.72826096147442,13.594088273526625,27.723239621962577,tremor
135,7367293,0.887,-0.3591509950907837,-0.07795345753838069,-0.8701711582263691,16.329951509174062,13.264921029415161,27.130041277129134,tremor
136,7367298,0.892,-0.3606526153303753,-0.0790259745075505,-0.871006502010026,15.967299133448035,12.962884921380859,26.514605623147744,tremor
137,7367302,0.896,-0.3623308254091518,-0.080153349689823,-0.8718455390981459,15.640318579718326,12.688059724119446,25.87744837220059,tremor
138,7367312,0.906,-0.36415712831197433,-0.08133383337039135,-0.8727092867758272,15.348492980535138,12.440871630459007,25.218983920983508,tremor
139,7367316,0.91,-0.3661032547531443,-0.08256555465104362,-0.8736177576427849,15.090801791313352,12.221937549040396,24.53953354541419,tremor
140,7367321,0.915,-0.3681411481645041,-0.08384652425305587,-0.8745896756288086,14.865757709674003,12.031890622414576,23.83933634955736,tremor
141,7367326,0.92,-0.37024294144941483,-0.0851746303885071,-0.8756422160474019,14.671450498540993,11.87119471562863,23.118562043080804,tremor
142,7367330,0.924,-0.3723809420243758,-0.08654762994207964,-0.8767907707912665,14.505595591274389,11.739955760976525,22.37732465688845,tremor
143,7367335,0.929,-0.37452763994039107,-0.08796313737227655,-0.8780487388472018,14.365585447431762,11.637737654815536,21.615696390404832,tremor
144,7367350,0.944,-0.3766557511427065,-0.08941861370432587,-0.87942734156492,14.248541820947763,11.563389947684728,20.83372090936366,tremor
145,7367386,0.98,-0.3787383044030045,-0.09091135773448146,-0.8809354616314188,14.151367372372587,11.514893903096352,20.031425573204622,tremor
146,7367391,0.985,-0.3807487764213768,-0.09243850110264781,-0.882579504548813,14.070795378269855,11.489232670730607,19.208832255321934,tremor
147,7367395,0.989,-0.3826612754413318,-0.09399700826417072,-0.8843632816237367,14.00343663047629,11.48229038784108,18.365966607397056,tremor
148,7367400,0.994,-0.38445076993933974,-0.09558368170547359,-0.8862879140094458,13.94582293357845,11.488784067593185,17.502865786169465,tremor
149,7367415,1.009,-0.3860933559590597,-0.09719517213099699,-0.8883517580743243,13.89444686674708,11.50223121659465,16.619584791132247,tremor
150,7367431,1.025,-0.3875665546266255,-0.09882799289542005,-0.8905503531490043,13.845797664972686,11.51495524700347,15.716201654614347,tremor
151,7367435,1.029,-0.3888496302124279,-0.100478537696626,-0.8928763934011877,13.796393200437992,11.518129843844862,14.792821789556143,tremor
152,7367451,1.045,-0.38992391856743613,-0.10214310046511864,-0.8953197261171989,13.742808117126387,11.501862413506862,13.849581840391844,tremor
153,7367460,1.054,-0.3907731556065829,-0.10381789644375444,-0.8978673789843856,13.681698207472417,11.455315492323471,12.886653400559027,tremor
154,7367498,1.092,-0.39138379551593266,-0.10549908359145521,-0.9005036190550225,13.609821149857282,11.366863518023901,11.904246958110017,tremor
155,7367503,1.097,-0.3917453083758392,-0.10718278360445417,-0.9032100459397493,13.524053784941353,11.224280731928031,10.902616411012314,tremor
156,7367507,1.101,-0.39185044689954135,-0.10886510198224895,-0.9059657214366318,13.421406211186053,11.014954346775369,9.882064457517197,tremor
157,7367521,1.115,-0.39169547211028233,-0.11054214665990195,-0.9087473372485537,13.29903310773392,10.72611570883193,8.84294911539899,tremor
158,7367526,1.12,-0.39128032822542574,-0.11221004480408281,-0.9115294216745292,13.154242813387592,10.345081223899761,7.785691557092159,tremor
159,7367531,1.125,-0.39060875798238426,-0.11386495746424077,-0.91428458519655,12.984504775575141,9.859494467577184,6.710785362646738,tremor
160,7367546,1.14,-0.38968835128715607,-0.11550309191762104,-0.9169838037616054,12.787456008367881,9.257561254253837,5.61880718017538,tremor
161,7367551,1.145,-0.3885305225127195,-0.1171207117694486,-0.9195967373244592,12.560907133951414,8.5282704948407,4.510428631863863,tremor
162,7367624,1.218,-0.38715041508177794,-0.11871414517139123,-0.9220920799089554,12.302848397620764,7.66159529979599,3.3864291063349996,tremor
163,7367629,1.223,-0.38556673602198577,-0.12027979188281877,-0.9244379361002275,12.011455744777633,6.648670732790286,2.2477088516013395,tremor
164,7367634,1.228,-0.3838015274855049,-0.12181413026417154,-0.9266022175644102,11.685096707698987,5.481946546242198,1.0953015804748534,tremor
165,7367638,1.232,-0.381879885863085,-0.12331372556231802,-0.9285530520363431,11.322335610206691,4.1553147681107285,-0.06961430376608567,tremor
166,7367653,1.247,-0.3798296411797473,-0.12477524091916362,-0.9302591963912641,10.921937561235678,2.6642129680863977,-1.2457067159208466,tremor
167,7367669,1.263,-0.3776810095944003,-0.1261954523523276,-0.9316904450681539,10.482870855355936,1.005704517172575,-2.4314838275647146,tremor
168,7367694,1.288,-0.3754662304131729,-0.12757126854399511,-0.9328180253044734,10.004307625159695,-0.8214625557896469,-3.625291417147133,tremor
169,7367699,1.293,-0.3732191968214002,-0.12889975571879347,-0.9336149713456052,9.48562278912629,-2.816816193812328,-4.825313906976685,tremor
170,7367704,1.298,-0.3709750872942535,-0.13017816731841092,-0.9340564708811774,8.926391440232164,-4.9781381140259064,-6.0295792043590835,tremor
171,7367708,1.302,-0.368770002875862,-0.13140397771643536,-0.9341201782263047,8.326384807089307,-7.301456057741911,-7.235967357896104,tremor
172,7367749,1.343,-0.3666406143964921,-0.1325749189432815,-0.9337864899894909,7.685564823315625,-9.781047446095474,-8.442222967010272,tremor
173,7367754,1.348,-0.36462382309325936,-0.13368901931145058,-0.9330387800119705,7.004077222130885,-12.409451257255958,-9.64597122392313,tremor
174,7367759,1.353,-0.3627564377068481,-0.1347446428768143,-0.9318635912042053,6.282242986348758,-15.177485047572794,-10.844737413666428,tremor
175,7367763,1.357,-0.36107487062920374,-0.13574052873997647,-0.9302507826108081,5.520547960729385,-18.074264480324747,-12.03596964419323,tremor
176,7367768,1.362,-0.3596148548757766,-0.13667582919777427,-0.9281936307065526,4.719630480906434,-21.087223545693213,-13.217064517379796,tremor
177,7367777,1.371,-0.3584111825191196,-0.13755014566509952,-0.925688884653357,3.88026697907122,-24.202134798144257,-14.385395374005874,tremor
178,7367814,1.408,-0.35749746384040276,-0.13836356111910392,-0.9227367760861788,3.00335567485637,-27.403130287483215,-15.538342647561963,tremor
179,7367818,1.412,-0.3569059049658611,-0.1391166676165109,-0.9193409849582556,2.089898640141192,-30.672725297955758,-16.6733257466495,tremor
180,7367823,1.417,-0.35666710029881854,-0.1398105872539107,-0.9155085640298048,1.1409827308311962,-33.991848383653526,-17.78783576625392,tremor
181,7367828,1.422,-0.3568098347938035,-0.1404469848328134,-0.91124982564966,0.15776009060995727,-37.339882290029394,-18.879468222739824,tremor
182,7367832,1.426,-0.35736089021032186,-0.14102807049280772,-0.9065781954587604,-0.858570874717557,-40.694721003764684,-19.94595493283981,tremor
183,7367837,1.431,-0.3583448490577223,-0.14155659069741777,-0.901510038465092,-1.9067830040271483,-44.032848331974655,-20.985194122031967,tremor
184,7367870,1.464,-0.3597838900751713,-0.1420358061861813,-0.8960644635693152,-2.9856352337056666,-47.32944313975841,-21.995277855312562,tremor
185,7367875,1.469,-0.3616975698264793,-0.1424694558265001,-0.8902631130412555,-4.093883654539633,-50.55851574398083,-22.974515935806416,tremor
186,7367879,1.473,-0.36410258635861065,-0.14286170570213158,-0.8841299436161718,-5.230287726667845,-53.6930790077167,-23.92145551653595,tremor
187,7367884,1.478,-0.3670125228668436,-0.14321708326242233,-0.877691005716987,-6.393610823498802,-56.70535643797263,-24.834895815811713,tremor
188,7367889,1.483,-0.3704375718270663,-0.14354039692436404,-0.8709742267433539,-7.582614600871164,-59.567028134249014,-25.713897505813403,tremor
189,7367893,1.487,-0.3743842428781886,-0.14383664214935393,-0.8640092033967242,-8.796047071795776,-62.24951388280415,-26.557786539699144,tremor
190,7367898,1.492,-0.37885506057854684,-0.1441108956734159,-0.8568270067064248,-10.032624650535114,-64.72429115157259,-27.366152380086646,tremor
191,7367903,1.497,-0.383848260744306,-0.14436820021199656,-0.8494600018977824,-11.291008773157376,-66.96324428192439,-28.138840782780655,tremor
192,7367907,1.501,-0.38935749618843946,-0.14461344254686387,-0.841941683613606,-12.569777988474812,-68.93903982614029,-28.875941469959955,tremor
193,7367917,1.511,-0.39537156416666563,-0.14485122839422293,-0.8343065253690611,-13.867396638250174,-70.62552175780273,-29.577771192621643,tremor
194,7367927,1.521,-0.40187416862067116,-0.14508575781525299,-0.8265898405861953,-15.182181407624688,-71.99811920008983,-30.24485282770287,tremor
195,7367936,1.53,-0.40884373037471766,-0.14532070513352174,-0.8188276512223135,-16.51226712686165,-73.03425839910076,-30.877891273759403,tremor
196,7367941,1.535,-0.41625325783124684,-0.14555910734444383,-0.8110565589926753,-17.855573246621343,-73.7137699589038,-31.477746990406036,tremor
197,7367945,1.539,-0.42407028950945824,-0.14580326482613773,-0.8033136136095177,-19.20977239694711,-74.01928190393161,-32.04540806105785,tremor
198,7367950,1.544,-0.4322569180955286,-0.14605465779309182,-0.7956361723986647,-20.572262384161274,-73.9365889763744,-32.581961642708556,tremor
199,7367955,1.549,-0.4407699036565458,-0.1463138814009644,-0.7880617461278756,-21.940142890187445,-73.45498870511116,-33.08856560768631,tremor
200,7367959,1.553,-0.44956088143471806,-0.14658060175558466,-0.7806278268356774,-23.310198023184636,-72.56757516070019,-33.566421093467795,tremor
201,7367964,1.558,-0.45857666727856256,-0.1468535343486215,-0.7733716947929126,-24.678885730590167,-71.27148189905404,-34.01674656809801,tremor
202,7367992,1.586,-0.46775966134751634,-0.14713044567859168,-0.7663302033549853,-26.042334926134632,-69.56806637695291,-34.44075389479302,tremor
203,7367997,1.591,-0.477048348286353,-0.14740817805501258,-0.7595395422517658,-27.39635099779907,-67.46302910730358,-34.83962674258945,tremor
204,7368002,1.596,-0.486377889635476,-0.14768269685899618,-0.7530349816610273,-28.736430146063057,-64.96646205451255,-35.21450154946181,tremor
205,7368006,1.6,-0.49568080185346935,-0.1479491588768459,-0.7468506010306893,-30.057782743078437,-62.09282230066537,-35.56645111658701,tremor
206,7368011,1.605,-0.5048877110160414,-0.14820199975670606,-0.7410190078850579,-31.35536560622862,-58.86082883916889,-35.896470811955766,tremor
207,7368015,1.609,-0.5139281730590245,-0.14843503816774625,-0.7355710526910425,-32.6239227622392,-55.29328239114732,-36.2054672918881,tremor
208,7368021,1.615,-0.5227315463890548,-0.14864159385813688,-0.730535546291204,-33.8580339663846,-51.416810274503646,-36.494249604540364,tremor
209,7368025,1.619,-0.5312279018332398,-0.14881461650006506,-0.7259389864978056,-35.05216995749954,-47.26154049788936,-36.76352251300837,tremor
210,7368039,1.633,-0.5393489532861233,-0.14894682197042092,-0.721805300251674,-36.20075318904776,-42.86071135097812,-37.01388186208779,tremor
211,7368044,1.638,-0.5470289910993347,-0.149030832546749,-0.7181556073313901,-37.29822259212029,-38.2502247699721,-37.245811808364216,tremor
212,7368054,1.648,-0.5542057993280027,-0.1490593174128278,-0.7150080109863223,-38.339100810368976,-33.46815358890187,-37.45968373450994,tremor
213,7368058,1.652,-0.5608215374987269,-0.14902512988971145,-0.7123774200857286,-39.31806230676921,-28.55421431526452,-37.65575667186322,tremor
214,7368064,1.658,-0.5668235676883127,-0.14892143795964616,-0.7102754064524525,-40.23000076868634,-23.54921815748655,-37.834179056674905,tremor
215,7368069,1.663,-0.5721652084486666,-0.14874184494268006,-0.7087101000262167,-41.070094303694674,-18.494513587540503,-37.99499164140161,tremor
216,7368073,1.667,-0.5768063984785625,-0.14848049760956342,-0.7076861234405263,-41.8338669950654,-13.431433716204946,-38.1381313727915,tremor
217,7368078,1.672,-0.5807142548963916,-0.14813217954195745,-0.7072045665728653,-42.51724546272555,-8.4007612213807,-38.26343603850949,tremor
218,7368083,1.677,-0.5838635134738382,-0.14769238814338084,-0.7072630007123071,-43.11660916683109,-3.442222564403982,-38.37064948341612,tremor
219,7368088,1.682,-0.5862368412188593,-0.14715739432025507,-0.7078555312391405,-43.62883332518143,1.4059781809065197,-38.459427214564315,tremor
220,7368116,1.71,-0.5878250152203559,-0.14652428445381624,-0.7089728871605516,-44.051323520658485,6.107577329423325,-38.529342254093066,tremor
221,7368120,1.714,-0.5886269656371064,-0.14579098483974237,-0.7106025454897217,-44.382041365812555,10.62861494459943,-38.57989115883533,tremor
222,7368125,1.719,-0.5886496850031874,-0.14495626926209768,-0.7127288882286575,-44.61952096074706,14.937739425149367,-38.61050019987485,tremor
223,7368135,1.729,-0.5879080103816952,-0.1440197507827283,-0.7153333894909342,-44.76287629398156,19.006451661831036,-38.6205317798731,tremor
224,7368139,1.733,-0.5864242889753138,-0.14298185916973907,-0.7183948299384295,-44.81180014468237,22.809289544433906,-38.609291252026686,tremor
225,7368144,1.738,-0.5842279412111865,-0.14184380566803462,-0.7218895351281747,-44.766555399947904,26.323955795968335,-38.57603437509757,tremor
226,7368164,1.758,-0.5813549377065896,-0.1406075370342512,-0.7257916335994485,-44.62795996398431,29.53139387811846,-38.51997567349767,tremor
227,7368168,1.762,-0.5778472076162381,-0.1392756809045803,-0.7300733297059784,-44.39736657467715,32.415817890782215,-38.44029795400184,tremor
228,7368194,1.788,-0.5737519954882822,-0.1378514846023323,-0.7347051855278318,-44.0766388220764,34.96470283268891,-38.336163152225986,tremor
229,7368198,1.792,-0.569121181856585,-0.13633874937240772,-0.739656405948656,-43.66812444643119,37.168741170296514,-38.20672453933623,tremor
230,7368241,1.835,-0.5640105794929732,-0.13474176171263347,-0.744895121377556,-43.1746265703328,39.02177037993935,-38.05114012137632,tremor
231,7368245,1.839,-0.5584792129760062,-0.133065222972974,-0.7503886636665932,-42.599372951398216,40.52067428352996,-37.86858684310286,tremor
232,7368250,1.844,-0.5525885848772096,-0.1313141778216936,-0.7561038322916784,-41.945982789924976,41.66525923205811,-37.65827502658378,tremor
233,7368254,1.848,-0.546401928600167,-0.1294939417187656,-0.7620071493969264,-41.21843030046261,42.4581052363126,-37.419462398670376,tremor
234,7368270,1.864,-0.5399834467469562,-0.12761002736546717,-0.7680651034432903,-40.42100428287379,42.904392362195786,-37.15146711640965,tremor
235,7368279,1.873,-0.5333975351787772,-0.12566807027777022,-0.7742443817711864,-39.55826326281744,43.01170385936067,-36.85367934868837,tremor
236,7368284,1.878,-0.5267079962591261,-0.12367375408971709,-0.7805120924479823,-38.634986262826054,42.789809007316165,-36.525571151270256,tremor
237,7368288,1.882,-0.519977249206589,-0.12163273678569518,-0.7868359754989056,-37.656119772822805,42.25043005672514,-36.166704536263765,tremor
238,7368293,1.887,-0.5132655500045251,-0.11955057963476373,-0.7931846031760807,-36.626721930798766,41.40699866824154,-35.77673777331993,tremor
239,7368298,1.892,-0.506630237039205,-0.11743268104001361,-0.7995275684160559,-35.55190526550364,40.27440784726349,-35.3554300728594,tremor
240,7368303,1.897,-0.5001250210181611,-0.11528421775835614,-0.8058356601417873,-34.436779585135724,38.868765580851665,-34.90264489728076,tremor
241,7368308,1.902,-0.49379933855373437,-0.1131100959735959,-0.8120810236308355,-33.286396719556045,37.207156265016906,-34.41835222467439,tremor
242,7368313,1.907,-0.4876977881180016,-0.11091491452648095,-0.8182373038432321,-32.105698837614185,35.30741560308377,-33.90263014557828,tremor
243,7368317,1.911,-0.4818596650371893,-0.1087029422376921,-0.8242797694281502,-30.899471964884924,33.18792396334996,-33.35566619912913,tremor
244,7368322,1.916,-0.47631860899945083,-0.1064781107240651,-0.8301854151577653,-29.67230612447241,30.867422194349572,-32.777758844386085,tremor
245,7368327,1.921,-0.47110237342603795,-0.10424402342655964,-0.8359330408156048,-28.428563225306956,28.36485260067293,-32.169319412768196,tremor
246,7368358,1.952,-0.46623272124244153,-0.10200398076534727,-0.8415033051291508,-27.17235344443191,25.69922620145994,-31.530874798252867,tremor
247,7368363,1.957,-0.4617254463536414,-0.09976102044880983,-0.8468787541866475,-25.907520409716028,22.88951561202494,-30.863071013680532,tremor
248,7368367,1.961,-0.45759051482665675,-0.09751797105214892,-0.8520438248614899,-24.637635005878618,19.954571105673395,-30.166677576635472,tremor
249,7368372,1.966,-0.45383231485807934,-0.09527751614343552,-0.856984824954938,-23.365997126599353,16.913055927125935,-29.442592499028926,tremor
250,7368387,1.981,-0.4504500004965043,-0.09304226557434515,-0.8616898928848181,-22.095644224609245,13.783396006081,-28.69184747054475,tremor
251,7368392,1.986,-0.44743791111955433,-0.09081483014521696,-0.8661489406345427,-20.829365137455504,10.583738963529719,-27.91561269189046,tremor
252,7368397,1.991,-0.4447860470338802,-0.08859789573693304,-0.8703535842228608,-19.569717466408886,7.33191768617183,-27.11520077011667,tremor
253,7368401,1.995,-0.44248058143903024,-0.08639429318932412,-0.874297066098814,-18.319046817917815,4.045414691591836,-26.292069149693692,tremor
254,7368421,2.015,-0.4405043904821895,-0.08420706069085582,-0.8779741735956509,-17.079506483707558,0.7413248952374779,-25.447820697545225,tremor
255,7368436,2.03,-0.4388375861433847,-0.08203949618394078,-0.8813811569354443,-15.853076573311217,-2.5636839930884756,-24.584202241063245,tremor
256,7368441,2.035,-0.4374580408057534,-0.0798951981901749,-0.8845156493556906,-14.641582120640942,-5.853412649792812,-23.70310102923843,tremor
257,7368451,2.045,-0.43634189679729946,-0.07777809438139505,-0.8873765908500941,-13.446710164218848,-9.112170861642507,-22.80653922266195,tremor
258,7368489,2.083,-0.43546405797516646,-0.07569245801623463,-0.8899641559058782,-12.270026170755566,-12.324815036606937,-21.896666615250634,tremor
259,7368494,2.088,-0.4347986627917089,-0.0736429129162303,-0.8922796846145963,-11.112990384037758,-15.476779606119663,-20.975751855334792,tremor
260,7368499,2.093,-0.4343195389815871,-0.07163442792642068,-0.8943256157893602,-9.976974712266744,-18.554099861797535,-20.0461724637065,tremor
261,7368504,2.098,-0.4340006393236187,-0.06967230181089716,-0.8961054204027447,-8.863280621687554,-21.543424744863962,-19.110403928398714,tremor
262,7368509,2.103,-0.4338164564143626,-0.0677621393334562,-0.8976235338611976,-7.773158222916937,-24.432019496369687,-18.171008085663328,tremor
263,7368514,2.108,-0.43374241256772594,-0.06590981894959802,-0.8988852863015775,-6.7078263863081276,-27.20775963321761,-17.230620889859665,tremor
264,7368518,2.112,-0.433755219184951,-0.06412145217663394,-0.8998968310475726,-5.668493367786231,-29.859119150814774,-16.2919395574076,tremor
265,7368523,2.117,-0.43383319844214113,-0.06240333439359616,-0.9006650723691912,-4.656377106735584,-32.37515695610172,-15.357708961388125,tremor
266,7368533,2.127,-0.4339565590746094,-0.06076188661722268,-0.9011975945576556,-3.672724096564553,-34.745506192897345,-14.430707067665923,tremor
267,7368542,2.136,-0.43410761753732297,-0.05920358775265153,-0.9015025949398858,-2.718825551610466,-36.96037128069582,-13.513729156831037,tremor
268,7368552,2.146,-0.43427095603290516,-0.05773489695742298,-0.9015888237466948,-1.7960295352448472,-39.01053711582539,-12.60957058841041,tremor
269,7368557,2.151,-0.4344335099853579,-0.05636216609500848,-0.9014655336882368,-0.9057478093262915,-40.88739396992933,-11.721007946176119,tremor
270,7368566,2.16,-0.4345845796453646,-0.0550915427751237,-0.9011424416808889,-0.049456430760386444,-42.58298021674762,-10.850778545245221,tremor
271,7368576,2.17,-0.43471576367648357,-0.05392886513819546,-0.9006297044474783,0.7713104662271477,-44.090043274967556,-10.001558451189167,tremor
272,7368581,2.175,-0.4348208166119147,-0.05287955026721783,-0.8999379087425201,1.5549737613188335,-45.40211729767289,-9.175939324457621,tremor
273,7368586,2.18,-0.4348954365750085,-0.05194847881253563,-0.8990780758132054,2.299928847035094,-46.51361439265159,-8.376404540289279,tremor
274,7368612,2.206,-0.43493699406881225,-0.051139879009906804,-0.8980616784714296,3.004570575680409,-47.41992468942374,-7.605305140014528,tremor
275,7368616,2.21,-0.43494421641046527,-0.050457213698583706,-0.8969006679035938,3.6673222759457866,-48.11751948777359,-6.864836245063565,tremor
276,7368622,2.216,-0.4349168450570704,-0.04990307416690077,-0.8956075061971044,4.286667166642086,-48.60405112255059,-6.157014607273921,tremor
277,7368627,2.221,-0.43485528430914644,-0.04947908464471856,-0.8941951996745803,4.861180373899369,-48.87844314428957,-5.48365796930649,tremor
278,7368631,2.225,-0.43476025955283865,-0.049185821016292784,-0.8926773276599725,5.389559822833842,-48.94096495089009,-4.846366860383733,tremor
279,7368636,2.23,-0.4346325014522372,-0.049022746859822455,-0.8910680613446275,5.870654484411484,-48.79328599912634,-4.246509359810647,tremor
280,7368641,2.235,-0.4344724696859161,-0.0489881692720306,-0.889382167963724,6.303488749681009,-48.438506011461214,-3.685209236811346,tremor
281,7368646,2.24,-0.4342801263524442,-0.04907921615956797,-0.8876349964525404,6.687282031827843,-47.8811590465246,-3.1633377316540088,tremor
282,7368651,2.245,-0.43405476540193216,-0.049291835824353286,-0.8858424420187364,7.021463043181756,-47.12719084117744,-2.681509086773232,tremor
283,7368655,2.249,-0.43379490065214515,-0.0496208187830035,-0.8840208885250715,7.305678552276112,-46.18391038749508,-2.240079773480478,tremor
284,7368660,2.254,-0.4334982113189064,-0.05005984088399772,-0.8821871291060325,7.539796786985893,-45.05991819417488,-1.8391511974516452,tremor
285,7368665,2.259,-0.4331615406876535,-0.05060152596287846,-0.8803582669163968,7.723906000221739,-43.76501499952403,-1.478575513675849,tremor
286,7368670,2.264,-0.4327809407087001,-0.05123752555155964,-0.8785515992041988,7.858309036492965,-42.31009574610095,-1.157964049123938,tremor
287,7368675,2.269,-0.4323517530422308,-0.05195861258133482,-0.8767844889022042,7.943515008718227,-40.70703429262429,-0.8766977305033662,tremor
288,7368690,2.284,-0.4318687155478588,-0.052754785635447124,-0.8750742285582925,7.980229387317124,-38.96856454127666,-0.6339388581545942,tremor
289,7368694,2.288,-0.43132608255616267,-0.053615380152232696,-0.8734379016313121,7.969343882534789,-37.10816333616292,-0.42864356940105414,tremor
290,7368704,2.298,-0.4307177476402513,-0.05452918308325628,-0.8718922459528153,7.911927427102012,-35.13993960409835,-0.25957440702436607,tremor
291,7368709,2.303,-0.4300373591896258,-0.05548454789308299,-0.8704535235127963,7.809219315216141,-33.07853277470352,-0.12531255164453306,tremor
292,7368741,2.335,-0.42927842195466864,-0.056469507440090605,-0.8691373997226678,7.662625140318569,-30.939021653258703,-0.024269471613427518,tremor
293,7368746,2.34,-0.42843438170264797,-0.05747188313588548,-0.8679588340461007,7.473715659452235,-28.736842887922165,0.04530204569730528,tremor
294,7368755,2.349,-0.42749869463092965,-0.0584793897129612,-0.8669319825262104,7.244228184564843,-26.48771633265003,0.08529732993432794,tremor
295,7368765,2.359,-0.4264648873036458,-0.059479735767160175,-0.866070111464841,6.976069648502251,-24.207573301310156,0.09774944023407531,tremor
296,7368769,2.363,-0.4253266157046619,-0.06046072083860678,-0.865385520499739,6.671320178792307,-21.912483121024355,0.08481857765026998,tremor
297,7368784,2.378,-0.4240777330385114,-0.061410330085201054,-0.8648894726929893,6.33223586272209,-19.61857349790005,0.048780883410285254,tremor
298,7368789,2.383,-0.42271237520208654,-0.06231682759944632,-0.8645921290345778,5.961249398477434,-17.34194086884655,-0.00798378750589411,tremor
299,7368793,2.387,-0.4212250707820807,-0.06316884917804787,-0.8645024849676067,5.560967477275103,-15.098548001573377,-0.08300548467739313,tremor
300,7368798,2.392,-0.41961087951106857,-0.063955494940685,-0.8646283071009757,5.134163999917083,-12.904107518476534,-0.17373945789146164,tremor
301,7368803,2.397,-0.41786555981395485,-0.06466642167530826,-0.8649760690966726,4.683768562538371,-10.773951633512018,-0.27758330195245384,tremor
302,7368808,2.402,-0.4159857627731171,-0.06529193422593757,-0.8655508866809165,4.21285001420927,-8.722890040526075,-0.3918959876330105,tremor
303,7368813,2.407,-0.4139692468037837,-0.06582307469625556,-0.8663564527049071,3.7245952627398675,-6.765059404031268,-0.5140186688952412,tremor
304,7368818,2.412,-0.4118151047488961,-0.06625170777416546,-0.8673949740622156,3.2222838621300633,-4.9137691286938825,-0.6412970041445872,tremor
305,7368823,2.417,-0.40952399310842275,-0.06657060013629604,-0.8686671129743644,2.7092592361494146,-3.181348904014011,-0.7711045805059066,tremor
306,7368828,2.422,-0.40709835180826964,-0.0667734917046179,-0.87017193563113,2.18889765141478,-1.579003851421669,-0.9008669035621865,tremor
307,7368832,2.426,-0.40454260236494294,-0.06685515652803826,-0.8719068713899288,1.664576213524255,-0.11668289405952786,-1.028085340475784,tremor
308,7368860,2.454,-0.401863312586071,-0.06681145126861762,-0.8738676856929986,1.1396411844888263,1.1970347773294365,-1.1503604123509414,tremor
309,7368869,2.463,-0.39906931713722876,-0.06663934968821542,-0.8760484695629058,0.6173777917561682,2.355031482257919,-1.2654139294672,tremor
310,7368874,2.468,-0.39617178545040643,-0.0663369621312572,-0.8784416480117558,0.10098243450787546,3.35171890516454,-1.371109615635333,tremor
311,7368879,2.473,-0.39318423148140447,-0.06590353971476576,-0.8810380089872512,-0.4064621607271677,4.183081351838174,-1.4654720109432178,tremor
312,7368884,2.478,-0.3901224634452979,-0.06533946366467507,-0.8838267536334309,-0.9020086583966418,4.8466949575178875,-1.54670352568067,tremor
313,7368889,2.483,-0.38700447534526977,-0.06464622087429645,-0.8867955677272186,-1.3828638598183534,5.341724225889504,-1.613199538939631,tremor
314,7368908,2.502,-0.3838502852776904,-0.06382636723732182,-0.8899307132236947,-1.846404871074974,5.668897731913492,-1.6635614244222683,tremor
315,7368927,2.521,-0.3806817277015926,-0.0628834805939636,-0.8932171379620627,-2.2901932189617153,5.830464982524455,-1.6966073745469632,tremor
316,7368932,2.526,-0.3775222078852701,-0.06182210521722371,-0.8966386008261522,-2.711987455302633,5.8301363731774325,-1.7113808933787318,tremor
317,7368937,2.531,-0.3743964266146795,-0.06064768966219523,-0.9001778091233031,-3.1097546862548953,5.673007974038601,-1.707156831999998,tremor
318,7368947,2.541,-0.37133008225145586,-0.05936651953166965,-0.9038165647513084,-3.4816812635290595,5.365472619518471,-1.683444834103246,tremor
319,7368951,2.545,-0.3683495558313487,-0.05798564633404713,-0.9075359159143201,-3.8261826325346826,4.915118574371351,-1.6399900459648196,tremor
320,7368984,2.578,-0.3654815835859539,-0.056512813205845516,-0.9113163116789641,-4.14191211911906,4.330617012975414,-1.5767709489249595,tremor
321,7368989,2.583,-0.3627529204201612,-0.054956377925314576,-0.9151377574032594,-4.42776831094315,3.621599722232719,-1.49399422598875,tremor
322,7368994,2.588,-0.36018999767498927,-0.05332523342237874,-0.9189799698496051,-4.682900673825836,2.7985287729928165,-1.3920866789853021,tremor
323,7369004,2.598,-0.35781857894436414,-0.051628725925055366,-0.9228225314296951,-4.906713115637839,1.8725602649201756,-1.2716843303927532,tremor
324,7369009,2.603,-0.3556634186005764,-0.04987657096104063,-0.9266450433949935,-5.098865322516435,0.8554044986613728,-1.133618932114438,tremor
325,7369013,2.607,-0.3537479286973979,-0.04807876760438241,-0.9304272778532917,-5.259271798459796,-0.24081499233403308,-0.9789021529123766,tremor
326,7369023,2.617,-0.35209386072601767,-0.04624551155346763,-0.9341493283274152,-5.388098612805531,-1.403701198344214,-0.8087077442758587,tremor
327,7369028,2.622,-0.35072100904577114,-0.04438710778906371,-0.9377917582868541,-5.485757895341977,-2.6207200338688126,-0.6243520071393089,tremor
328,7369033,2.627,-0.34964694258345336,-0.04251388365419452,-0.9413357467835779,-5.552900127329812,-3.879331545730421,-0.42727290173785964,tremor
329,7369038,2.632,-0.34888677060266415,-0.040636103209099494,-0.9447632300917346,-5.590404276217812,-5.167114478087898,-0.2190081552394109,tremor
330,7369052,2.646,-0.34845294708690183,-0.038763883650485054,-0.9480570381338398,-5.599365824028115,-6.4718831834269706,-0.0011727222079885016,tremor
331,7369057,2.651,-0.348355116710089,-0.036907114465165106,-0.9512010244780539,-5.5810827449775315,-7.781796329232211,0.2245640591762336,tremor
332,7369077,2.671,-0.34860000367189925,-0.03507537984622581,-0.9541801887818419,-5.537039491095079,-9.08545727714173,0.4565012938572576,tremor
333,7369081,2.675,-0.3491913430538471,-0.03327788477353274,-0.9569807906867858,-5.4688890427803,-10.372006328720289,0.6929290434125609,tremor
334,7369108,2.702,-0.3501298530010234,-0.03152338508407947,-0.9595904542822279,-5.3784330838716805,-11.631205162235752,0.9321502494378426,tremor
335,7369113,2.707,-0.351413245112615,-0.029820121849732217,-0.961998262305131,-5.267600388092193,-12.853513689648612,1.1725017946399199,tremor
336,7369118,2.712,-0.35303627001357124,-0.028175760436415218,-0.9641948392091875,-5.138423571480573,-14.030159280976255,1.4123744200480728,tremor
337,7369122,2.716,-0.3549907951538684,-0.026597334717113202,-0.9661724221322254,-4.993014469973191,-15.153197943669714,1.6502312059179212,tremor
338,7369137,2.731,-0.35726591231546834,-0.025091197021579824,-0.9679249186578627,-4.833538521436694,-16.215566725347806,1.8846243268105884,tremor
339,7369142,2.736,-0.3598480729187845,-0.023662974502453492,-0.96944795015237,-4.6621886415956695,-17.211126396809252,2.114209814268283,tremor
340,7369151,2.745,-0.3627212498176787,-0.02231753266087163,-0.9707388794037687,-4.481159162520756,-18.134693389072275,2.3377601010027185,tremor
341,7369156,2.75,-0.3658671246840353,-0.02105894678786969,-0.9717968213343902,-4.292620436543145,-18.98206000888956,2.5541741735453454,tremor
342,7369161,2.755,-0.36926530019043413,-0.019890482027019478,-0.9726226357267275,-4.098694692334434,-19.750002140445915,2.762485220718807,tremor
343,7369175,2.769,-0.37289353595676633,-0.018814582642475167,-0.9732189012017015,-3.901433668429522,-20.43627393857952,2.961865727654318,tremor
344,7369180,2.774,-0.3767280066633675,-0.017832870889171515,-0.9735898701015001,-3.7027984551325646,-21.039589397549005,3.1516300254329406,tremor
345,7369185,2.779,-0.3807435799365734,-0.016946155643047647,-0.973741404420475,-3.504641862921631,-21.55959110215007,3.3312343639741955,tremor
346,7369189,2.783,-0.3849141107013285,-0.016154450680883458,-0.9736808934518782,-3.308693516163316,-21.996806901294082,3.5002746317377453,tremor
347,7369199,2.793,-0.38921274778843934,-0.015457002226005184,-0.9734171543311602,-3.1165477528891183,-22.35259565921721,3.658481900901366,tremor
348,7369204,2.798,-0.3936122477732156,-0.014852325119249398,-0.9729603171241384,-2.929654298614933,-22.62908361101811,3.8057160299584236,tremor
349,7369230,2.824,-0.39808529036845475,-0.014338246750422088,-0.9723216965083561,-2.7493115780282156,-22.829093150944065,3.9419576039577797,tremor
350,7369234,2.828,-0.40260478924633614,-0.013911957705880612,-0.9715136524115991,-2.5766624395498847,-22.95606608192138,4.067298530091162,tremor
351,7369239,2.833,-0.4071441919767733,-0.013570067961820479,-0.970549442184915,-2.4126920066117403,-23.013983418843328,4.181931625487099,tremor
352,7369244,2.838,-0.41167776290623187,-0.013308667386827698,-0.9694430669800145,-2.2582273491820413,-23.00728374481961,4.286139529308291,tremor
353,7369254,2.848,-0.41618084329956306,-0.013123389313645446,-0.9682091149627553,-2.113938692945875,-22.940781881689972,4.380283243703418,tremor
354,7369259,2.853,-0.420630083910446,-0.013009475995446395,-0.9668626038341275,-1.9803419397996496,-22.81958930370832,4.464790566316004,tremor
355,7369264,2.858,-0.4250036462579433,-0.012961844867015652,-0.9654188248746007,-1.8578023425670365,-22.649037360590405,4.540144631310037,tremor
356,7369273,2.867,-0.42928137016072254,-0.01297515467307619,-0.9638931904120793,-1.7465392430463509,-22.434604034774825,4.606872732898292,tremor
357,7369278,2.872,-0.4334449064054775,-0.013043870689255496,-0.9623010862726908,-1.6466318363022932,-22.181844669230397,4.665535567567155,tremor
358,7369283,2.877,-0.43747781469805785,-0.01316232842914053,-0.9606577304380923,-1.5580259602619757,-21.89632688292615,4.716716999402798,tremor
359,7369288,2.882,-0.4413656281724226,-0.013324795386197848,-0.958978038829811,-1.4805419251830163,-21.583569746759597,4.761014427854508,tremor
360,7369293,2.887,-0.44509588664035243,-0.013525530486431757,-0.9572764988921122,-1.4138833926036467,-21.24898721820351,4.799029819252733,tremor
361,7369297,2.891,-0.44865814140927374,-0.01375884101540364,-0.9555670514643527,-1.3576472918872087,-20.89783581427025,4.831361452045423,tremor
362,7369302,2.896,-0.4520439348650674,-0.014019136826696442,-0.9538629813273097,-1.311334729938573,-20.535166523318637,4.858596419894479,tremor
363,7369312,2.906,-0.4552467581283193,-0.014300981639175776,-0.9521768167730027,-1.2743628104134632,-20.16578100366731,4.881303934227041,tremor
364,7369316,2.91,-0.4582619899827707,-0.014599141193548163,-0.9505202385750599,-1.2460772360063077,-19.794192180760906,4.9000294651422145,tremor
365,7369326,2.92,-0.46108681999318657,-0.014908627974895958,-0.9489039988125548,-1.2257655254380146,-19.424589423636096,4.915289753422747,tremor
366,7369352,2.946,-0.4637201583359764,-0.015224742130927851,-0.9473378501054519,-1.212670640945257,-19.060808541337774,4.927568715274709,tremor
367,7369357,2.951,-0.4661625344297964,-0.01554310814311606,-0.9458304859296073,-1.2060047967537295,-18.706306874734498,4.937314246163014,tremor
368,7369362,2.956,-0.46841598605406753,-0.015859706759925873,-0.9443894927626226,-1.204963206841197,-18.364143755449607,4.9449359131471535,tremor
369,7369371,2.965,-0.4704839403544188,-0.016170901696694696,-0.9430213148362586,-1.2087375327381393,-18.036966556312432,4.9508035089983204,tremor
370,7369376,2.97,-0.4723710879959388,-0.016473460654888257,-0.9417312322149987,-1.2165288078646834,-17.727002474436297,4.955246427649322,tremor
371,7369381,2.975,-0.4740832517265232,-0.016764570309656914,-0.9405233527831278,-1.2275596384173553,-17.436056086126605,4.958553809561837,tremor
372,7369386,2.98,-0.4756272507021289,-0.017041845042967636,-0.9394006185219687,-1.2410855052481096,-17.165512609982617,4.960975396998568,tremor
373,7369390,2.984,-0.4770107620426241,-0.017303329341589506,-0.9383648262185942,-1.2564050126326707,-16.916346721565752,4.962723032204702,tremor
374,7369395,2.989,-0.47824218118411593,-0.01754749391998957,-0.9374166624885972,-1.2728689479567215,-16.689136683988732,4.9639727253614145,tremor
375,7369400,2.994,-0.47933048264324096,-0.017773225758049273,-0.9365557527344955,-1.2898880320197137,-16.484083494549186,4.9648672134910035,tremor
376,7369404,2.998,-0.4802850827980342,-0.017979812356967228,-0.9357807234098255,-1.306939253346899,-16.30103469719055,4.965518926332665,tremor
377,7369409,3.003,-0.4811157062158806,-0.018166920611403885,-0.9350892767247552,-1.3235706921479657,-16.13951247139868,4.966013270565851,tremor
378,7369413,3.007,-0.481832256926079,-0.018334570771872134,-0.9344782767161006,-1.3394047518932723,-15.998745575660339,4.9664121392021485,tremor
379,7369439,3.033,-0.4824446958527489,-0.018483106030518653,-0.9339438454138536,-1.3541397310804169,-15.87770469221343,4.966757548107656,tremor
380,7369444,3.038,-0.48296292540914076,-0.018613158309304198,-0.9334814676663848,-1.3675496864821797,-15.77514068332543,4.967075296945275,tremor
381,7369448,3.042,-0.48339668203044667,-0.018725610867054883,-0.9330861030340848,-1.3794825635622454,-15.68962522200148,4.967378548980438,tremor
