sample,t_ms,t_s,ax,ay,az,gx,gy,gz,tremor
0,7250249,0.0,-0.3912062421748173,-0.2059891769203713,-0.94829066345508,-1.6652067207264838,14.888855556157885,-3.103819253946263,tremor
1,7250254,0.005,-0.38984796470587935,-0.20574083876195137,-0.9488185279320407,-1.9025867569243053,14.850189911313752,-2.7828979973932992,tremor
2,7250264,0.015,-0.38791172979502103,-0.20538155033371777,-0.9495781519381802,-2.1233679223298116,14.70429934555491,-2.4446479229755202,tremor
3,7250269,0.02,-0.38531622112285996,-0.204892359137517,-0.9506053340218856,-2.3245241162196266,14.443736376807541,-2.0881408489166025,tremor
4,7250274,0.025,-0.38207780132384234,-0.20427184351691968,-0.9518972003991347,-2.502980764856544,14.061564805720664,-1.7124646279620412,tremor
5,7250279,0.03,-0.3782733096544816,-0.203530011697344,-0.9534257992718962,-2.655637447989709,13.551464187283578,-1.3167364896840017,tremor
6,7250284,0.035,-0.3739999890166768,-0.20268121372023148,-0.9551535931519894,-2.779392225635952,12.907835782290302,-0.9001172743323022,tremor
7,7250288,0.039,-0.3693516467343761,-0.20173973050773378,-0.9570430187452245,-2.871167549311356,12.125908994504712,-0.46182643409689084,tremor
8,7250313,0.064,-0.36440940819872397,-0.20071793613207706,-0.9590604304086497,-2.9279376165496225,11.201847222705549,-0.0011576652584640735,tremor
9,7250318,0.069,-0.35924081061294816,-0.19962599561293398,-0.961176724588625,-2.9467570017549956,10.132851987498908,0.48250497557516925,tremor
10,7250323,0.074,-0.353902306649101,-0.19847222902292516,-0.9633665437485147,-2.9247903702579854,8.917264131094301,0.9896706267745524,tremor
11,7250328,0.079,-0.3484425025885896,-0.19726365076922123,-0.965607122894277,-2.8593430562984237,7.5546608323250135,1.520725013169235,tremor
12,7250333,0.084,-0.34290501989031863,-0.1960064694191719,-0.9678772380957981,-2.747892260016361,6.045947125825904,2.0759138496622436,tremor
13,7250338,0.089,-0.33733067306759723,-0.1947064809831961,-0.9701563969969188,-2.58811859302147,4.3934405608760985,2.6553264483258507,tremor
14,7250342,0.093,-0.33175898918788166,-0.19336935245149928,-0.9724242744595764,-2.3779376757978823,2.600947581406136,3.2588797404195478,tremor
15,7250347,0.098,-0.3262291959006064,-0.19200081384528075,-0.9746603514605046,-2.115531463201746,0.673830155234368,3.8863029490279244,tremor
16,7250352,0.103,-0.3207808118161105,-0.19060678035817477,-0.9768437092333929,-1.7993789482049996,-1.3809388701432859,4.537123175152071,tremor
17,7250357,0.108,-0.31545394935365056,-0.1891934231249569,-0.9789529378979452,-1.4282858702891164,-3.5547332531338496,5.2106521885433414,tremor
18,7250362,0.113,-0.310289411915973,-0.18776720275533515,-0.9809661287285208,-1.001413033935406,-5.837245289138252,5.905974742776969,tremor
19,7250367,0.118,-0.3053286431924706,-0.18633487580850336,-0.9828609279892266,-0.5183028246829864,-8.216473814334758,6.621938760581137,tremor
20,7250372,0.123,-0.30061356830481073,-0.18490348131540832,-0.9846146369762885,0.02109650413786481,-10.678729914654529,7.357147758701051,tremor
21,7250376,0.127,-0.2961863537346714,-0.1834803122440896,-0.9862043476819278,0.6164092106932797,-13.208661954582329,8.109955899381047,tremor
22,7250381,0.132,-0.29208910428866874,-0.18207287527408064,-0.9876071067307596,1.2668135511464602,-15.789301492221588,8.878466064966272,tremor
23,7250386,0.137,-0.28836350961631696,-0.18068884121738774,-0.9888001023486621,1.9710268138156626,-18.402131560411895,9.660531349967686,tremor
24,7250391,0.142,-0.285050449109525,-0.1793359877483128,-0.9897608704364971,2.727294336366108,-21.027178661068408,10.453760348089741,tremor
25,7250395,0.146,-0.28218956173336435,-0.17802213567341504,-0.9904675165826893,3.533382932884454,-23.643129634172727,11.255526577400554,tremor
26,7250400,0.151,-0.2798187860248686,-0.1767550797097951,-0.9908989512344328,4.386579145553162,-26.22747431494825,12.062982332937093,tremor
27,7250405,0.156,-0.27797387485421393,-0.17554251459239342,-0.991035135379915,5.283692718779169,-28.756674570566094,12.873077181185632,tremor
28,7250410,0.161,-0.27668788937916455,-0.17439195726366102,-0.9908573340595822,6.221065670365997,-31.206359897750325,13.68258121349337,tremor
29,7250436,0.187,-0.2759906768176948,-0.17331066588753072,-0.9903483748843003,7.194587302007075,-33.55154925395664,14.488113053260003,tremor
30,7250441,0.192,-0.2759083371413632,-0.17230555645732068,-0.9894929085377726,8.199715444068804,-35.76689818362792,15.28617246463976,tremor
31,7250446,0.197,-0.27646268451213707,-0.17138311782260002,-0.9882776680172273,9.231504155642964,-37.82696959615009,16.07317724692923,tremor
32,7250451,0.202,-0.27767071022014367,-0.170549326035934,-0.9866917231531835,10.284637986847413,-39.70652578094968,16.84550393725955,tremor
33,7250456,0.207,-0.2795440549859007,-0.16980955901269026,-0.984726726771206,11.353472753230724,-41.38083845458838,17.599531703538126,tremor
34,7250461,0.212,-0.28208849968872235,-0.16916851260287544,-0.9823771487279138,12.432082585686192,-42.82601287949767,18.331688698380717,tremor
35,7250465,0.216,-0.28530348476382855,-0.16863011928954078,-0.9796404939693235,13.51431282606716,-44.01932141909461,19.038500061441127,tremor
36,7250470,0.221,-0.28918166955591984,-0.16819747084751688,-0.9765175007146908,14.593838157570413,-44.93954132649846,19.716636697678723,tremor
37,7250475,0.226,-0.2937085437165749,-0.16787274641017494,-0.9730123148556997,15.664225200990217,-45.56729111829991,20.36296392003226,tremor
38,7250480,0.231,-0.2988621031936517,-0.16765714748919636,-0.9691326366735263,16.71899867808766,-45.885359568680364,20.97458902569624,tremor
39,7250485,0.236,-0.30461260341075097,-0.167550841559891,-0.9648898360125711,17.751710141337966,-45.87902117344074,21.5489068752811,tremor
40,7250490,0.241,-0.31092240182382114,-0.16755291584854917,-0.9602990321114986,18.7560081912676,-45.5363318709413,22.08364256312146,tremor
41,7250495,0.246,-0.3177459011452303,-0.16766134292557452,-0.9553791343872851,19.72570904452056,-44.84839885755513,22.57689030395493,tremor
42,7250499,0.25,-0.3250296031498987,-0.1678729596092631,-0.9501528406100141,20.654866276664308,-43.809618493432254,23.027147714377925,tremor
43,7250504,0.255,-0.3327122811659224,-0.1681834605168548,-0.9446465891147039,21.537838545253138,-42.41787656152058,23.43334473489578,tremor
44,7250509,0.26,-0.3407252771748514,-0.16858740736546088,-0.9388904619957247,22.369354103367424,-40.67470552542082,23.794866519533006,tremor
45,7250514,0.265,-0.34899292698975765,-0.16907825483447533,-0.9329180366470943,23.144570943723313,-38.58539393948902,24.11156971738759,tremor
46,7250519,0.27,-0.3574331143290008,-0.16964839346519997,-0.9267661835773893,23.85913146974588,-36.15904380936322,24.38379168919245,tremor
47,7250524,0.275,-0.3659579518404041,-0.1702892097065968,-0.9204748091699538,24.509210674025518,-33.408572493153194,24.612352346679188,tremor
48,7250529,0.28,-0.3744745843241729,-0.1709911628331622,-0.914086543003479,25.09155691776188,-30.350656675848512,24.798548475299075,tremor
49,7250534,0.285,-0.3828861066105115,-0.17174387807689911,-0.9076463705142281,25.603524547190286,-27.005617034839776,24.944140599760175,tremor
50,7250561,0.312,-0.39109258581368445,-0.1725362549446145,-0.901201213173861,26.043097752401135,-23.397243428932182,25.051332670732283,tremor
51,7250566,0.317,-0.39899217504479806,-0.1733565893470943,-0.8947994599503811,26.40890526759616,-19.55256176614082,25.122745078205394,tremor
52,7250571,0.322,-0.4064823031649234,-0.17419270785872332,-0.8884904555376928,26.700225727720877,-15.501545098109434,25.161381713855647,tremor
53,7250581,0.332,-0.41346092286336206,-0.1750321121622627,-0.882323952550065,26.916983731210802,-11.276772886636516,25.170591989469663,tremor
54,7250586,0.337,-0.4198277973318246,-0.1758621315158317,-0.8763495364286041,27.0597369025674,-6.913043712736046,25.154028854640877,tremor
55,7250590,0.341,-0.42548580414906106,-0.17667008090336597,-0.8706160330729549,27.129654483607244,-2.4469478828738063,25.115603940324,tremor
56,7250596,0.347,-0.43034223375800196,-0.17744342238867075,-0.865170910117218,27.128488187819883,2.0835926124271493,25.05944099108728,tremor
57,7250601,0.352,-0.4343100591691,-0.1781699270820858,-0.8600596832805564,27.058536214916902,6.639808528745707,24.989828747560377,tremor
58,7250605,0.356,-0.4373091533089761,-0.1788378350488699,-0.8553253393408692,26.92260144077594,11.182583311769761,24.911174410734883,tremor
59,7250610,0.361,-0.4392674307818167,-0.17943601044554539,-0.8510077870350117,26.723944877452553,15.672959239096814,24.82795876689152,tremor
60,7250615,0.366,-0.44012189172727273,-0.17995408917252215,-0.8471433466292901,26.466235546110227,20.07264017880318,24.744693975639546,tremor
61,7250620,0.371,-0.43981954692735903,-0.18038261638615338,-0.8437642880794692,26.153497929553563,24.344481314254065,24.665884918853166,tremor
62,7250625,0.376,-0.4383182053070382,-0.18071317132737424,-0.8408984266550963,25.79005817632724,28.452956339529674,24.595994869626615,tremor
63,7250630,0.381,-0.4355871074531363,-0.1809384771013273,-0.838568783677263,25.38049021770147,32.36459303323202,24.53941606542124,tremor
64,7250634,0.385,-0.4316073917062123,-0.18105249328396078,-0.8367933186455315,24.929562930729755,36.04836878072521,24.50044556055332,tremor
65,7250639,0.39,-0.4263723827228578,-0.1810504895353228,-0.8355847375382061,24.442189429827625,39.4760585369505,24.48326649617527,tremor
66,7250644,0.395,-0.41988769612574334,-0.18092909875992308,-0.8349503804875144,23.92337948849157,42.622528902423106,24.491934669519143,tremor
67,7250649,0.4,-0.41217115691798045,-0.18068634876418666,-0.8348921903833999,23.378195973498816,45.46597341927586,24.530370017887645,tremor
68,7250654,0.405,-0.40325253369348735,-0.18032167181000835,-0.8354067622710558,22.81171600887222,47.988085869786545,24.602352366182174,tremor
69,7250659,0.41,-0.3931730952747879,-0.17983589194189448,-0.8364854717005811,22.22899737087757,50.17417025433432,24.711520529195333,tremor
70,7250685,0.436,-0.3819850011890548,-0.17923119046479577,-0.8381146784832207,21.635050346041286,52.01318820028388,24.861373622020448,tremor
71,7250695,0.446,-0.36975054223440224,-0.17851105046405935,-0.8402760006339195,21.03481496667206,53.49774672230379,25.055273229969053,tremor
72,7250700,0.451,-0.3565412520364327,-0.17768018178137956,-0.8429466516814672,20.433143194625362,54.624031338226615,25.296444952744473,tremor
73,7250705,0.456,-0.34243691451392944,-0.17674442838034754,-0.8460998330831155,19.834785296744734,55.39169127601704,25.58797780391723,tremor
74,7250710,0.461,-0.3275244950648956,-0.1757106605341198,-0.8497051722814071,19.24437939288895,55.8036846540225,25.932820036190748,tremor
75,7250715,0.466,-0.3118970247156857,-0.17458665472212728,-0.8537291960564934,18.66644298942642,55.86609201672433,26.33377015941112,tremor
76,7250719,0.47,-0.29565246638680975,-0.17338096450721924,-0.8581358282883562,18.105365239478804,55.58790656622752,26.793462184105213,tremor
77,7250724,0.475,-0.2788925909543121,-0.17210278595391568,-0.8628869010553875,17.565398681282087,54.98080899265942,27.31434442787744,tremor
78,7250729,0.48,-0.2617218881282059,-0.17076182131768075,-0.8679426681543134,17.05064928091817,54.058934076387956,27.89865155110444,tremor
79,7250734,0.485,-0.24424653354512807,-0.16936814476276824,-0.8732623106194121,16.565063732712197,52.83863527096633,28.54836983580031,tremor
80,7250739,0.49,-0.22657342911084602,-0.16793207373885075,-0.8788044246237627,16.112413142200378,51.33825232529903,29.265196079740747,tremor
81,7250744,0.495,-0.20880932877349426,-0.1664640493615075,-0.8845274832288581,15.696272430143907,49.577885716717894,30.05049083454737,tremor
82,7250749,0.5,-0.19106005680671703,-0.16497452870547202,-0.8903902647691855,15.319995053337683,47.579180301215565,30.90522705503624,tremor
83,7250753,0.504,-0.17342982057133988,-0.16347389134711993,-0.896352242163534,14.986682941541822,45.36511921302253,31.829935531017995,tremor
84,7250758,0.509,-0.15602061483500362,-0.1619723618064089,-0.9023739290722854,14.699151896669179,42.959827745937886,32.82464872862849,tremor
85,7250763,0.514,-0.138931710291868,-0.16047994876859703,-0.908417180497286,14.459893076579265,40.38838581228771,33.888844866388844,tremor
86,7250768,0.519,-0.12225921517177084,-0.15900640115024398,-0.9144454470702742,14.271031567205023,37.676646686214724,35.021394181695065,tremor
87,7250773,0.524,-0.10609569597805377,-0.15756118025534735,-0.9204239838213941,14.134283402134317,34.85105916631287,36.22050939356821,tremor
88,7250778,0.529,-0.09052984162387699,-0.15615344649119825,-0.9263200155934765,14.050912683817776,31.938490090996662,37.483702322725854,tremor
89,7250783,0.534,-0.07564615467756783,-0.1547920584240189,-0.9321028624144063,14.021690661006103,28.966044344135046,38.807748478432934,tremor
90,7250815,0.566,-0.06152465416345837,-0.15348558139427834,-0.9377440290157787,14.046858691969579,25.960880108075713,40.18866116096223,tremor
91,7250819,0.57,-0.0482405764246364,-0.15224230252465573,-0.9432172632596139,14.126096951015342,22.950018106620988,41.621676277060324,tremor
92,7250824,0.575,-0.03586406385899348,-0.15107024878935676,-0.9484985884847306,14.258500515620774,19.960144787503953,43.10124866920994,tremor
93,7250829,0.58,-0.0244598356368262,-0.14997720491737476,-0.9535663147058243,14.442564131141614,17.017410606453925,44.62106037781995,tremor
94,7250834,0.585,-0.014086839359896011,-0.1489707282847161,-0.9584010332208815,14.67617654113097,14.147225601292845,46.17404093120018,tremor
95,7250839,0.59,-0.0047978874881278635,-0.1480581585603918,-0.9629855985787982,14.956624849231435,11.374055198610122,47.75239949643135,tremor
96,7250844,0.595,0.003360713283733965,-0.1472466206072486,-0.9673051011259955,15.280608983737613,8.721219683247883,49.347668506800346,tremor
97,7250849,0.6,0.010349528092414444,-0.14654301989161125,-0.9713468325781767,15.644265988144868,6.210701012762481,50.95075819190873,tremor
98,7250854,0.605,0.01613634158358643,-0.14595403033838872,-0.9751002463154882,16.043203565500864,3.86296069368249,52.55202126914123,tremor
99,7250858,0.609,0.020696472443080004,-0.14548607512469533,-0.9785569134161219,16.472542059845228,1.6967722614771183,54.141326910595815,tremor
100,7250863,0.614,0.02401304034887619,-0.14514530130450365,-0.981710474847791,16.926963863169288,-0.2709284738288767,55.7081429803928,tremor
101,7250868,0.619,0.026077172340176816,-0.1449375493878535,-0.9845565897411761,17.400769094232093,-2.0251728323160503,57.24162544547728,tremor
102,7250878,0.629,0.026888137937083386,-0.14486831906439565,-0.987092879281887,17.887936313685337,-3.553066490660483,58.73071379908066,tremor
103,7250882,0.633,0.02645340536374362,-0.1449427321791793,-0.989318865485395,18.38218702611885,-4.843873593986137,60.164231299514135,tremor
104,7250888,0.639,0.024788614678435537,-0.14516549386679367,-0.9912359039744911,18.877052778932246,-5.889077783461639,61.53098881639722,tremor
105,7250897,0.648,0.021917467225924345,-0.14554085246625711,-0.9928471098751785,19.36594380083644,-6.682421136306166,62.81989108642747,tremor
106,7250902,0.653,0.01787153433136261,-0.1460725585178227,-0.9941572760934283,19.84221831934191,-7.219922891612525,64.0200441998751,tremor
107,7250907,0.658,0.012689991304202251,-0.1467638228304767,-0.9951727835287871,20.299251929767827,-7.499880516533809,65.12086315077563,tremor
108,7250934,0.685,0.006419285395565003,-0.14761727334965255,-0.9959015032045254,20.730506616566075,-7.522856043842147,66.11217827260262,tremor
109,7250944,0.695,-0.0008872518497521431,-0.14863491038805127,-0.9963526908138498,21.129599205446937,-7.291650612439348,66.98433934101772,tremor
110,7250949,0.7,-0.009169836584473175,-0.1498180597417875,-0.9965368747364063,21.490369110888317,-6.811269768796491,67.72831606842556,tremor
111,7250954,0.705,-0.01836269805023119,-0.1511673233231025,-0.9964657390780923,21.806945212721555,-6.088881417038388,68.33579367035847,tremor
112,7250959,0.71,-0.028394567897237412,-0.15268252720406672,-0.9961520036348356,22.073811555239367,-5.133767471576338,68.79926217903272,tremor
113,7250964,0.715,-0.03918918634246745,-0.1543626673597794,-0.9956093028176579,22.285871355903872,-3.957269415894373,69.1120982230593,tremor
114,7250968,0.719,-0.050665820932204536,-0.15620585387872854,-0.9948520654953281,22.438508591694347,-2.5727272117854634,69.26863807361426,tremor
115,7250973,0.724,-0.06273979654062589,-0.15820925491911536,-0.9938953974428897,22.527646236879768,-0.9954103830236155,69.264240862373,tremor
116,7250978,0.729,-0.07532303774704262,-0.16036904218425266,-0.9927549676730076,22.5498000758142,0.7575603684591107,69.09534099783271,tremor
117,7250983,0.734,-0.08832462664658522,-0.16268034012561747,-0.9914468994176862,22.50212691894829,2.6673029561083164,68.75948894179757,tremor
118,7250988,0.739,-0.1016513803205846,-0.1651371814215273,-0.9899876659675034,22.382466015556783,4.713277179858857,68.2553796553957,tremor
119,7250993,0.744,-0.11520845256385936,-0.1677324714880466,-0.9883939910128561,22.18937248330908,6.873403494158633,67.58286818367206,tremor
120,7250998,0.749,-0.12889996404352316,-0.1704579648268565,-0.9866827526123544,21.92214165924416,9.124199077376208,66.74297202100831,tremor
121,7251003,0.754,-0.1426296639087092,-0.17330425588529555,-0.984870889475933,21.580823413831414,11.440932634149362,65.73786008872503,tremor
122,7251008,0.759,-0.15630162408799064,-0.1762607867976231,-0.9829753079282406,21.166225655033305,13.797798839016995,64.57082836312047,tremor
123,7251017,0.768,-0.16982096523996798,-0.17931587390977574,-0.9810127877443463,20.67990648037951,16.168112668747508,63.24626241769145,tremor
124,7251027,0.778,-0.1830946107224369,-0.1824567543870199,-0.9789998850570805,20.12415471210031,18.524523096502616,61.7695873859692,tremor
125,7251032,0.783,-0.19603206219360816,-0.1856696534966931,-0.9769528307538383,19.50195887218816,20.83924477608052,60.14720610448657,tremor
126,7251058,0.809,-0.20854618775685435,-0.18893987238851725,-0.9748874232329107,18.816965011752927,23.084305495690227,58.3864264432867,tremor
127,7251063,0.814,-0.2205540111460127,-0.1922518954158822,-0.9728189150700338,18.073424177064727,25.23180642352326,56.49537904956048,tremor
128,7251068,0.819,-0.2319774885955786,-0.19558951531377144,-0.9707618939943593,17.276130628486342,27.254191621544383,54.48292688945229,tremor
129,7251073,0.824,-0.24274425902431956,-0.19893597393095816,-0.968730159470185,16.430352177635697,29.12452307220441,52.35856805196373,tremor
130,7251087,0.838,-0.2527883531650132,-0.20227411574607368,-0.9667365969888222,15.541754146118967,30.816757557036055,50.13233327900139,tremor
131,7251092,0.843,-0.26205084829289527,-0.20558655109141952,-0.9647930527929798,14.61631848718372,32.306022038250035,47.81467963635425,tremor
132,7251111,0.862,-0.27048045704095036,-0.20885582585682905,-0.9629102121426151,13.660259578006306,33.568884560265474,45.41638168040077,tremor
133,7251121,0.872,-0.27803404111204183,-0.2120645944364461,-0.9610974843860701,12.679938107509921,34.58361797240882,42.94842143035863,tremor
134,7251135,0.886,-0.28467704310855624,-0.21519579280162268,-0.9593628980335481,11.681774373316827,35.33045389860513,40.42187843236519,tremor
135,7251150,0.901,-0.2903838317857291,-0.21823280880713886,-0.9577130087454601,10.672162193649198,35.79182431003605,37.8478211937642,tremor
136,7251182,0.933,-0.2951379574628974,-0.22115964711279681,-0.956152822653813,9.65738457289873,35.95258779735827,35.23720126452332,tremor
137,7251187,0.938,-0.29893231498359185,-0.22396108635852177,-0.9546857367773023,8.643532253135966,35.800237260803385,32.60075123688305,tremor
138,7251192,0.943,-0.30176921168616866,-0.2266228264194596,-0.9533134975846579,7.636426321532218,35.3250854021274,29.948887904894733,tremor
139,7251202,0.953,-0.30366033775168594,-0.22913162369375084,-0.9520361781666218,6.641546076149875,34.52042431972623,27.291621746338855,tremor
140,7251207,0.958,-0.3046266364902141,-0.23147541249109066,-0.9508521741249368,5.663963328800952,33.38265579979914,24.63847374777781,tremor
141,7251221,0.972,-0.3046980729082238,-0.23364341075060824,-0.9497582182087181,4.708284222022845,31.91138951771798,21.998400405300835,tremor
142,7251226,0.977,-0.3039133003489048,-0.23562620855330196,-0.9487494138565955,3.7785994662064257,30.109507162718856,19.379727532641617,tremor
143,7251231,0.982,-0.3023192270221989,-0.23741583821387208,-0.9478192880181647,2.878443683308856,27.98319132282471,16.790093323539583,tremor
144,7251236,0.987,-0.2999704866321068,-0.23900582513043278,-0.9469598638086942,2.010764298084657,25.541918708907264,14.236400959999234,tremor
145,7251241,0.992,-0.2969288197914242,-0.24039121901891553,-0.9461617536011052,1.177900169455803,22.79841790265419,11.724780932593067,tremor
146,7251246,0.997,-0.29326237521307347,-0.24156860563479568,-0.9454142730248156,0.3815699243162375,19.76859227840476,9.260563134915193,tremor
147,7251251,1.002,-0.28904494155286475,-0.24253609955616273,-0.9447055760097584,-0.3771302417025869,16.471409098498324,6.848258701409256,tremor
148,7251256,1.007,-0.2843551220883626,-0.24329331903636453,-0.9440228105033345,-1.0977196901054627,12.92875604370216,4.4915514690948015,tremor
149,7251260,1.011,-0.27927546506659284,-0.2438413443016327,-0.9433522938322344,-1.7803179024650855,9.165266634016497,2.193298856981573,tremor
150,7251275,1.026,-0.2738915625281803,-0.24418266094439628,-0.94267970592285,-2.4256210668640947,5.208116135641566,-0.044458127333874504,tremor
151,7251306,1.057,-0.268291129771541,-0.24432109022748527,-0.9419902977875703,-3.034871311326906,1.086789654859968,-2.220476125871539,tremor
152,7251316,1.067,-0.2625630764875878,-0.24426170815920503,-0.9412691119106579,-3.6098192129604816,-3.1671757829723917,-4.334282365283387,tremor
153,7251320,1.071,-0.2567965792064158,-0.2440107551366358,-0.9405012105480395,-4.152680203704503,-7.520473243146505,-6.386139821389649,tremor
154,7251330,1.081,-0.2510801633731374,-0.24357553782695204,-0.9396719076260771,-4.666085499741328,-11.938329865409505,-8.377005226134106,tremor
155,7251335,1.086,-0.24550080240274733,-0.24296432482474795,-0.9387669999635897,-5.153028220607667,-16.384830462139135,-10.308480602417252,tremor
156,7251340,1.091,-0.24014304057884922,-0.24218623753620117,-0.9377729939141075,-5.616805433314724,-20.823258108087344,-12.18275906797092,tremor
157,7251345,1.096,-0.23508814658750968,-0.24125113771552686,-0.9366773241029835,-6.060956938044132,-25.216448861195126,-14.002565683834124,tremor
158,7251350,1.101,-0.230413304639086,-0.24016951310523937,-0.9354685615652918,-6.489201686815018,-29.527157561199452,-15.771094138478714,tremor
159,7251355,1.106,-0.22619085034824438,-0.23895236268622563,-0.9341366091568348,-6.905372784087206,-33.71843149970728,-17.491940061259857,tremor
160,7251359,1.11,-0.22248755867907155,-0.23761108310107681,-0.932672882539518,-7.313352053649565,-37.75398862796399,-19.16903175453001,tremor
161,7251364,1.115,-0.21936399122746486,-0.23615735785086836,-0.9310704752977959,-7.717005167078146,-41.59859685482589,-20.806559125998692,tremor
162,7251369,1.12,-0.21687390985410185,-0.2346030508613168,-0.9293243068147677,-8.120118315091887,-45.21845087889868,-22.408901592653873,tremor
163,7251379,1.13,-0.2150637631776207,-0.23296010595261993,-0.9274312514361037,-8.526337366363975,-48.58154288841233,-23.980555714442453,tremor
164,7251384,1.135,-0.2139722516973417,-0.2312404536170552,-0.9253902472099351,-8.939110403268888,-51.658023345782865,-25.526063299632288,tremor
165,7251389,1.14,-0.2136299763729648,-0.22945592630588366,-0.9232023821657703,-9.361634455704372,-54.420547951036234,-27.049940704345346,tremor
166,7251393,1.144,-0.21405917440409458,-0.22761818315868235,-0.9208709557579523,-9.796807176240408,-56.844606752950014,-28.556610026456674,tremor
167,7251398,1.149,-0.21527354479944633,-0.2257386447904181,-0.9184015128275287,-10.24718411465298,-58.90883125340945,-30.05033286963216,tremor
168,7251403,1.154,-0.21727816518002996,-0.2238284384077416,-0.9158018473003144,-10.714942158878502,-60.59527523311447,-31.53514732798146,tremor
169,7251429,1.18,-0.22006950018814064,-0.22189835318152443,-0.9130819728917274,-11.201849613619896,-61.8896649205607,-33.01480881710541,tremor
170,7251434,1.185,-0.22363550092600343,-0.21995880548147226,-0.9102540583697367,-11.709243288485174,-62.78161404478062,-34.492735354121685,tremor
171,7251439,1.19,-0.2279557940620168,-0.21801981330171147,-0.9073323254648402,-12.238012867520196,-63.264799289364255,-35.97195786706219,tremor
172,7251443,1.194,-0.23300195863663814,-0.21609097898976884,-0.9043329083231736,-12.788592735932832,-63.33709175252687,-37.45507609048077,tremor
173,7251448,1.199,-0.2387378881571411,-0.21418147924228986,-0.9012736744549719,-13.360961351168825,-63.000640258900376,-38.944220574607264,tremor
174,7251453,1.204,-0.24512023523023538,-0.21230006124373446,-0.8981740083713049,-13.954648163532683,-62.2619027766179,-40.441021293288834,tremor
175,7251458,1.209,-0.2520989356525829,-0.21045504378447255,-0.8950545604334597,-14.568748011507076,-61.131622763100914,-41.94658327420237,tremor
176,7251463,1.214,-0.2596178084646786,-0.20865432218525606,-0.8919369647658868,-15.201942832666212,-59.624747994297785,-43.46146958857355,tremor
177,7251477,1.228,-0.2676152278881633,-0.2069053758615166,-0.888843531325267,-15.852530437117002,-57.760290330833904,-44.985691925719564,tremor
178,7251482,1.233,-0.276024862239747,-0.2052152773721604,-0.8857969183096577,-16.518459982385433,-55.56112594371147,-46.51870884190438,tremor
179,7251487,1.238,-0.2847764737875099,-0.20359070180501543,-0.8828197919711728,-17.19737366279464,-53.05373676166228,-48.059431617132226,tremor
180,7251492,1.243,-0.29379677204589383,-0.20203793534947254,-0.8799344815025002,-17.886653979593873,-50.26789530576306,-49.60623748360673,tremor
181,7251497,1.248,-0.3030103111908646,-0.20056288189570204,-0.877162636959391,-18.58347579006446,-47.2362966170687,-51.15698981314432,tremor
182,7251502,1.253,-0.31234042016891195,-0.19917106648481805,-0.8745248981555505,-19.28486214842493,-43.99414260424126,-52.70906467521651,tremor
183,7251516,1.267,-0.32171015177596957,-0.19786763442632893,-0.8720405821589109,-19.987742755723037,-40.578685770218726,-54.25938300918417,tremor
184,7251521,1.272,-0.3310432346382244,-0.19665734491270986,-0.869727396480512,-20.689013639752137,-37.02874084183459,-55.80444750177047,tremor
185,7251526,1.277,-0.3402650098282792,-0.19554455801484763,-0.8676011843269857,-21.38559650340929,-33.38417422242275,-57.340383136416385,tremor
186,7251553,1.304,-0.349303332046659,-0.1945332140596817,-0.8656757074239868,-22.074496030856714,-29.685382285543266,-58.86298030111184,tremor
187,7251558,1.309,-0.3580894141799192,-0.19362680459570458,-0.8639624709428998,-22.752853353558223,-25.97277018911622,-60.36773932163345,tremor
188,7251563,1.314,-0.36655859392599804,-0.19282833445937464,-0.8624705940025735,-23.417993893025958,-22.28624296885343,-61.84991534244686,tremor
189,7251568,1.319,-0.37465100236206417,-0.1921402748704786,-0.8612067280911752,-24.067467956343215,-18.66472004346315,-63.30456261760412,tremor
190,7251573,1.324,-0.3823121170062237,-0.1915645079957274,-0.8601750245767688,-24.699082776030767,-15.145682931485752,-64.72657749030039,tremor
191,7251578,1.329,-0.3894931860181547,-0.1911022639981657,-0.859377151267166,-25.310925118894314,-11.76476413010932,-66.1107395983141,tremor
192,7251582,1.333,-0.39615151536308746,-0.1907540521932633,-0.8588123567627002,-25.9013740738561,-8.555383017095066,-67.45175109971295,tremor
193,7251587,1.338,-0.4022506165805311,-0.19051958851546283,-0.8584775801460589,-26.469104111447596,-5.548432523343943,-68.7442739375317,tremor
194,7251592,1.343,-0.40776021881138946,-0.19039772201886565,-0.8583676024002596,-27.013078953454908,-2.7720183038544888,-69.98296533926899,tremor
195,7251597,1.348,-0.4126561545385897,-0.19038636355461533,-0.8584752348714526,-27.53253717858433,-0.25125027652024756,-71.16251187328457,tremor
196,7251602,1.353,-0.4169201337149949,-0.1904824200542327,-0.8587915391312108,-28.026970803913926,1.9919152468700752,-72.27766246160625,tremor
197,7251606,1.357,-0.42053942526951715,-0.19068173798151622,-0.8593060717758093,-28.496098312775523,3.9387860017834075,-73.32326078274266,tremor
198,7251611,1.362,-0.4235064681648205,-0.19097905948493926,-0.8600071470578687,-28.93983374352769,5.57400104767983,-74.29427749517663,tremor
199,7251616,1.367,-0.4258184360910569,-0.1913679945850655,-0.860882109807438,-29.358253511634526,6.885559931454877,-75.18584267774202,tremor
200,7251621,1.372,-0.42747678046466725,-0.19184101237040738,-0.8619176108931316,-29.751562614989453,7.864819253019516,-75.99327882100702,tremor
201,7251626,1.377,-0.42848677566793614,-0.1923894536583255,-0.8630998775253623,-30.120061777252896,8.50646228215107,-76.71213461632884,tremor
202,7251630,1.381,-0.42885708847592785,-0.19300356691773854,-0.8644149710352349,-30.464116924247968,8.808447075912262,-77.33821967742992,tremor
203,7251635,1.386,-0.4285993904821814,-0.19367256846476724,-0.8658490253913786,-30.784132172269818,8.771938023063896,-77.86764019441291,tremor
204,7251645,1.396,-0.4277280282033468,-0.19438472705236398,-0.8673884606546032,-31.08052724307188,8.401224926042168,-78.29683536480104,tremor
205,7251678,1.429,-0.42625976060735893,-0.19512747200786612,-0.8690201668192744,-31.353719916778882,7.703632664451008,-78.62261427497972,tremor
206,7251683,1.434,-0.4242135683297321,-0.19588752307017002,-0.8707316550262931,-31.604113799285944,6.6894232192124266,-78.84219272595034,tremor
207,7251688,1.439,-0.42161053319637015,-0.1966510391106416,-0.8725111748717425,-31.832091327113325,5.37169046178205,-78.95322932401419,tremor
208,7251693,1.444,-0.41847378134864593,-0.19740378208491602,-0.8743477983207538,-32.038011582014875,3.766246773491404,-78.95386001142091,tremor
209,7251702,1.453,-0.414828478735522,-0.19813129194587248,-0.8762314723788523,-32.222212169272616,1.8914994233419538,-78.84273011413032,tremor
210,7251707,1.458,-0.41070186428713473,-0.19881906789626497,-0.8781530440205572,-32.38501415634677,-0.23168617915785183,-78.61902294314437,tremor
211,7251712,1.463,-0.40612330381289197,-0.19945275126968173,-0.8801042618431897,-32.52672889562813,-2.580139669163965,-78.2824840031643,tremor
212,7251717,1.468,-0.40112434658901236,-0.20001830547499946,-0.8820777594730954,-32.64766548251605,-5.128558693936631,-77.83343993576017,tremor
213,7251722,1.473,-0.39573876670487024,-0.20050218879175818,-0.8840670259100314,-32.74813763283788,-7.849704656576363,-77.27281144879431,tremor
214,7251726,1.477,-0.3900025724644751,-0.20089151632683278,-0.8860663677935265,-32.828468893054975,-10.714623556444472,-76.60211964848155,tremor
215,7251731,1.482,-0.3839539693617875,-0.20117420809547498,-0.8880708680744703,-32.88899530531926,-13.692893330547514,-75.8234853800898,tremor
216,7251736,1.487,-0.3776332651950069,-0.20133912092934944,-0.8900763448441364,-32.93006491730413,-16.752898015601936,-74.9396213825802,tremor
217,7251741,1.492,-0.37108270956466805,-0.20137616269911365,-0.8920793131763288,-32.952033832209494,-19.862127858336702,-73.95381725802781,tremor
218,7251746,1.497,-0.3643462641065356,-0.20127638812911583,-0.8940769518369818,-32.95525881341371,-22.987503260022134,-72.86991743855651,tremor
219,7251751,1.502,-0.35746930411310296,-0.20103207623705682,-0.8960670756664968,-32.94008676670553,-26.095719210047974,-71.69229249715019,tremor
220,7251756,1.507,-0.35049825644540905,-0.2006367901142494,-0.8980481133971303,-32.906841699246954,-29.153605699958824,-70.42580429460953,tremor
221,7251760,1.511,-0.3434801825763858,-0.20008542033985932,-0.9000190896814706,-32.85580998069074,-32.12849856401179,-69.07576558615362,tremor
222,7251766,1.517,-0.336462319012051,-0.19937421376928757,-0.9019796092265671,-32.787224895152846,-34.988614306424644,-67.64789482963499,tremor
223,7251770,1.521,-0.329491590027887,-0.19850078973262383,-0.9039298401974464,-32.70125156432439,-37.703421782637065,-66.14826704121445,tremor
224,7251797,1.548,-0.32261410950195324,-0.19746414580896013,-0.9058704935177154,-32.59797333677638,-40.24400313342963,-64.58326162778243,tremor
225,7251802,1.553,-0.3158746895245646,-0.19626465529689105,-0.9078027944015326,-32.47738067625675,-42.583396166834035,-62.959508179883166,tremor
226,7251807,1.558,-0.30931637333589374,-0.19490405827957588,-0.9097284424609133,-32.339363450094865,-44.69691050073318,-61.28383122461748,tremor
227,7251812,1.563,-0.30298000894151556,-0.19338544779823053,-0.9116495571097777,-32.183707333189865,-46.56241027115318,-59.5631949071529,tremor
228,7251817,1.568,-0.29690387753404324,-0.19171325213768908,-0.9135686057598885,-32.010094822736704,-48.16055706998822,-57.80464849242153,tremor
229,7251821,1.572,-0.29112338780384106,-0.1898932136505245,-0.9154883134265343,-31.818111121818127,-49.47500791077763,-56.01527346677136,tremor
230,7251826,1.577,-0.28567084365351175,-0.1879323639696032,-0.917411553716884,-31.607254910044684,-50.492564309834655,-54.202132889266714,tremor
231,7251836,1.587,-0.2805752890487903,-0.18583899494309378,-0.9193412226195867,-31.37695378618385,-51.20326992318525,-52.37222350713335,tremor
232,7251841,1.592,-0.27586243000227534,-0.18362262421536252,-0.9212800979201035,-31.126583948638864,-51.600455551913875,-50.53243101648915,tremor
233,7251846,1.597,-0.27155463019941,-0.1812939540989461,-0.9232306883241522,-30.855493482217152,-51.68073169318084,-48.689488720630735,tremor
234,7251851,1.602,-0.267670973691534,-0.17886482224698005,-0.9251950773940524,-30.563028452218475,-51.44393014750977,-46.849939714535815,tremor
235,7251855,1.606,-0.2642273854980857,-0.17634814263689813,-0.9271747681268413,-30.248560877475633,-50.892997472455214,-45.02010260691078,tremor
236,7251860,1.611,-0.2612367989217362,-0.17375783549886126,-0.9291705343966605,-29.911517568172165,-50.0338442791963,-43.206040682296035,tremor
237,7251870,1.621,-0.25870935688610874,-0.17110874504688553,-0.931182285541933,-29.5514087740072,-48.87515548352547,-41.413534308343706,tremor
238,7251879,1.63,-0.2566526336417604,-0.16841654418168295,-0.9332089501096162,-29.167855592610287,-47.42816762039835,-39.64805631066459,tremor
239,7251884,1.635,-0.25507186275363597,-0.16569762572092928,-0.9352483841901524,-28.760615135134564,-45.70642016783037,-37.914749974516546,tremor
240,7251889,1.64,-0.2539701574110755,-0.16296898016168537,-0.937297308911211,-28.329602533387327,-43.725488438220474,-36.21840929676112,tremor
241,7251894,1.645,-0.2533487098277263,-0.16024806047096438,-0.939351280542049,-27.874908995569108,-41.502705922666905,-34.56346111165909,tremor
242,7251922,1.673,-0.2532069578360892,-0.15755263491129282,-0.941404695345151,-27.396815266431236,-39.05688398563387,-32.95394875673129,tremor
243,7251932,1.683,-0.25354270870648704,-0.15490062941645738,-0.9434508298680313,-26.895800012942995,-36.408036487894314,-31.393517033244876,tremor
244,7251942,1.693,-0.2543522126976936,-0.15230996151119247,-0.9454819158905988,-26.3725428342322,-33.57711622138401,-29.885398348920813,tremor
245,7251947,1.698,-0.2556301818389564,-0.14979836818048167,-0.9474892478506831,-25.827921786232952,-30.58576891689661,-28.432400097915124,tremor
246,7251951,1.702,-0.25736975286863817,-0.14738323040328877,-0.9494633193766036,-25.263005518259245,-27.45610907056016,-27.036893509721228,tremor
247,7251956,1.707,-0.2595623969396084,-0.14508139725454336,-0.9513939846293968,-24.67904033406918,-24.21052010385153,-25.700804350025603,tremor
248,7251961,1.712,-0.2621977823997024,-0.14290901255560837,-0.953270639503745,-24.077432699029078,-20.87147965535893,-24.425605957105546,tremor
249,7251966,1.717,-0.2652636004151164,-0.14088134703933525,-0.95508241732,-23.45972790083557,-17.461409268777363,-23.21231514181289,tremor
250,7251971,1.722,-0.2687453662103699,-0.1390126389139357,-0.9568183934168597,-22.827585720900505,-14.002546467512605,-22.061491477088268,tremor
251,7251976,1.727,-0.272626211069909,-0.13731594557615562,-0.9584677929920611,-22.182754078937897,-10.51683621597085,-20.973240466617884,tremor
252,7251980,1.731,-0.2768866818277712,-0.13580300904624465,-0.9600201966127133,-21.52704167064037,-7.0258380659218576,-19.947221020729526,tremor
253,7251985,1.736,-0.28150456524326606,-0.1344841374759895,-0.9614657380083591,-20.86229062794975,-3.550644867941244,-18.982657586434886,tremor
254,7251990,1.741,-0.2864547543618363,-0.13336810481370245,-0.9627952890566749,-20.19035019786549,-0.1118087794219087,-18.078357180432413,tremor
255,7251995,1.746,-0.29170917269922136,-0.13246207039190083,-0.9640006272727872,-19.51305236596206,3.2707295944615162,-17.232731459499593,tremor
256,7252000,1.751,-0.29723676992914266,-0.131771519829683,-0.9650745816255852,-18.83219025132279,6.5777127447614285,-16.443823831467917,tremor
257,7252005,1.756,-0.3030035998050219,-0.1313002282089239,-0.9660111531378482,-18.149499974507407,9.790641727139478,-15.709341461697035,tremor
258,7252010,1.761,-0.3089729874367031,-0.13105024599052,-0.9668056074895558,-17.46664655093245,12.89185799390701,-15.026691866124787,tremor
259,7252015,1.766,-0.3151057889249734,-0.1310219075873197,-0.9674545377395989,-16.78521418886123,15.864633028389166,-14.393023605748187,tremor
260,7252042,1.793,-0.32136074189872676,-0.13121386191357928,-0.9679558963067799,-16.106701174619626,18.693266050232232,-13.80527041309153,tremor
261,7252047,1.798,-0.32769490090559367,-0.13162312360785006,-0.9683089964845216,-15.432519309377094,21.36318877353308,-13.260197896504605,tremor
262,7252052,1.803,-0.33406414715110044,-0.1322451430182846,-0.9685144849472415,-14.76399762528235,23.861074900432396,-12.754451799470838,tremor
263,7252057,1.808,-0.34042375810884984,-0.13307389250749133,-0.9685742878418744,-14.102389861858509,26.174950878726776,-12.284606664620922,tremor
264,7252061,1.812,-0.34672901936001294,-0.13410196623854517,-0.9684915340362881,-13.448884943037564,28.294303592228154,-11.84721368850818,tremor
265,7252066,1.817,-0.35293585885444473,-0.13532069037726097,-0.9682704598401758,-12.80461948613425,30.21018016261034,-11.438846563560254,tremor
266,7252071,1.822,-0.3590014826547002,-0.13672024058733956,-0.9679162999948172,-12.170691222911614,31.915274930581624,-11.056144187716951,tremor
267,7252076,1.827,-0.36488499109011785,-0.13828976378524224,-0.9674351699497031,-11.548172140417352,33.40399893863745,-10.695849274931236,tremor
268,7252081,1.832,-0.37054795506795557,-0.1400175013385451,-0.9668339444216787,-10.938120167581156,34.67252782925911,-10.354842110265993,tremor
269,7252086,1.837,-0.3759549340281202,-0.14189091121492156,-0.9661201369834567,-10.341588345185269,35.718824945668786,-10.030168943713353,tremor
270,7252096,1.847,-0.3810739196459599,-0.14389678699942302,-0.9653017849717072,-9.759630614339741,36.542637500653996,-9.719064783654783,tremor
271,7252101,1.852,-0.3858766928101059,-0.1460213721745694,-0.9643873433622095,-9.193303625523098,37.1454648824246,-9.418970608407243,tremor
272,7252105,1.856,-0.3903390854913619,-0.1482504685764623,-0.9633855904580017,-8.643664281650526,37.53049941405493,-9.127545237441414,tremor
273,7252110,1.861,-0.39444114365078925,-0.1505695384717239,-0.9623055473099733,-8.11176305219995,37.702541087420975,-8.842672273416959,tremor
274,7252115,1.866,-0.39816719201676365,-0.15296380021308698,-0.9611564117791095,-7.598633397576534,37.66788886750302,-8.562462636676843,tremor
275,7252120,1.871,-0.40150580607279845,-0.15541831789520888,-0.959947507105114,-7.105277898551659,37.43421204539428,-8.285253275407488,tremor
276,7252130,1.881,-0.4044497006342146,-0.15791808581801406,-0.9586882438230604,-6.632651882389369,37.010405780666396,-8.009602664487945,tremor
277,7252134,1.885,-0.4069955476679662,-0.16044810884482275,-0.9573880929243107,-6.181645470442226,36.40643541159281,-7.7342837177123025,tremor
278,7252165,1.916,-0.4091437382639089,-0.1629934798902033,-0.9560565673464906,-5.753065038135919,35.633174321496575,-7.458274737336178,tremor
279,7252170,1.921,-0.4108981046957242,-0.16553945576757714,-0.9547032082647037,-5.347615075184219,34.70224011638317,-7.180749009854583,tremor
280,7252174,1.925,-0.41226561825644087,-0.16807153246492998,-0.9533375723216939,-4.96588136505819,33.625833574197415,-6.901063619304208,tremor
281,7252179,1.93,-0.41325607715822144,-0.17057552061936737,-0.9519692159549173,-4.608316279575273,32.41658427146355,-6.618747980170729,tremor
282,7252184,1.935,-0.4138817965543384,-0.17303762157185837,-0.9506076733860992,-4.275226823635739,31.087406029335597,-6.3334924908747,tremor
283,7252189,1.94,-0.41415731003541634,-0.17544450395682168,-0.9492624255908735,-3.9667658837905395,29.65136444463415,-6.045137587511126,tremor
284,7252194,1.945,-0.4140990890948736,-0.17778338036791427,-0.9479428585555076,-3.6829269469338097,28.12155788264091,-5.753663351975568,tremor
285,7252199,1.95,-0.4137252842953859,-0.18004208328081184,-0.9466582102256783,-3.423542373084552,26.511012474775054,-5.459179710562527,tremor
286,7252204,1.955,-0.41305548937203407,-0.18220913913160175,-0.9454175066432405,-3.1882851376162233,24.832590922400797,-5.161917155545031,tremor
287,7252209,1.96,-0.4121105273929643,-0.1842738392578816,-0.9442294887616943,-2.976673810494967,23.09891428393305,-4.862217838587906,tremor
288,7252214,1.965,-0.41091225642993445,-0.18622630631028528,-0.9431025322660261,-2.7880804190796846,21.32229544138797,-4.560526826510279,tremor
289,7252218,1.969,-0.40948339099492814,-0.1880575547300283,-0.9420445633548619,-2.6217407518455893,19.514682625205612,-4.257383281494109,tremor
290,7252223,1.974,-0.4078473347757386,-0.18975954395523345,-0.9410629738447821,-2.4767666061455165,17.687611229840545,-3.95341133117524,tremor
291,7252228,1.979,-0.40602801993975973,-0.19132522315584985,-0.9401645391121536,-2.3521594633785563,15.85216216730811,-3.6493104268060335,tremor
292,7252233,1.984,-0.4040497484487637,-0.1927485664934686,-0.9393553422931743,-2.2468250855791934,14.018925158954733,-3.3458450439054044,tremor
293,7252238,1.989,-0.40193703140680054,-0.19402459814677125,-0.9386407078320965,-2.1595885629074445,12.197965628817938,-3.043833651580115,tremor
294,7252248,1.999,-0.39971442340492785,-0.1951494066229423,-0.9380251469352174,-2.0892093970644416,10.39879420443301,-2.7441369554050357,tremor
295,7252253,2.004,-0.3974063500676878,-0.19612014817594903,-0.9375123168032636,-2.034396277636276,8.630338220578581,-2.4476454964619885,tremor
296,7252258,2.009,-0.395036928458135,-0.19693503945882077,-0.9371049947335461,-1.993821292779601,6.900915024139971,-2.1552667598533355,tremor
297,7252262,2.013,-0.39262978154513706,-0.19759333983337476,-0.9368050673663383,-1.9661334064550335,5.218207260134846,-1.8679120060729992,tremor
298,7252288,2.039,-0.3902078494456279,-0.1980953240326549,-0.9366135345594754,-1.949971123004594,3.589240651231799,-1.5864830862532342,tremor
299,7252293,2.044,-0.38779320148245067,-0.198442246104935,-0.9365305266714281,-1.9439743357585393,2.0203650398336768,-1.3118595357027052,tremor
300,7252298,2.049,-0.38540685409007086,-0.19863629574812858,-0.9365553334753052,-1.9467954085162207,0.5172396080355185,-1.044886254583489,tremor
301,7252307,2.058,-0.38306860010201266,-0.19868054825247752,-0.9366864425708782,-1.957109559468648,-0.9151768125356602,-0.7863620730868148,tremor
302,7252312,2.063,-0.3807968548684805,-0.19857890929488453,-0.9369215850442311,-1.9736246075050212,-2.272629590722624,-0.537029458545554,tremor
303,7252317,2.068,-0.37860852399644485,-0.19833605577134972,-0.9372577862373823,-1.9950901111872117,-3.5515658328355904,-0.2975655605825954,tremor
304,7252327,2.078,-0.37651889639960023,-0.19795737373055086,-0.9376914197836116,-2.0203058935836427,-4.749125458260476,-0.06857472040944033,tremor
305,7252337,2.088,-0.3745415649624419,-0.1974488943054492,-0.9382182634688345,-2.0481299101022823,-5.863125981107095,0.14941749724455802,tremor
306,7252341,2.092,-0.37268837563632895,-0.1968172283562541,-0.9388335559247611,-2.0774853860011238,-6.892041439449934,0.355968750084793,tremor
307,7252346,2.097,-0.37096940436347153,-0.19606950036125748,-0.9395320535816394,-2.1073671290503477,-7.834976125554457,0.5507228899974234,tremor
308,7252351,2.102,-0.36939296001372296,-0.19521328194213386,-0.9403080876551851,-2.1368469142773194,-8.691633908033626,0.7334115434373542,tremor
309,7252356,2.107,-0.3679656106167754,-0.1942565252999381,-0.9411556211818838,-2.1650778434861677,-9.462284000068342,0.9038544068413441,tremor
310,7252366,2.117,-0.36669222961287873,-0.19320749677105864,-0.9420683062401843,-2.191297601400404,-10.147724027701223,1.0619583779648352,tremor
311,7252371,2.122,-0.3655760586117881,-0.1920747106862011,-0.9430395415108697,-2.21483056001402,-10.7492412045853,1.207715651968245,tremor
312,7252376,2.127,-0.36461878319933533,-0.19086686372441392,-0.9440625302567204,-2.2350887192224174,-11.26857233923494,1.3412009141133974,tremor
313,7252381,2.132,-0.36382061860952924,-0.1895927699912412,-0.945130338663276,-2.251571510863593,-11.7078632996817,1.462567759917156,tremor
314,7252385,2.136,-0.3631804025259754,-0.18826129710743733,-0.9462359543054562,-2.2638645312049035,-12.069628448644508,1.5720444685386792,tremor
315,7252421,2.172,-0.3626956928232108,-0.1868813036637563,-0.9473723443156926,-2.2716373008427606,-12.356710449972466,1.6699292457030483,tremor
316,7252425,2.176,-0.3623628686361565,-0.18546157846837755,-0.9485325126541309,-2.2746401783151624,-12.572240744411204,1.7565850390478432,tremor
317,7252430,2.181,-0.36217723367915766,-0.1840107820740757,-0.949709555747189,-2.2727005710255237,-12.719600908736032,1.8324340130970884,tremor
318,7252435,2.186,-0.3621331211510566,-0.18253739110758785,-0.9508967156927768,-2.2657185912693643,-12.802385052244983,1.897951755143433,tremor
319,7252440,2.191,-0.3622239998107604,-0.1810496459223464,-0.9520874302431096,-2.253662296654244,-12.824363367059565,1.9536612687865569,tremor
320,7252445,2.196,-0.3624425808886326,-0.17955550205592563,-0.9532753788636571,-2.2365626376779515,-12.789446926501238,2.0001268000527213,tremor
321,7252450,2.201,-0.36278092545486845,-0.17806258590279567,-0.9544545243073189,-2.214508216280331,-12.701653811708912,2.0379475329269474,tremor
322,7252459,2.21,-0.36323055175204555,-0.17657815492268955,-0.9556191493104522,-2.1876399411003313,-12.565076637123585,2.0677511871475187,tremor
323,7252464,2.215,-0.3637825418616714,-0.17510906260548545,-0.9567638881908096,-2.1561456490251287,-12.383851539526438,2.0901875508310774,tremor
324,7252470,2.221,-0.3644276469479197,-0.17366172831331442,-0.9578837532917515,-2.120254748785849,-12.162128691665773,2.105921982890684,tremor
325,7252474,2.225,-0.3651563902319002,-0.17224211202635983,-0.9589741563614796,-2.080232931094095,-11.90404439777221,2.115628924110802,tremor
326,7252479,2.23,-0.36595916681384844,-0.170855693935768,-0.9600309250730948,-2.036376981166814,-11.613694822430935,2.1199854603775203,tremor
327,7252484,2.235,-0.3668263394807818,-0.1695074587585929,-0.9610503149772868,-1.989009723157835,-11.295111396193903,2.119664986595523,tremor
328,7252489,2.24,-0.3677483297006591,-0.16820188459699775,-0.9620290172342942,-1.938475121280055,-10.952237932708483,2.11533102501982,tremor
329,7252494,2.245,-0.3687157030926634,-0.16694293612654137,-0.962964162497852,-1.885133558393759,-10.588909485544082,2.107631256861717,tremor
330,7252499,2.25,-0.36971924876265866,-0.1657340618747334,-0.9638533213248198,-1.8293573092390505,-10.208832970616177,2.097191830831864,tremor
331,7252504,2.255,-0.3707500519940958,-0.16457819533911383,-0.9646945014641588,-1.771526222636156,-9.815569583710133,2.0846120160929797,tremor
332,7252508,2.259,-0.3717995598809273,-0.16347775969182807,-0.9654861423420356,-1.712023624946503,-9.412519052540743,2.0704592689137438,tremor
333,7252533,2.284,-0.3728596395746901,-0.16243467582319554,-0.9662271070101299,-1.6512324552110669,-9.002905777623193,2.055264781599297,tremor
334,7252538,2.289,-0.3739226288892096,-0.1614503734884893,-0.9669166717658246,-1.5895316399999255,-8.589766931421156,2.0395195790435023,tremor
335,7252543,2.294,-0.3749813790644726,-0.16052580533823657,-0.967554513590969,-1.5272927133443395,-8.175942592483597,2.023671222162557,tremor
336,7252548,2.299,-0.37602928954363196,-0.15966146363031392,-0.9681406954969437,-1.4648766852051684,-7.764067981660834,2.0081211677147253,tremor
337,7252552,2.303,-0.3770603346756447,-0.1588573994390941,-0.968675649814938,-1.402631161840827,-7.356567837901483,1.9932228206077924,tremor
338,7252562,2.313,-0.3780690823315833,-0.15811324419067468,-0.9691601594371952,-1.3408877236238006,-6.955652927075895,1.9792802992907064,tremor
339,7252567,2.318,-0.3790507045208337,-0.15742823336282077,-0.9695953370004672,-1.2799595697807848,-6.56331862811926,1.9665479192679753,tremor
340,7252572,2.323,-0.38000098021351186,-0.1568012321936455,-0.9699826020083034,-1.2201394436605222,-6.181345493681503,1.9552303853931507,tremor
341,7252576,2.327,-0.38091629071148675,-0.15623076324441124,-0.970323655914283,-1.161697854348818,-5.811301641017734,1.9454836705505971,tremor
342,7252581,2.332,-0.38179360805287976,-0.15571503565918327,-0.9706204552327736,-1.1048816089651587,-5.454546795025218,1.9374165464332411,tremor
343,7252586,2.337,-0.38263047707275794,-0.15525197595716875,-0.9708751828042077,-1.049912664307416,-5.11223778067719,1.9310927215206637,tremor
344,7252591,2.342,-0.383424991864989,-0.15483926018191596,-0.9710902174133113,-0.9969872978868694,-4.785335247430818,1.926533532396776,tremor
345,7252596,2.347,-0.3841757674869964,-0.1544743472143963,-0.9712681020351164,-0.9462755892209068,-4.474611403289595,1.9237211272255195,tremor
346,7252601,2.352,-0.38488190781238424,-0.15415451303380426,-0.9714115110584209,-0.8979211948705164,-4.180658540617322,1.9226020742904093,tremor
347,7252606,2.357,-0.385542970460969,-0.15387688568087315,-0.9715232169031639,-0.8520413963710468,-3.9038981495602236,1.9230913239591847,tremor
348,7252611,2.362,-0.38615892972044175,-0.1536384806448509,-0.9716060565008761,-0.8087273989167837,-3.644590437979821,1.9250764493836048,tremor
349,7252616,2.367,-0.3867301383213111,-0.15343623635920084,-0.9716628981404949,-0.768044859687303,-3.4028441077022547,1.928422089628814,tremor
350,7252620,2.371,-0.3872572888423221,-0.15326704945541247,-0.9716966091907174,-0.730034627105566,-3.178626272637677,1.9329745184178595,tremor
351,7252630,2.381,-0.38774137541410253,-0.15312780939209522,-0.9717100251910111,-0.6947136751876014,-2.9717724417244122,1.9385662618529462,tremor
352,7252655,2.406,-0.38818365626217666,-0.15301543205079257,-0.9717059207544059,-0.662076219477804,-2.781996526536498,1.945020688974248,tremor
353,7252660,2.411,-0.3885856174957331,-0.15292689187346006,-0.9716869826480735,-0.6320950017073959,-2.608900867693339,1.9521564996786456,tremor
354,7252665,2.416,-0.38894893841673983,-0.15285925211161608,-0.9716557853213135,-0.6047227285030178,-2.4519863021451807,1.9597920356823375,tremor
355,7252670,2.421,-0.38927545850747564,-0.15280969276525383,-0.9716147690513484,-0.5798936455587905,-2.310662310172272,1.9677493428047852,tremor
356,7252675,2.426,-0.38956714616315946,-0.15277553581082737,-0.9715662207937602,-0.5575252241268517,-2.184257284211227,1.9758579176921698,tremor
357,7252679,2.43,-0.3898260691739049,-0.15275426735083217,-0.9715122577688149,-0.5375199333232954,-2.0720289535138625,1.9839580789670432,tremor
358,7252684,2.435,-0.39005436692460155,-0.1527435563609669,-0.9714548137900436,-0.5197670711111891,-1.9731749834860248,1.9919039106630432,tremor
359,7252689,2.44,-0.3902542242674853,-0.15274126976316454,-0.9713956283428375,-0.5041446296375061,-1.8868437498867225,1.9995657339923953,tremor
360,7252694,2.445,-0.390427847024577,-0.1527454836131988,-0.9713362384404451,-0.49052117643972554,-1.8121452680358046,2.0068320720840775,tremor
361,7252699,2.45,-0.390577439090515,-0.1527544902599898,-0.9712779733129808,-0.4787577402850272,-1.7481622372173553,2.0136110814981194,tremor
362,7252703,2.454,-0.39070518112553043,-0.15276680141026655,-0.9712219520115283,-0.4687096968237714,-1.6939611414148026,2.0198314337922105,tremor
363,7252708,2.459,-0.3908132108487427,-0.15278114711669966,-0.9711690840246713,-0.4602286529133538,-1.6486033294105025,2.0254426398401493,tremor
364,7252713,2.464,-0.39090360495971954,-0.15279647079895187,-0.9711200730018054,-0.4531643284618783,-1.6111559796551747,2.0304148190174716,tremor
365,7252723,2.474,-0.3909783627288407,-0.1528119205031321,-0.9710754236527631,-0.44736643111840285,-1.5807028378134618,2.034737924905373,tremor
