sample,t_ms,t_s,ax,ay,az,gx,gy,gz,tremor
0,6288870,0.0,-0.24976226798491624,-0.5382267416811316,-0.8338554941858338,-1.854358653786452,-1.240369210159889,-0.1972786567574902,no_tremor
1,6288875,0.005,-0.24954349978235912,-0.5380688671960381,-0.8339662865660498,-2.0511658381435085,-1.1063623856071871,0.040505884042088484,no_tremor
2,6288885,0.015,-0.24926311646065896,-0.5378446934035601,-0.8341490528535062,-2.2333985907145224,-0.9718017196470327,0.26895430353371413,no_tremor
3,6288889,0.019,-0.24892943188939848,-0.5375456845175413,-0.8344276154655547,-2.398654007546455,-0.8372270762978807,0.4861115389575465,no_tremor
4,6288894,0.024,-0.24856586333847153,-0.5371749328787857,-0.8348175743547188,-2.5445294241326635,-0.7031992098163401,0.6900000401497816,no_tremor
5,6288899,0.029,-0.24820091337860212,-0.5367427166298863,-0.8353261284928909,-2.668644872746703,-0.5702979386439656,0.8786349482827529,no_tremor
6,6288904,0.034,-0.24786079450435372,-0.5362617702054326,-0.8359545455374887,-2.7686669136281448,-0.4391202806942162,1.050040495427899,no_tremor
7,6288909,0.039,-0.2475663723795469,-0.5357444894502073,-0.8367006559569773,-2.8423337288055235,-0.31027856601334297,1.2022675854579807,no_tremor
8,6288914,0.044,-0.24733286899571955,-0.5352018588305432,-0.8375604961342387,-2.887481348538809,-0.1843985421118464,1.3334124998600287,no_tremor
9,6288923,0.053,-0.2471707098532604,-0.5346433555491048,-0.8385291269721032,-2.902070861886679,-0.06211748563568366,1.4416366540300734,no_tremor
10,6288928,0.058,-0.2470865853369245,-0.5340772480606111,-0.8396009166772179,-2.8842164461938635,0.05591766914776905,1.5251873109106366,no_tremor
11,6288933,0.063,-0.2470843523229082,-0.533510974829787,-0.8407695460801391,-2.832214035978241,0.1690521791451348,1.5824191400255443,no_tremor
12,6288959,0.089,-0.24716569225323815,-0.5329514739410343,-0.8420278995661787,-2.7445704393060453,0.2766253173038562,1.61181649167825,no_tremor
13,6288973,0.103,-0.24733055458239744,-0.5324054285749595,-0.8433679273519319,-2.6200326982446156,0.37797217563656343,1.612016238725102,no_tremor
14,6288978,0.108,-0.24757744198607698,-0.5318794321185957,-0.8447805179960974,-2.4576174784217772,0.47242544974481376,1.58183102217849,no_tremor
15,6288983,0.113,-0.24790358924431802,-0.5313800883318933,-0.8462553957041213,-2.2566402606699385,0.5593172081206778,1.5202727222160446,no_tremor
16,6288988,0.118,-0.2483050751102209,-0.5309140626137641,-0.8477810457804426,-2.016744095350676,0.6379806497311727,1.4265759633500132,no_tremor
17,6288993,0.123,-0.24877689443548592,-0.5304880975102476,-0.8493446671112774,-1.7379276676276183,0.707751855163765,1.3002214518110002,no_tremor
18,6288998,0.128,-0.24931300860038627,-0.5301090022227384,-0.8509321492256549,-1.420572409996706,0.7679715399028025,1.1409589343248843,no_tremor
19,6289012,0.142,-0.24990638585681152,-0.5297836230145788,-0.8525280714547506,-1.0654683871111512,0.8179868224096197,0.9488295595085786,no_tremor
20,6289017,0.147,-0.25054903890617564,-0.5295187992735279,-0.8541157221305422,-0.6738386678138917,0.8571530242307193,0.7241874153904947,no_tremor
21,6289022,0.152,-0.25123206425409644,-0.5293213084807078,-0.8556771362630187,-0.24736189090902536,0.8848355239179888,0.467720009409795,no_tremor
22,6289027,0.157,-0.251945686108753,-0.5291978023148016,-0.8571931505695408,0.21180727484470124,0.9004116897563497,0.18046745170121803,no_tremor
23,6289031,0.161,-0.25267930646690673,-0.5291547354457228,-0.858643475061273,0.7010200794773251,0.9032729165480231,-0.1361599006735205,no_tremor
24,6289041,0.171,-0.25342156232393925,-0.5291982881372143,-0.8600067806215065,1.2171183533082097,0.8928267884921354,-0.48036558148297304,no_tremor
25,6289051,0.181,-0.2541603904965538,-0.5293342835049786,-0.8612608021541343,1.7564221842917476,0.8684993842506333,-0.8499531763894835,no_tremor
26,6289056,0.186,-0.254883100258566,-0.5295681001118842,-0.8623824569542737,2.3147209113491267,0.8297377325639718,-1.2423147452725283,no_tremor
27,6289082,0.212,-0.25557645379740734,-0.5299045804880507,-0.8633479779713812,2.8872677282633448,0.7760124178614516,-1.654421738918218,no_tremor
28,6289086,0.216,-0.25622675436154274,-0.5303479361176381,-0.8641330616089117,3.468778183716486,0.706820325728445,-2.0828186369178234,no_tremor
29,6289091,0.221,-0.256819941863186,-0.5309016494220189,-0.8647130296413852,4.053432850044466,0.621687508629236,-2.523619526004515,no_tremor
30,6289096,0.226,-0.2573416956136272,-0.5315683732834592,-0.8650630047355703,4.634884416052748,0.5201721437822822,-2.9725078289681863,no_tremor
31,6289101,0.231,-0.257777543793799,-0.5323498286904983,-0.865158098942883,5.206269437641303,0.40186754826629495,-3.424739383124096,no_tremor
32,6289106,0.236,-0.2581129791970384,-0.5332467011420633,-0.8649736143907344,5.760224953714028,0.2664052119569094,-3.8751490533803494,no_tremor
33,6289111,0.241,-0.25833358072199175,-0.5342585365170042,-0.8644852552472132,6.288910143461335,0.11345780707537613,-4.318161048113411,no_tremor
34,6289115,0.245,-0.25842514003934175,-0.5353836371936567,-0.8636693498713109,6.784033164473488,-0.05725786651325176,-4.747803086608332,no_tremor
35,6289120,0.25,-0.2583737928048696,-0.5366189592849286,-0.8625030818940362,7.236883269856477,-0.24597803965770237,-5.1577245447744895,no_tremor
36,6289125,0.255,-0.25816615374198093,-0.5379600119335948,-0.8609647288074401,7.638368257776145,-0.4528892737099855,-5.541218680875341,no_tremor
37,6289130,0.26,-0.25778945486808624,-0.5394007596859048,-0.8590339064712444,7.97905725979957,-0.6781259383912877,-5.8912490149540355,no_tremor
38,6289135,0.265,-0.2572316860902222,-0.540933529025802,-0.8566918177823707,8.249228825522428,-0.9217679045691983,-6.200479904646638,no_tremor
39,6289140,0.27,-0.25648173734522917,-0.54254892020418,-0.8539215035926618,8.43892421003028,-1.1838384910344828,-6.461311326373305,no_tremor
40,6289145,0.275,-0.25552954140787815,-0.5442357255354573,-0.8507080938056829,8.538005717341509,-1.4643027084733462,-6.665917834845169,no_tremor
41,6289150,0.28,-0.25436621643574714,-0.5459808553557892,-0.8470390564358524,8.536219897282676,-1.7630658485394948,-6.806291635893816,no_tremor
42,6289154,0.284,-0.25298420726163134,-0.5477692728426907,-0.8429044422738098,8.423265336175676,-2.079972470051831,-6.8742896679735574,no_tremor
43,6289159,0.289,-0.251377424382436,-0.5495839388847934,-0.838297122672849,8.188864724506658,-2.4148058377476187,-6.8616845461271945,no_tremor
44,6289164,0.294,-0.2495413795279684,-0.5514057681636796,-0.833213017854983,7.822840828458275,-2.76728787227565,-6.760219178748086,no_tremor
45,6289169,0.299,-0.24747331662453936,-0.5532135975684462,-0.8276513130347912,7.3151959375343685,-3.1370796732633766,-6.561664822428902,no_tremor
46,6289174,0.304,-0.24517233689813886,-0.5549841680092158,-0.8216146595782801,6.656194307835233,-3.523782679162596,-6.25788229402548,no_tremor
47,6289178,0.308,-0.24263951679227994,-0.5566921206295693,-0.815109358356793,5.8364470698697195,-3.9269405262239103,-5.840886012533224,no_tremor
48,6289204,0.334,-0.23987801730939748,-0.5583100083409722,-0.8081455224273113,4.846999020986945,-4.346041662705043,-5.3029104974987655,no_tremor
49,6289213,0.343,-0.23689318332617756,-0.5598083235155971,-0.800737216175534,3.6794166755509217,-4.780522762718573,-4.6364789062987395,no_tremor
50,6289218,0.348,-0.23369263138825816,-0.561155542578004,-0.7929025681022724,2.32587690114082,-5.229772967640676,-3.8344731500372036,no_tremor
51,6289228,0.358,-0.2302863244654897,-0.5623181881308875,-0.7846638545214637,0.7792554268930058,-5.693138963094909,-2.8902050870851683,no_tremor
52,6289233,0.363,-0.2266866321514711,-0.5632609091350138,-0.7760475515717288,-0.966785528697111,-6.169930877496035,-1.7974882545093918,no_tremor
53,6289242,0.372,-0.22290837482295708,-0.5639465795378057,-0.7670843531220678,-2.917711297678488,-6.6594289650164455,-0.5507095611283018,no_tremor
54,6289247,0.377,-0.21896885033471963,-0.5643364156082291,-0.7578091523730047,-5.078031286226489,-7.1608910127463545,0.8550996677100358,no_tremor
55,6289252,0.382,-0.21488784191045632,-0.5643901120877118,-0.7482609852138349,-7.4512188196124765,-7.673560389980252,2.424193933310922,no_tremor
56,6289257,0.387,-0.2106876059975278,-0.5640659971084712,-0.7384829336923009,-10.039635159962899,-8.196674637556235,4.160045758925137,no_tremor
57,6289262,0.392,-0.20639283898104197,-0.5633212056632318,-0.728521988284597,-12.84445855300677,-8.729474476443388,6.065280518752891,no_tremor
58,6289267,0.397,-0.20203062180067002,-0.562111871235815,-0.7184288680226701,-15.865619154440562,-9.271213096109134,8.141614591173758,no_tremor
59,6289272,0.402,-0.19763034168209323,-0.5603933350228397,-0.7082577979454319,-19.101740668357333,-9.82116556363812,10.389797526137299,no_tremor
60,6289276,0.406,-0.1932235903851566,-0.5581203719954471,-0.6980662437945006,-22.550089497046535,-10.378638173644509,12.80955890635542,no_tremor
61,6289281,0.411,-0.18884403858393117,-0.5552474328693893,-0.6879146043769808,-26.20653215192179,-10.942977536155995,15.399560562112253,no_tremor
62,6289286,0.416,-0.1845272862312921,-0.5517289008750297,-0.6778658625702568,-30.065501609286528,-11.513579173702434,18.157354770199937,no_tremor
63,6289291,0.421,-0.18031068902352373,-0.5475193620489716,-0.6679851965482589,-34.1199732127315,-12.089895368585367,21.079349028170586,no_tremor
64,6289301,0.431,-0.17623316136978048,-0.5425738876096038,-0.6583395534652106,-38.36145062633906,-12.671441966391757,24.16077794434986,no_tremor
65,6289350,0.48,-0.17233495658708925,-0.5368483268332873,-0.6489971885388929,-42.77996222925869,-13.25780380345342,27.395682720055717,no_tremor
66,6289355,0.485,-0.1686574253812887,-0.5302996087185757,-0.6400271732205589,-47.36406821489142,-13.848638388426297,30.776898623490716,no_tremor
67,6289370,0.5,-0.16524275402846142,-0.5228860506120057,-0.6314988768947386,-52.100878526044184,-14.443677441221281,34.296050770548135,no_tremor
68,6289374,0.504,-0.16213368402178185,-0.51456767186606,-0.6234814272694675,-56.976081635821565,-15.042725889692486,37.94355844664893,no_tremor
69,6289379,0.509,-0.15937321527240964,-0.5053065105028602,-0.6160431552373055,-61.97398408401285,-15.64565795497015,41.708648134239546,no_tremor
70,6289384,0.514,-0.1570042952310542,-0.495066940765233,-0.6092510304651717,-67.07756060077642,-16.252410018545476,45.57937535395439,no_tremor
71,6289389,0.519,-0.1550694965195807,-0.48381598935525777,-0.6031700942880504,-72.26851458607487,-16.862970048856692,49.54265537881316,no_tremor
72,6289394,0.524,-0.1536106858294134,-0.4715236480981792,-0.5978628966408859,-77.52734865669089,-17.477363462982133,53.58430283397159,no_tremor
73,6289399,0.529,-0.15266868696110722,-0.45816318073621665,-0.5933889437759888,-82.83344491796773,-18.095635405205147,57.68908014472315,no_tremor
74,6289404,0.534,-0.15228294095453102,-0.4437114215606595,-0.5898041633893755,-88.16515456207739,-18.71782953706307,61.84075473940092,no_tremor
75,6289413,0.543,-0.15249116629824186,-0.42814906363811783,-0.5871603935207479,-93.49989633634567,-19.343963552142892,66.02216484907544,no_tremor
76,6289418,0.548,-0.15332902221556685,-0.41146093448168275,-0.5855049011930977,-98.81426336175312,-19.97400175205097,70.21529367090527,no_tremor
77,6289450,0.58,-0.1548297780092057,-0.39363625715930695,-0.5848799362111348,-104.08413771289484,-20.607825145974918,74.40135157705032,no_tremor
78,6289460,0.59,-0.1570239914120305,-0.37466889500978395,-0.5853223248415194,-109.28481210039747,-21.245199661588515,78.56086596014326,no_tremor
79,6289465,0.595,-0.15993919884621333,-0.35455757832386053,-0.5868631072723588,-114.39111793449534,-21.88574317160527,82.67377821856682,no_tremor
80,6289470,0.6,-0.16359962044189505,-0.3333061114992746,-0.5895272218461414,-119.37755900611538,-22.528892135963,86.719547312767,no_tremor
81,6289475,0.605,-0.16802588261195567,-0.3109235592503713,-0.5933332381521241,-124.21845000534782,-23.17386872533489,90.67725927556846,no_tremor
82,6289480,0.61,-0.17323476091643972,-0.28742441042984085,-0.5982931402186751,-128.88805910014221,-23.819649327722704,94.52574203133976,no_tremor
83,6289484,0.614,-0.17923894587020825,-0.2628287179207865,-0.604412160305778,-133.3607538062829,-24.464935353784746,98.24368485909505,no_tremor
84,6289489,0.619,-0.18604683424191149,-0.2371622129179648,-0.6116886631806752,-137.6111493812235,-25.108127255868197,101.80976181305792,no_tremor
85,6289499,0.629,-0.19366234825554543,-0.2104563917735074,-0.6201140802675721,-141.61425896358503,-25.74730266459402,105.20275838696814,no_tremor
86,6289509,0.639,-0.2020847849349636,-0.18274857346366358,-0.6296728926883085,-145.345644655882,-26.380199526145578,108.40170067606998,no_tremor
87,6289514,0.644,-0.21130869762717963,-0.1540819256598378,-0.640342661942992,-148.7815687118617,-27.004205090130643,111.38598625631116,no_tremor
88,6289518,0.648,-0.22132381150538022,-0.1245054573711133,-0.6520941068050876,-151.8991439455834,-27.616351544017746,114.13551596858414,no_tremor
89,6289523,0.653,-0.2321149745917725,-0.09407397617112692,-0.6648912249106556,-154.6764824320496,-28.213319004820466,116.6308257710288,no_tremor
90,6289533,0.663,-0.24366214555658286,-0.06284800813238357,-0.6786914574877745,-157.09284152302436,-28.791446453408536,118.85321780453843,no_tremor
91,6289538,0.668,-0.2559404192419642,-0.03089367877103656,-0.6934458956739448,-159.12876615953542,-29.346751028093397,120.78488980156214,no_tremor
92,6289543,0.673,-0.26892009052424826,0.00171744643779239,-0.7090995268760673,-160.76622642754492,-29.874955881316914,122.40906195210006,no_tremor
93,6289547,0.677,-0.2825667567589272,0.034908563071971814,-0.7255915196089929,-161.98874927904018,-30.371526547339712,123.71010032264641,no_tremor
94,6289586,0.716,-0.29684145864348466,0.06859787096497358,-0.742855545178377,-162.78154332958633,-30.83171547680007,124.67363590482286,no_tremor
95,6289590,0.72,-0.3117008588818675,0.10269885973553483,-0.7608201344368674,-163.1316156452631,-31.250614085708875,125.2866783520028,no_tremor
96,6289595,0.725,-0.32709745755418923,0.1371206361834743,-0.779409067648384,-163.0278794472287,-31.623211376334318,125.53772344765653,no_tremor
97,6289600,0.73,-0.3429798426191155,0.17176829247460315,-0.7985417952811754,-162.46125169302758,-31.94445795268325,125.41685334396017,no_tremor
98,6289605,0.735,-0.3592929735428059,0.20654331345998866,-0.8181338873658917,-161.42473954168145,-32.20933409007195,124.9158286172228,no_tremor
99,6289610,0.74,-0.37597849567868225,0.24134402096277024,-0.8380975089319483,-159.9135147735071,-32.41292041121523,124.02817120692391,no_tremor
100,6289630,0.76,-0.3929750827139587,0.2760660524070002,-0.858341918975251,-157.92497531381085,-32.55046964248946,122.7492373342966,no_tremor
101,6289634,0.764,-0.4102188042374148,0.3106028707288847,-0.8787739903924401,-155.4587931022556,-32.617477861232786,121.0762795334777,no_tremor
102,6289639,0.769,-0.4276435152564844,0.3448463020821121,-0.8992987483110622,-152.51694765815392,-32.60975361146858,119.00849697723517,no_tremor
103,6289644,0.774,-0.4451812642942359,0.3786870974232165,-0.9198199242171149,-149.1037448167579,-32.52348328914591,116.54707334815527,no_tremor
104,6289649,0.779,-0.4627627165205998,0.41201551364328287,-0.9402405231965553,-145.22582025137189,-32.35529130044118,113.69520160234116,no_tremor
105,6289654,0.784,-0.48031758820075243,0.44472190949353874,-0.9604634014363969,-140.89212754784137,-32.10229367908131,110.4580950981958,no_tremor
106,6289659,0.789,-0.4977750885529623,0.47669735112027384,-0.9803918508551904,-136.11391075870503,-31.76214409500223,106.84298471488043,no_tremor
107,6289669,0.799,-0.5150643648757444,0.5078342215676297,-0.9999301873449788,-130.90466153249523,-31.333071475224294,102.85910176005811,no_tremor
108,6289696,0.826,-0.532114946517718,0.5380268281299689,-1.0189843386122155,-125.28006108907897,-30.813908767203735,98.51764666154172,no_tremor
109,6289716,0.846,-0.5488571829352505,0.5671720009741624,-1.0374624270269206,-119.25790749290447,-30.204112682521043,93.83174364553962,no_tremor
110,6289720,0.85,-0.5652226707707109,0.5951696760862536,-1.0552753422870587,-112.8580288551241,-29.503774538545944,88.81638180980295,no_tremor
111,6289730,0.86,-0.5811446646990811,0.6219234554435488,-1.0723372981869332,-106.1021832580877,-28.713622542265227,83.48834318150794,no_tremor
112,6289735,0.865,-0.5965584668576169,0.6473411374778997,-1.0885663674751405,-99.0139463263514,-27.835016020336166,77.86611849034698,no_tremor
113,6289744,0.874,-0.6114017900610124,0.671335211414549,-1.1038849887913842,-91.61858746173854,-26.869932199224312,71.96981148502968,no_tremor
114,6289749,0.879,-0.6256150906907035,0.6938233098962194,-1.118220439993528,-83.94293582281719,-25.82094619926193,65.82103268723696,no_tremor
115,6289754,0.884,-0.6391418680444904,0.7147286153420399,-1.1315052727703063,-76.01523717230025,-24.69120494528942,59.44278352397163,no_tremor
116,6289759,0.889,-0.6519289279395785,0.73398021665228,-1.1436777041988453,-67.86500274719393,-23.484395722781553,52.85933181402707,no_tremor
117,6289769,0.899,-0.6639266093934031,0.7515134140781063,-1.1546819617719357,-59.5228513303715,-22.20471012297593,46.09607960859341,no_tremor
118,6289773,0.903,-0.6750889742036218,0.7672699712753727,-1.1644685793258671,-51.020345720736856,-20.85680412204065,39.17942440092368,no_tremor
119,6289778,0.908,-0.6853739601771226,0.7811983147123708,-1.1729946422006692,-42.38982481173185,-19.44575502625775,32.13661472791169,no_tremor
120,6289783,0.913,-0.6947434996015055,0.7932536816740504,-1.1802239808314594,-33.6642324930629,-17.97701598723719,24.99560119065344,no_tremor
121,6289819,0.949,-0.7031636053063659,0.8033982190782535,-1.1861273127862961,-24.87694458940811,-16.45636875076423,17.784883925212387,no_tremor
122,6289834,0.964,-0.7106044273236435,0.8116010361759667,-1.1906823340261286,-16.061595043466834,-14.88987525662854,10.533357559564212,no_tremor
123,6289838,0.968,-0.7170402837135915,0.8178382149262592,-1.1938737608621395,-7.251902528017118,-13.28382866493332,3.2701546885693005,no_tremor
124,6289848,0.978,-0.7224496695433625,0.822092782386759,-1.195693324714629,1.5185013913864338,-11.644704356666184,-3.975511133341518,no_tremor
125,6289853,0.983,-0.7268152482468274,0.824354649811747,-1.1961397223164933,10.216241540465372,-9.979111445014311,-11.174501955049836,no_tremor
126,6289863,0.993,-0.730123829629803,0.8246205232907329,-1.195218524432386,18.808365027426476,-8.293745329923565,-18.297910726006272,no_tremor
127,6289867,0.997,-0.7323663386167268,0.8228937907049062,-1.192942046468179,27.26250307795591,-6.595341815609845,-25.317214621558595,no_tremor
128,6289872,1.002,-0.7335377784890044,0.8191843895559071,-1.1893291845205192,35.54702831238783,-4.89063327547964,-32.20442579329399,no_tremor
129,6289877,1.007,-0.7336371918771349,0.8135086598603676,-1.184405220466842,43.63120709468127,-3.186307286396019,-38.93223902181147,no_tremor
130,6289882,1.012,-0.7326676221738035,0.8058891858292611,-1.178201599631938,51.48534667540206,-1.488968068696213,-45.47417580244906,no_tremor
131,6289891,1.021,-0.7306360773652909,0.796354629483825,-1.1707556844037188,59.08093690116396,0.1948990298653431,-51.80472441752384,no_tremor
132,6289896,1.026,-0.7275534975601119,0.7849395587177992,-1.1621104869271277,66.39078627112183,1.8589598664470175,-57.899475539823285,no_tremor
133,6289905,1.035,-0.7234347267462033,0.7716842716153122,-1.1523143836988585,73.38915209043515,3.497060599046844,-63.73525287231185,no_tremor
134,6289941,1.071,-0.7182984885440433,0.7566346180904294,-1.1414208145304092,80.0518644069403,5.1032535614678975,-69.29023826335569,no_tremor
135,6289946,1.076,-0.7121673649517855,0.7398418191467041,-1.1294879679536385,86.35644333007076,6.671819980578216,-74.54409065504319,no_tremor
136,6289960,1.09,-0.7050677763114821,0.7213622832910985,-1.1165784547217454,92.28220923551231,8.197289635045284,-79.4780581394794,no_tremor
137,6289975,1.105,-0.6970299599843831,0.7012574189167433,-1.1027589706223688,97.81038527293956,9.674457594568727,-84.07508233155649,no_tremor
138,6289980,1.11,-0.6880879445432055,0.6795934408387361,-1.088099949385979,102.92419152835181,11.0983982341983,-88.319894227575,no_tremor
139,6289984,1.114,-0.6782795157143523,0.6564411686647901,-1.0726752060640308,107.60893014573146,12.464476787011879,-92.19910070637421,no_tremor
140,6289999,1.129,-0.667646169874805,0.631875814330943,-1.0565615708900051,111.85206067699603,13.768358766088708,-95.7012608348757,no_tremor
141,6290004,1.134,-0.6562330506518079,0.6059767559397119,-1.0398385133412387,115.64326489788392,15.006017639219735,-98.8169511537775,no_tremor
142,6290009,1.139,-0.6440888640910242,0.5788272950017724,-1.0225877559040946,118.97450029811918,16.173741170092992,-101.53881913446796,no_tremor
143,6290018,1.148,-0.6312657679364533,0.5505143942953632,-1.0048928769202152,121.8400414279169,17.268136847370684,-103.86162401180835,no_tremor
144,6290066,1.196,-0.6178192307833987,0.5211283938127222,-0.9868389018662084,124.23650826248728,18.286136812104463,-105.78226421072917,no_tremor
145,6290071,1.201,-0.6038078572092292,0.49076270265129085,-0.9685118824994519,126.16288073804185,19.225002669805498,-107.29979060509636,no_tremor
146,6290075,1.205,-0.589293175454691,0.45951346521098246,-0.9499984634892714,127.62049863187067,20.08233053806874,-108.41540489136571,no_tremor
147,6290080,1.21,-0.5743393848369337,0.427479200645537,-0.9313854364388422,128.6130460274901,20.856056629379154,-109.13244244964473,no_tremor
148,6290084,1.214,-0.5590130608455587,0.394760415152878,-0.9127592815795126,129.14651973981088,21.54446359497396,-109.45633921662416,no_tremor
149,6290089,1.219,-0.5433828168142407,0.36145918736250665,-0.8942056978812782,129.22918127427937,22.146187756436547,-109.39458230617274,no_tremor
150,6290104,1.234,-0.5275189221636397,0.3276787277963688,-0.875809122872782,128.87149214377612,22.660227227930122,-108.95664436636025,no_tremor
151,6290109,1.239,-0.5114928784539852,0.2935229141604127,-0.8576522441041281,128.08603264668335,23.085950787160613,-108.15390193295973,no_tremor
152,6290123,1.253,-0.4953769558369426,0.25909580507418006,-0.8398155049118228,126.88740449471392,23.423107195619227,-106.99953830944729,no_tremor
153,6290149,1.279,-0.4792436939179105,0.2245011357515431,-0.8223766079419825,125.29211794813298,23.671834512890108,-105.50843176214015,no_tremor
154,6290196,1.326,-0.46316537248801,0.18984180006749618,-0.8054100207269925,123.31846435754798,23.83266881385822,-103.6970300648536,no_tremor
155,6290200,1.33,-0.4472134590038059,0.15521932431266527,-0.7889864884436418,120.9863752248273,23.906551619671216,-101.58321265796151,no_tremor
156,6290210,1.34,-0.4314580409924766,0.12073333864816971,-0.7731725597302085,118.31726908203453,23.89483530846951,-99.1861418907021,no_tremor
157,6290219,1.349,-0.4159672526114899,0.08648105272666842,-0.7580301320090224,115.33388764319635,23.799285787441214,-96.52610497696352,no_tremor
158,6290224,1.354,-0.4008067052705035,0.05255674208552801,-0.7436160230703679,112.06012280585406,23.622081778622384,-93.62434840580778,no_tremor
159,6290233,1.363,-0.38603893247112725,0.01905125176111739,-0.7299815756970479,108.52083616976454,23.365810182008044,-90.50290661421963,no_tremor
160,6290243,1.373,-0.37172285885977924,-0.013948476814461208,-0.7171723018717412,104.74167280366242,23.033457114413252,-87.18442676212491,no_tremor
161,6290248,1.378,-0.3579133029880207,-0.04635985011388092,-0.7052275726584424,100.7488710308763,22.62839436951459,-83.69199145658962,no_tremor
162,6290252,1.382,-0.3446605225083008,-0.07810503312176247,-0.6941803592284262,96.56907002337644,22.15436119626185,-80.04894125662393,no_tremor
163,6290257,1.387,-0.33200980956491616,-0.10911132202943839,-0.684057029743356,92.22911699611619,21.61544144193674,-76.27869875350065,no_tremor
164,6290262,1.392,-0.32000114302111043,-0.1393114754767593,-0.6748772059394279,87.75587578581192,21.016036243652717,-72.40459596622384,no_tremor
165,6290281,1.411,-0.3086689029342197,-0.16864400145772734,-0.6666536823009196,83.17603858628578,20.36083257124718,-68.44970672206736,no_tremor
166,6290319,1.449,-0.29804165138335,-0.19705339762180746,-0.6593924096929533,78.51594259722427,19.654768023881488,-64.4366856115569,no_tremor
167,6290324,1.454,-0.2881419823941998,-0.2244903432690081,-0.6530925442674886,73.80139331682923,18.902992363956372,-60.38761501351826,no_tremor
168,6290329,1.459,-0.2789864423245743,-0.2509118418683697,-0.6477465613983142,69.0574961526141,18.11082633557533,-56.323861568837856,no_tremor
169,6290334,1.464,-0.27058552071974723,-0.2762813134540646,-0.6433404333868695,64.30849791746128,17.283718359601103,-52.26594333143533,no_tremor
170,6290339,1.469,-0.26294371037707537,-0.30056863679183754,-0.6398538687570746,59.57763961497682,16.42719972409732,-48.2334086433701,no_tremor
171,6290344,1.474,-0.25605963421960304,-0.3237501417596871,-0.6372606101492221,54.887021717727485,15.546838901412329,-44.244727582619674,no_tremor
172,6290349,1.479,-0.2499262355870165,-0.34580855293076307,-0.6355287871287519,50.25748293183333,14.648195625281106,-40.31719663341772,no_tremor
173,6290354,1.484,-0.24453102770469826,-0.36673288585971486,-0.6346213196278245,45.70849324062682,13.736775354143381,-36.46685703962914,no_tremor
174,6290358,1.488,-0.23985639737259234,-0.38651829803805343,-0.634496367215242,41.258061835604174,12.817984728498507,-32.70842712472402,no_tremor
175,6290394,1.524,-0.23587995730794412,-0.40516589688856613,-0.6351078189251801,36.92266037510224,11.89708859837003,-29.05524869866008,no_tremor
176,6290398,1.528,-0.2325749410672066,-0.42268250750906244,-0.6364058179540111,32.717161857536766,10.979169152468122,-25.519247522946944,no_tremor
177,6290408,1.538,-0.22991063406257142,-0.4390804031544163,-0.6383373151519625,28.654795251477168,10.069087627447797,-22.110907669550965,no_tremor
178,6290438,1.568,-0.22785283389390612,-0.4543770016727173,-0.64084664489747,24.747115882465575,9.171449019273307,-18.839259484827252,no_tremor
179,6290443,1.573,-0.22636433306112883,-0.468594531300385,-0.6438761166609281,21.003991431083644,8.290570163888747,-15.71188075389289,no_tremor
180,6290448,1.578,-0.22540541712094947,-0.4817596693873118,-0.6473666153620382,17.433603247019686,7.4304515031711285,-12.734910552034474,no_tremor
181,6290453,1.583,-0.2249343715035431,-0.4939031577795465,-0.6512582035255671,14.042462531850111,6.594752802324572,-9.913075166794389,no_tremor
182,6290472,1.602,-0.22490799048822047,-0.5050593987401231,-0.6554907182628273,10.83544079371266,5.786773031545392,-7.249725377880318,no_tremor
183,6290477,1.607,-0.22528208221546467,-0.515266035433216,-0.6600043562538698,7.815813836867858,5.009434564217456,-4.746884294798249,no_tremor
184,6290481,1.611,-0.22601196404142918,-0.5245635211177114,-0.6647402401678421,4.985318424230405,4.265271776218146,-2.405304877095847,no_tremor
185,6290491,1.621,-0.22705294298303413,-0.5329946812759502,-0.669640960321708,2.344220643537218,3.556424059777976,-0.2245362004175046,no_tremor
186,6290495,1.625,-0.2283607764369605,-0.5406042729290191,-0.6746510858254947,-0.10860508259512848,2.8846331958405034,1.7970025170147568,no_tremor
187,6290510,1.64,-0.22989210877862506,-0.5474385453563513,-0.6797176399769234,-2.3755874768910026,2.2512449656584033,3.6619411484049356,no_tremor
188,6290515,1.645,-0.23160487985944436,-0.5535448063463775,-0.684790535227439,-4.460361571817572,1.6572148289209951,5.373872195750472,no_tremor
189,6290520,1.65,-0.23345870182763329,-0.5589709979632478,-0.6898229636231248,-6.367664799244024,1.1031174543373365,6.937259681957424,no_tremor
190,6290525,1.655,-0.23541520110700953,-0.5637652856314689,-0.694771739209085,-8.10322728285309,0.589159859799804,8.357344445947666,no_tremor
191,6290530,1.66,-0.2374383227871464,-0.5679756641251291,-0.6995975894609632,-9.673657636354088,0.11519790078458286,9.64004687735066,no_tremor
192,6290534,1.664,-0.23949459511049345,-0.5716495838085414,-0.704265393364361,-11.08632558372714,-0.3192441670135034,10.791868110237138,no_tremor
193,6290564,1.694,-0.24155335218649315,-0.5748336002148423,-0.7087443642996434,-12.349242717765105,-0.714951336280128,11.819790674700121,no_tremor
194,6290569,1.699,-0.24358691351374553,-0.5775730497696876,-0.7130081764096006,-13.470942700542729,-1.0729930064566295,12.731179581412116,no_tremor
195,6290574,1.704,-0.2455707193407415,-0.5799117541676649,-0.7170350336423355,-14.460362183997152,-1.39469596571856,13.533684786657458,no_tremor
196,6290584,1.714,-0.2474834213352858,-0.5818917555868292,-0.7208076811908498,-15.326723689242911,-1.681615526740217,14.235145952311777,no_tremor
197,6290589,1.719,-0.24930692845818714,-0.5835530845796741,-0.7243133596136976,-16.07942162960136,-1.9355051617721615,14.843500375982574,no_tremor
198,6290594,1.724,-0.2510264083516015,-0.5849335621074612,-0.7275437025281398,-16.727912597762526,-2.1582849950254266,15.366694921089492,no_tremor
199,6290598,1.728,-0.25263024496748404,-0.5860686367931841,-0.7304945794171116,-17.28161096637867,-2.3520095192199197,15.8126027255593,no_tremor
200,6290603,1.733,-0.2541099535904023,-0.5869912580627491,-0.7331658857753321,-17.749790776376365,-2.5188349090849433,16.188945411654707,no_tremor
201,6290608,1.738,-0.25546005486181655,-0.5877317854306758,-0.735561283526646,-18.141494808717486,-2.660986309239844,16.503221458860267,no_tremor
202,6290618,1.748,-0.2566779098942732,-0.5883179337712311,-0.7376878953624029,-18.465451652263948,-2.7807254788954325,16.76264133714451,no_tremor
203,6290623,1.753,-0.2577635190729987,-0.5887747540023202,-0.7395559573686683,-18.73000149142764,-2.880319182117164,16.97406992945951,no_tremor
204,6290628,1.758,-0.2587192876750642,-0.5891246481999813,-0.7411784350195284,-18.94303124123684,-2.9620087200985137,17.14397670020879,no_tremor
205,6290638,1.768,-0.259549761986818,-0.5893874177567137,-0.7425706083081296,-19.11191955391372,-3.027981010210453,17.278393990954132,no_tremor
