sample,t_ms,t_s,ax,ay,az,gx,gy,gz,tremor
0,6563247,0.0,-0.45542965803192287,-0.3653609923502601,-0.8281377284302275,4.290368525940116,-21.069595734426365,-0.4278410120822281,tremor
1,6563282,0.035,-0.45823119327569195,-0.3659079209730531,-0.8266604800657658,2.9289993346628482,-12.92123284904669,-0.6292136740082287,tremor
2,6563287,0.04,-0.46205535708474627,-0.36662347548296353,-0.8245660397840527,1.5728040687679599,-4.967685464415579,-0.7790683322534635,tremor
3,6563297,0.05,-0.46695993368087985,-0.36749571397909553,-0.8217729362542542,0.2242383668446793,2.76368893625112,-0.8738886940940975,tremor
4,6563301,0.054,-0.47280900454959396,-0.3684735913460819,-0.8183049351699414,-1.1143922887663207,10.247045868400603,-0.9103681441225752,tremor
5,6563306,0.059,-0.47937076540207213,-0.3694900928401213,-0.8142490815074922,-2.4409481634613575,17.458229145859224,-0.8854382383277167,tremor
6,6563311,0.064,-0.4864039297757494,-0.3704803349772167,-0.8097118435992985,-3.7534703393361655,24.37492735838992,-0.796295887094711,tremor
7,6563325,0.078,-0.4937015770033029,-0.3713896633699068,-0.8047935350841225,-5.050195292788465,30.976809778422748,-0.6404289527517306,tremor
8,6563330,0.083,-0.5011030144774345,-0.37217499388332653,-0.7995787243597664,-6.329568972651244,37.24564003213878,-0.41563998040079325,tremor
9,6563335,0.088,-0.508489774566477,-0.372803156129308,-0.7941356112655594,-7.590260324306396,43.16536599913072,-0.120067776648722,tremor
10,6563340,0.093,-0.5157765341639946,-0.3732485179010496,-0.7885189721294542,-8.831174155601671,48.72218462813423,0.24779344656103952,tremor
11,6563350,0.103,-0.5229020838543826,-0.3734908670571574,-0.7827737954926577,-10.051463193122082,53.904580712498955,0.6890776328600953,tremor
12,6563354,0.107,-0.5298220790477806,-0.3735138140391597,-0.776938442292761,-11.250539138589458,58.70333916984967,1.2045333907389146,tremor
13,6563359,0.112,-0.5365037642270523,-0.3733036842958681,-0.7710470294472964,-12.428082511097829,63.11153100978821,1.7945136526285854,tremor
14,6563364,0.117,-0.5429223306408281,-0.37284878647700354,-0.7651310860240593,-13.584051057476765,67.12447394160988,2.4589686246974987,tremor
15,6563369,0.122,-0.5490584774787245,-0.3721389425000287,-0.7592206331697489,-14.718686534177781,70.73966945150448,3.1974420896886695,tremor
16,6563396,0.149,-0.5548968092832184,-0.3711651902063545,-0.7533448410993043,-15.832519708915445,73.95671912370531,4.0090710335016135,tremor
17,6563411,0.164,-0.5604247968784779,-0.36991959545603176,-0.7475323875446497,-16.92637349192256,76.77722391601142,4.892588472342563,tremor
18,6563416,0.169,-0.5656321130998923,-0.36839513140830543,-0.7418116096434294,-18.001364171659784,79.2046708966063,5.846329277273386,tremor
19,6563435,0.188,-0.570510218046436,-0.36658559768814175,-0.7362105142762886,-19.058900779627315,81.24431242639784,6.868238744743173,tremor
20,6563469,0.222,-0.5750521126474091,-0.36448556222899875,-0.7307566919181122,-20.100682623896873,82.90304276081811,7.955883656104672,tremor
21,6563484,0.237,-0.5792522081273028,-0.36209031512660605,-0.7254771652565697,-21.128694993514813,84.18927644495737,9.106465603351426,tremor
22,6563494,0.247,-0.5831062766270892,-0.3593958279303368,-0.720398194698496,-22.14520293236489,85.11283164955694,10.31683641862547,tremor
23,6563522,0.275,-0.5866114582927124,-0.3563987142495453,-0.715545057071535,-23.152742810131148,85.68481980539163,11.583515615105542,tremor
24,6563532,0.285,-0.5897663053454665,-0.3530961889540208,-0.7109418102158384,-24.15411120575524,85.91754081528121,12.902709811769178,tremor
25,6563536,0.289,-0.5925708461608908,-0.34948602404226875,-0.706611053867634,-25.152350423541733,85.82438127850737,14.270334158924026,tremor
26,6563541,0.294,-0.5950266538379083,-0.3455664997657463,-0.7025736956089984,-26.150729854717355,85.41971211694141,15.682035789598684,tremor
27,6563546,0.299,-0.5971369052723025,-0.3413363500481908,-0.6988487292721101,-27.1527224251764,84.71878202638234,17.13321928537722,tremor
28,6563551,0.304,-0.5989064189813212,-0.33679470173630527,-0.6954530318314375,-28.161975534303764,83.73760415288949,18.619074070060954,tremor
29,6563556,0.309,-0.6003416630448729,-0.3319410077879126,-0.6924011834370829,-29.18227615683387,82.49283494702041,20.134603545955155,tremor
30,6563575,0.328,-0.6014507284430987,-0.32677497512687953,-0.6897053138559887,-30.217510112211716,81.00164595446499,21.674655678701473,tremor
31,6563585,0.338,-0.602243267528952,-0.32129648853350695,-0.6873749772394055,-31.2716158764905,79.28159114425122,23.23395462613025,tremor
32,6563599,0.352,-0.6027304019578487,-0.31550553255141556,-0.6854170558821341,-32.34853369537489,77.35047404613209,24.807132906884735,tremor
33,6563614,0.367,-0.6029246084782324,-0.30940211392731576,-0.6838356925569696,-33.45215111902104,75.226220194698,26.388763536637278,tremor
34,6563619,0.372,-0.6028395938181534,-0.30298618749845474,-0.6826322501927714,-34.58624637230412,72.9267608868989,27.973391545990005,tremor
35,6563650,0.403,-0.6024901708455863,-0.29625758863807994,-0.6818052972197032,-35.754431146962794,70.46993389500878,29.55556434218061,tremor
36,6563655,0.408,-0.6018921469760456,-0.2892159753066515,-0.6813506168980842,-36.960094417394785,67.87340555822233,31.129860471192327,tremor
37,6563660,0.413,-0.6010622327248033,-0.28186078241323387,-0.6812612393504095,-38.2063487346307,65.1546167933574,32.690916451769574,tremor
38,6563665,0.418,-0.6000179740746998,-0.27419119059172037,-0.6815274956824321,-39.495980170840745,62.33075332869292,34.23345147163986,tremor
39,6563669,0.422,-0.5987777078085067,-0.266206110708632,-0.6821370942960694,-40.831402718207165,59.41873821992498,35.75228985761371,tremor
40,6563674,0.427,-0.5973605347990286,-0.2579041845387487,-0.6830752200777018,-42.214617547583536,56.43524275178932,37.24238135727197,tremor
41,6563679,0.432,-0.5957863028289562,-0.24928380117243534,-0.6843246574796527,-43.64717715877658,53.396710368692894,38.698819393684445,tremor
42,6563684,0.437,-0.5940755880022799,-0.24034312794258933,-0.685865938556762,-45.130154150377074,50.319387411306494,40.11685755877655,tremor
43,6563694,0.447,-0.592249662322263,-0.23108015404861915,-0.6876775167714079,-46.66411413132669,47.21935416931245,41.49192467628436,tremor
44,6563699,0.452,-0.5903304346633182,-0.22149274465823443,-0.6897359668641779,-48.2490921994198,44.11255005203515,42.81963878117627,tremor
45,6563704,0.457,-0.5883403532903871,-0.2115787031108495,-0.6920162103537162,-49.884572421620184,41.014787484505355,44.09582033327446,tremor
46,6563723,0.476,-0.5863022603916723,-0.20133583892779247,-0.6944917653493842,-51.56946985893414,37.94175040753059,45.31650492370262,tremor
47,6563728,0.481,-0.584239192771347,-0.190762039622534,-0.6971350184172191,-53.30211487114576,34.908974894634696,46.47795565814667,tremor
48,6563733,0.486,-0.5821741276360571,-0.17985534473697878,-0.6999175153159827,-55.08023969518776,31.93181120887543,47.57667531705314,tremor
49,6563743,0.496,-0.580129677776853,-0.16861402102647638,-0.7028102665865179,-56.90096759230775,29.02536837497876,48.60941830166345,tremor
50,6563775,0.528,-0.5781277457200029,-0.15703663820018016,-0.7057840632807381,-58.760805174554996,26.204443834145973,49.5732022815308,tremor
51,6563780,0.533,-0.5761891509055822,-0.1451221450405229,-0.7088097975802696,-60.65563880569828,23.483441816288074,50.46531937538858,tremor
52,6563789,0.542,-0.5743332470072973,-0.13286994603517174,-0.7118587827069901,-62.580736155674145,20.876284525469085,51.28334663714587,tremor
53,6563794,0.547,-0.5725775476127198,-0.12027997881270766,-0.71490306642208,-64.53075399479843,18.396319935867517,52.02515559344157,tremor
54,6563799,0.552,-0.570937377452419,-0.10735279264052683,-0.7179157326017109,-66.49975311183172,16.056228993367327,52.68892059237946,tremor
55,6563804,0.557,-0.5694255634889379,-0.09408962801320525,-0.720871185872813,-68.48122086930765,13.867933639276192,53.273125772288545,tremor
56,6563813,0.566,-0.5680521760940181,-0.08049249696708813,-0.7237454150329328,-70.46810145554214,11.842505731532741,53.77657053846388,tremor
57,6563823,0.576,-0.5668243259821774,-0.06656426326711305,-0.726516231864544,-72.45283344104828,9.990075933765135,54.19837353161481,tremor
58,6563828,0.581,-0.5657460181967698,-0.05230872110572078,-0.7291634828728815,-74.42739387249259,8.319741141807585,54.537975157520414,tremor
59,6563842,0.595,-0.5648180608548238,-0.03773067052191153,-0.7316692323116083,-76.38334790708319,6.839469123205424,54.795138789021124,tremor
60,6563852,0.605,-0.5640380240420113,-0.022835987483659864,-0.7340179155054537,-78.31190294655973,5.55599977786728,54.96995072972848,tremor
61,6563861,0.614,-0.5634002435032458,-0.007631686556485787,-0.7361964618576501,-80.20396636389101,4.474743663439144,55.062818956853256,tremor
62,6563866,0.619,-0.5628958645920287,0.007874025654199498,-0.7381943870219758,-82.05020616870843,3.5996799197878513,55.07447057430416,tremor
63,6563908,0.661,-0.5625129239705774,0.02367170756436928,-0.7400038535732514,-83.84111425171119,2.9332572067749907,55.00594783848425,tremor
64,6563913,0.666,-0.5622364691298678,0.03975065073262807,-0.7416196992447284,-85.56707211527866,2.476302519734781,54.8586025795814,tremor
65,6563923,0.676,-0.5620487180908914,0.05609885884327073,-0.7430394315883405,-87.21841918449414,2.227943573714534,54.63408882740904,tremor
66,6563942,0.695,-0.5619292628965751,0.0727030367503313,-0.7442631879351059,-88.78552386260537,2.185550672273785,54.33435345800507,tremor
67,6563948,0.701,-0.5618553203004323,0.08954858846950473,-0.7452936598996153,-90.25885743702894,2.3447035187610634,53.96162470318663,tremor
68,6563952,0.705,-0.5618020314881098,0.10661962300453788,-0.7461359823655354,-91.62907078034911,2.6991873635553505,53.51839840722881,tremor
69,6563957,0.71,-0.5617428101750173,0.12389896711973931,-0.746797587778206,-92.88707356963651,3.241021375891768,53.00742196735506,tremor
70,6563962,0.715,-0.5616497355083677,0.14136818449824679,-0.7472880274990659,-94.02411550575633,3.96052034205987,52.43167595442805,tremor
71,6563967,0.72,-0.5614939832144346,0.15900760105877296,-0.7476187628299806,-95.03186877250826,4.846388845174383,51.79435347967057,tremor
72,6563982,0.735,-0.5612462855518742,0.17679633648203527,-0.7478029290309345,-95.90251073794757,5.88584506962488,51.098837458223166,tremor
73,6564019,0.772,-0.5608774079600933,0.19471234219024916,-0.7478550762016819,-96.62880566479298,7.064769392620924,50.34867602465579,tremor
74,6564029,0.782,-0.5603586279697235,0.2127324461203527,-0.7477908912699205,-97.20418396660156,8.367871172135418,49.54755647643045,tremor
75,6564034,0.787,-0.5596622002824729,0.23083240465675653,-0.7476269055560906,-97.62281734483395,9.778865997827685,48.69927824323888,tremor
76,6564043,0.796,-0.5587617914345931,0.2489869621002883,-0.7473801925484832,-97.87968801412565,11.280655574468561,47.80772547362585,tremor
77,6564053,0.806,-0.5576328686127586,0.2671699181155866,-0.7470680607208918,-97.97065021097006,12.855503496265696,46.8768398659979,tremor
78,6564058,0.811,-0.5562530301257516,0.28535420375577075,-0.7467077465085671,-97.8924822987427,14.485202118377305,45.91059433692425,tremor
79,6564063,0.816,-0.5546022694107736,0.3035119668891223,-0.7463161128851771,-97.6429280212583,16.15122797503949,44.91296802167506,tremor
80,6564068,0.821,-0.5526631696181157,0.321614668079818,-0.7459093592414883,-97.2207258038795,17.834885273039987,43.88792295705374,tremor
81,6564073,0.826,-0.5504210310541291,0.3396331881192876,-0.7455027483310402,-96.62562543565302,19.517438678127604,42.83938263057884,tremor
82,6564078,0.831,-0.5478639384476902,0.3575379483924418,-0.7451103558332477,-95.8583919549941,21.180237853446453,41.77121242480316,tremor
83,6564083,0.836,-0.544982778679685,0.3752990450455532,-0.7447448475614137,-94.92079706155629,22.804837012353133,40.687201868502854,tremor
84,6564088,0.841,-0.5417712219891623,0.3928863974838642,-0.7444172885316884,-93.81559884008296,24.37311311789906,39.59104854095397,tremor
85,6564092,0.845,-0.5382256805992934,0.41026991108207367,-0.7441369870597158,-92.54651095866973,25.867386278567732,38.48634345725205,tremor
86,6564097,0.85,-0.5343452581526763,0.4274196531809718,-0.7439113758339732,-91.11816275063406,27.270545328167106,37.376557771870054,tremor
87,6564111,0.864,-0.5301317013470306,0.44430604053219536,-0.743745930611545,-89.53605168339111,28.566180530481876,36.265030646813806,tremor
88,6564138,0.891,-0.5255893618289104,0.46090003543164265,-0.743644125891355,-87.80648966380221,29.73872384495193,35.15495811696246,tremor
89,6564153,0.906,-0.5207251719615221,0.4771733469847119,-0.7436074257602212,-85.93654445167681,30.773595316103336,34.049382745649076,tremor
90,6564158,0.911,-0.515548632985914,0.49309863344151,-0.7436353072074948,-83.93397719185292,31.657352128812406,32.95118382572205,tremor
91,6564168,0.921,-0.5100718090941699,0.5086497014564434,-0.7437253126614338,-81.8071767919707,32.377835110038305,31.863067889752486,tremor
92,6564173,0.926,-0.5043093169405161,0.5238016984572901,-0.7438731283285714,-79.56509163841359,32.924306414308106,30.787559371119244,tremor
93,6564187,0.94,-0.498278297882904,0.5385312948998465,-0.744072685039671,-77.21715900325295,33.2875720680931,29.726991384747464,tremor
94,6564192,0.945,-0.49199836013582443,0.5528168538296107,-0.7443162786011263,-74.77323245312132,33.46008393131384,28.683496728387556,tremor
95,6564206,0.959,-0.4854914800068655,0.5666385857192706,-0.7445947070015824,-72.24350760136518,33.436017227774705,27.658999309057272,tremor
96,6564221,0.974,-0.4787818551824153,0.5799786869392058,-0.7448974221324279,-69.6384466209115,33.21132179350871,26.655206261142293,tremor
97,6564230,0.983,-0.47189570804984865,0.592821460459866,-0.7452126938635613,-66.96870204018316,32.78374726380911,25.673601041214976,tremor
98,6564235,0.988,-0.4648610424407598,0.6051534175277214,-0.7455277843021432,-64.24504046192104,32.152844228916656,24.715437764746408,tremor
99,6564262,1.015,-0.4577073619487957,0.6169633591515109,-0.745829129817075,-61.4782669448324,31.319944637928675,23.781737001625817,tremor
100,6564267,1.02,-0.45046536126434705,0.6282424363235822,-0.7461025279760255,-58.67915082981489,30.288125255303935,22.873283184182657,tremor
101,6564272,1.025,-0.44316660334462277,0.6389841880225148,-0.7463333260602444,-55.85835374905422,29.06215779346695,21.990623715139154,tremor
102,6564277,1.03,-0.43584319473990885,0.6491845562473294,-0.7465066075202536,-53.026360433796185,27.64844862498819,21.13406980011185,tremor
103,6564282,1.035,-0.42852746940792535,0.658841877663038,-0.7466073728240454,-50.19341276825511,26.05496996348682,20.303698972255923,tremor
104,6564291,1.044,-0.4212516884287775,0.6679568519000593,-0.7466207117265194,-47.36944736147373,24.291183356364073,19.499359225606913,tremor
105,6564311,1.064,-0.4140477597822266,0.6765324871137122,-0.74653196501493,-44.564036756355264,22.367955472696394,18.720674624987797,tremor
106,6564325,1.078,-0.40694697932558194,0.6845740240186818,-0.7463268751223316,-41.786334289254405,20.297465630392708,17.967052207762766,tremor
107,6564330,1.083,-0.3999797918080862,0.6920888402010781,-0.745991726440097,-39.04502257402939,18.09310433781322,17.23768993810276,tremor
108,6564335,1.088,-0.3931755695413692,0.6990863370050381,-0.7455134774287191,-36.34826561715284,15.769362290711554,16.531585435702244,tremor
109,6564340,1.093,-0.3865624063140309,0.7055778116222635,-0.7448798874422905,-33.703664655722086,13.341709647005075,15.847545199406136,tremor
110,6564345,1.098,-0.38016692505547306,0.7115763171350821,-0.7440796413633118,-31.11821790970188,10.82646584984213,15.184194084740849,tremor
111,6564349,1.102,-0.37401409916771794,0.7170965131672915,-0.7431024746712361,-28.598284517580378,8.24066067778061,14.539984855006887,tremor
112,6564354,1.107,-0.368127088889663,0.722154509505251,-0.7419393005531589,-26.14955295921412,5.601887533917615,13.913207688241155,tremor
113,6564359,1.112,-0.3625270951844918,0.7267677046054202,-0.740582339277662,-23.777014251713247,2.9281502518726166,13.301999577157707,tremor
114,6564385,1.138,-0.3572332342350461,0.7309546203545275,-0.7390252484730584,-21.484940134845058,0.2377049150738783,12.70435360418973,tremor
115,6564390,1.143,-0.3522624356155511,0.7347347338607944,-0.7372632513781799,-19.276866354982452,-2.451101631842023,12.118128111782514,tremor
116,6564400,1.153,-0.347629366641245,0.738128306523516,-0.7352932588223146,-17.155581036258326,-5.119994759381674,11.541055829870226,tremor
117,6564405,1.158,-0.34334638446795357,0.7411562102690614,-0.7331139799395866,-15.123118026080274,-7.750934611531581,10.97075308370155,tremor
118,6564410,1.163,-0.3394235164736626,0.7438397507418182,-0.7307260166540698,-13.18075505044802,-10.32627631532672,10.404729287224562,tremor
119,6564414,1.167,-0.3358684685227549,0.7462004874052129,-0.7281319377897494,-11.329016532710964,-12.828925929481748,9.840397001197354,tremor
120,6564424,1.177,-0.3326866600112732,0.7482600508636881,-0.725336330040897,-9.567681013609485,-15.242490255306386,9.275082859416495,tremor
121,6564433,1.186,-0.329881284137133,0.750039958147694,-0.7223458246505413,-7.8957932264541775,-17.551418674115546,8.706039625849652,tremor
122,6564438,1.191,-0.32745339157960107,0.751561427105858,-0.7191691001589816,-6.311680977549633,-19.74113523924677,8.130459564992318,tremor
123,6564443,1.196,-0.3254019956130533,0.7528451913486562,-0.7158168627286925,-4.812977014477453,-21.79815937391441,7.545489225763265,tremor
124,6564463,1.216,-0.32372419651202605,0.7539113173540418,-0.7123018061463398,-3.396646016248701,-23.710213740772076,6.948245677321898,tremor
125,6564472,1.225,-0.32241532283302227,0.7547790253894677,-0.7086385536074062,-2.0590167245046573,-25.466318164429673,6.335834194592054,tremor
126,6564512,1.265,-0.3214690867308352,0.755466515875548,-0.7048435829371159,-0.7958190919062951,-27.05686888268956,5.7053673646869125,tremor
127,6564517,1.27,-0.32087774990441964,0.7559908027770291,-0.7009351362695939,0.39777380599767503,-28.473702818909334,5.05398556412533,tremor
128,6564522,1.275,-0.32063229619554706,0.7563675555969451,-0.6969331147125482,1.5270994368798618,-29.7101469160109,4.378878732426822,tremor
129,6564527,1.28,-0.32072260649519885,0.7566109515632311,-0.6928589583892903,2.5979554310493604,-30.76105276212103,3.677309335423565,tremor
130,6564531,1.284,-0.3211376316425153,0.7567335395938866,-0.6887355125153898,3.616545515286913,-31.622816738718885,2.946636372116331,tremor
131,6564541,1.294,-0.32186555949133394,0.756746117571047,-0.6845868807101608,4.589422080299178,-32.293385786387525,2.1843402363629627,tremor
132,6564546,1.299,-0.3228939731841807,0.7566576243349087,-0.6804382673595729,5.52342565648975,-32.7722487000425,1.388048203073543,tremor
133,6564551,1.304,-0.3242099987486693,0.7564750476339595,-0.6763158113384597,6.425621546086196,-33.06041270907936,0.555560270508109,tremor
134,6564556,1.309,-0.32580044124000984,0.7562033490547262,-0.6722464136227836,7.303233863792239,-33.16036501629969,-0.3151249417348182,tremor
135,6564560,1.313,-0.32765190964147944,0.7558454067203609,-0.6682575612086632,8.163577277787466,-33.076018994464874,-1.2257845626173043,tremor
136,6564570,1.323,-0.3297509314885013,0.7554019763105251,-0.6643771493108073,9.013986815000933,-32.81264489163518,-2.1779464436151375,tremor
137,6564575,1.328,-0.33208405863005774,0.7548716707314843,-0.6606333031067012,9.861746193010566,-32.376785189022506,-3.1728650754601047,tremor
138,6564580,1.333,-0.3346379656413631,0.7542509585697592,-0.657054199432618,10.714015261635657,-31.77615519373456,-4.211498782061566,tremor
139,6564594,1.347,-0.3373995421326334,0.7535341813072577,-0.6536678879556566,11.577757277608157,-31.019530023472527,-5.294488519304101,tremor
140,6564599,1.352,-0.340355979570612,0.7527135891670494,-0.6505021105849552,12.459666888175452,-30.116619809115257,-6.422138601293355,tremor
141,6564604,1.357,-0.3434948523044177,0.7517793953933655,-0.6475841173829575,13.366099846536056,-29.07793561994058,-7.5943996744628,tremor
142,6564609,1.362,-0.34680419138426444,0.7507198487323973,-0.644940477111569,14.30300559781738,-27.914649191913014,-8.810854258799054,tremor
143,6564635,1.388,-0.35027254863698937,0.7495213238500287,-0.6425968808723199,15.275863934405484,-26.638449910699066,-10.070705170689507,tremor
144,6564645,1.398,-0.35388904749428507,0.7481684293749079,-0.6405779380792493,16.28962691045447,-25.26140260891792,-11.372767129452592,tremor
145,6564650,1.403,-0.35764341647100456,0.7466441331683112,-0.6389069651608854,17.348667127955213,-23.79580955695231,-12.715461829149127,tremor
146,6564659,1.412,-0.36152600120096257,0.7449299042806075,-0.6376057687733793,18.456733372049314,-22.254079561971658,-14.096816730282647,tremor
147,6564669,1.422,-0.3655277517254272,0.7430058708571887,-0.6366944267316034,19.616914395853833,-20.648606402141546,-15.514467789878958,tremor
148,6564674,1.427,-0.369640183268914,0.7408509930227762,-0.6361910711464329,20.831611445007095,-18.991658040098514,-16.96566629598213,tremor
149,6564678,1.431,-0.37385531078525014,0.7384432495303196,-0.6361116792470474,22.102519874988495,-17.29527731854349,-18.44728990017498,tremor
150,6564683,1.436,-0.37816555975760735,0.7357598367311444,-0.6364698779586224,23.430619959305897,-15.57119422502884,-19.955857856272598,tremor
151,6564688,1.441,-0.38256365774526097,0.7327773782123348,-0.6372767684310296,24.816176731449257,-13.83074934717809,-21.48755038893374,tremor
152,6564692,1.445,-0.38704251272401363,0.7294721432473319,-0.6385407763545564,26.258748468264336,-12.084827818252553,-23.03823204376926,tremor
153,6564697,1.45,-0.3915950851939587,0.725820272003356,-0.6402675330816955,27.757203223041344,-10.343802863985495,-24.603478812418256,tremor
154,6564706,1.459,-0.39621426123662445,0.721798005236363,-0.6424597913572141,29.30974266409442,-8.617487992554508,-26.178608775863015,tremor
155,6564721,1.474,-0.40089273317934804,0.7173819159853426,-0.6451173779173226,30.913932377060227,-6.915096907879445,-27.75871595892124,tremor
156,6564767,1.52,-0.4056228933319789,0.7125491405760855,-0.6482371834561256,32.566737751179346,-5.245210360040375,-29.338707033712712,tremor
157,6564772,1.525,-0.41039674456707376,0.7072776061029517,-0.6518131886435627,34.26456458653032,-3.6157493547610393,-30.913340450392816,tremor
158,6564812,1.565,-0.4152058296315359,0.7015462515231442,-0.6558365232825909,36.00330360916171,-2.033954373366783,-32.477267514901584,tremor
159,6564816,1.569,-0.42004117942018326,0.6953352395923159,-0.6602955546209621,37.77837813002354,-0.5063704199497281,-34.02507488466177,tremor
160,6564821,1.574,-0.42489327934118754,0.6886261570655403,-0.6651760004521383,39.58479410194719,0.961162249032254,-35.55132792225723,tremor
161,6564826,1.579,-0.4297520524239713,0.681402200823299,-0.6704610628470473,41.417191808139734,2.3635119338199173,-37.05061433730787,tremor
162,6564831,1.584,-0.4346068577796386,0.6736483478059633,-0.6761315788558836,43.26989836863001,3.696254186046745,-38.51758755576311,tremor
163,6564835,1.588,-0.43944650317095135,0.6653515068369242,-0.682166185016684,45.13698020019478,4.955665853415494,-39.94700927901613,tremor
164,6564850,1.603,-0.44425927059677767,0.6565006506017421,-0.6885414928380141,47.01229453053019,6.13871502309545,-41.333790728309936,tremor
165,6564891,1.644,-0.4490329538438937,0.6470869262595236,-0.6952322725310933,48.889539062104205,7.243047460338577,-42.6730321091585,tremor
166,6564896,1.649,-0.45375490687120607,0.6371037434252111,-0.7022116421753921,50.7622989152924,8.266970148982207,-43.960059871001526,tremor
167,6564911,1.664,-0.45841210168960966,0.6265468386061249,-0.7094512593172086,52.62409006580394,9.209432505618658,-45.19046137238181,tremor
168,6564916,1.669,-0.462991194153127,0.615414315619535,-0.7169215118965276,54.46839863883839,10.070005747826,-46.36011658722022,tremor
169,6564925,1.678,-0.4674785958589936,0.6037066620526094,-0.7245917055277162,56.2887156331742,10.848860745244446,-47.465226506771266,tremor
170,6564930,1.683,-0.4718605502030011,0.591426742418689,-0.7324302445622245,58.07856691104297,11.546744481911578,-48.50233791570167,tremor
171,6564950,1.703,-0.4761232105448234,0.5785797692716419,-0.7404048049549579,59.83153858490826,12.164955030296476,-49.4683642606979,tremor
172,6564974,1.727,-0.48025271838963096,0.5651732541259338,-0.7484824976262074,61.541298237175084,12.705314703816185,-50.36060238959438,tremor
173,6565011,1.764,-0.48423527949681455,0.5512169405598941,-0.7566300217013102,63.201612695145315,13.170140839001823,-51.17674501234412,tremor
174,6565016,1.769,-0.48805723593397343,0.5367227223103359,-0.7648138077541577,64.80636331536523,13.562213497751902,-51.91488881149429,tremor
175,6565020,1.773,-0.4917051323805574,0.5217045494501246,-0.7730001520525335,66.34955987087596,13.884739329156819,-52.573538200025894,tremor
176,6565025,1.778,-0.4951657755139242,0.5061783258462826,-0.7811553438116046,67.82535415674803,14.141310939855709,-53.15160478579939,tremor
177,6565029,1.782,-0.4984262860891326,0.490161801026551,-0.7892457884865337,69.22805433469722,14.335861399307289,-53.648402659888404,tremor
178,6565039,1.792,-0.5014741442914322,0.47367445935891256,-0.7972381309672192,70.55214084933884,14.47261390531301,-54.063639690154496,tremor
179,6565059,1.812,-0.5042972299828744,0.4567374090897291,-0.805099382958163,71.79228449502008,14.556027086717506,-54.39740507604218,tremor
180,6565074,1.827,-0.5068838604293547,0.43937327329502085,-0.8127970586517441,72.94336692178511,14.59073686364154,-54.65015350106019,tremor
181,6565079,1.832,-0.5092228287977619,0.421606084178493,-0.820299321933911,74.00050358051374,14.581496167685742,-54.82268629616613,tremor
182,6565089,1.842,-0.511303446976542,0.4034611814374375,-0.8275751468576144,74.95906886812571,14.533114092374879,-54.91613009148655,tremor
183,6565093,1.846,-0.5131155960046853,0.3849651147116827,-0.834594491244888,75.81472307553764,14.450396157463182,-54.93191347830565,tremor
184,6565103,1.856,-0.5146497866434809,0.36614554956341827,-0.841328481426231,76.56344065808787,14.338087318757822,-54.87174222171721,tremor
185,6565139,1.892,-0.5158972315526874,0.34703117611169654,-0.8477496046598623,77.20153930835116,14.20081915420955,-54.73757355384646,tremor
186,6565144,1.897,-0.5168499293241289,0.3276516193923335,-0.8538319049017986,77.72570928879993,14.043062338911778,-54.531590043226,tremor
187,6565148,1.901,-0.5175007594300876,0.30803735066813986,-0.859551177330678,78.1330424776098,13.869085130838387,-54.25617349129965,tremor
188,6565163,1.916,-0.517843586058332,0.28821959914880396,-0.8648851572133411,78.42106061342116,13.682918182898868,-53.913879266812025,tremor
189,6565173,1.926,-0.5178733678888298,0.2682302637717798,-0.8698136991058555,78.58774230161224,13.488325633335222,-53.50741145885257,tremor
190,6565182,1.935,-0.5175862701624887,0.2481018247909014,-0.8743189428505518,78.63154844585904,13.288782148260625,-53.03959920315766,tremor
191,6565187,1.94,-0.5169797749463607,0.2278672549354685,-0.8783854632939139,78.55144586003229,13.087455418654955,-52.51337450167733,tremor
192,6565192,1.945,-0.516052785357733,0.2075599298823071,-0.8820004011335376,78.3469288724233,12.887193551539033,-51.931751804437184,tremor
193,6565197,1.95,-0.5148057196882065,0.18721353775761462,-0.8851535728411961,78.01803875259074,12.690516824786469,-51.29780955677188,tremor
194,6565202,1.955,-0.5132405918387282,0.16686198736719005,-0.8878375582145367,77.56538077811047,12.49961336510687,-50.61467384150188,tremor
195,6565221,1.974,-0.5113610751713336,0.1465393148471953,-0.890047764759129,76.9901387215055,12.316338423072509,-49.885504171643866,tremor
196,6565226,1.979,-0.5091725477188338,0.12627958843329024,-0.891782468740084,76.29408648100056,12.142217029512578,-49.11348141943827,tremor
197,6565256,2.009,-0.5066821175729304,0.10611681105835795,-0.8930428332790571,75.47959650869078,11.978449906969548,-48.30179780666883,tremor
198,6565261,2.014,-0.5038986280842334,0.0860848204974024,-0.8938329041970212,74.54964461962234,11.82592256737477,-47.453648835426144,tremor
199,6565271,2.024,-0.5008326431484683,0.06621718677647116,-0.8941595843296358,73.50781071593056,11.685217544811632,-46.572227010707884,tremor
200,6565276,2.029,-0.49749641325597105,0.046547106559201135,-0.8940325867685806,72.35827495114678,11.556629687955134,-45.660717192560064,tremor
201,6565281,2.034,-0.49390382314904113,0.027107294240007438,-0.8934643670115987,71.10580889637947,11.440184378510544,-44.72229340656529,tremor
202,6565285,2.038,-0.4900703219311293,0.007929869525858436,-0.8924700335047079,69.75576134057515,11.335658466382544,-43.760116928959285,tremor
203,6565295,2.048,-0.4860128363992129,-0.010953758611837077,-0.8910672356985823,68.31403844532304,11.242603635502265,-42.77733544339961,tremor
204,6565305,2.058,-0.48174966830995447,-0.02951301158706944,-0.8892760286307422,66.78707807205973,11.160371845218696,-41.77708304195954,tremor
205,6565314,2.067,-0.47730037629436517,-0.04771826423424881,-0.8871187132363476,65.18181820376842,11.08814243628347,-40.76248081513255,tremor
206,6565329,2.082,-0.47268564322924655,-0.0655409707913161,-0.8846196520856506,63.505659491469814,11.024950455264818,-39.73663774388326,tremor
207,6565343,2.096,-0.4679271300569721,-0.0829537931533412,-0.8818050610043319,61.76642206227181,10.969715745060405,-38.702651570641606,tremor
208,6565353,2.106,-0.4630473172927489,-0.09993073047117089,-0.8787027779552175,59.97229682461633,10.921272375015388,-37.66360929090571,tremor
209,6565385,2.138,-0.4580693357220493,-0.11644724892791716,-0.875342011488868,58.13179159488724,10.878398034352225,-36.622586885077936,tremor
210,6565390,2.143,-0.45301678801762363,-0.1324804103069619,-0.8717530718367837,56.25367244825729,10.83984306669656,-35.582647913114016,tremor
211,6565415,2.168,-0.44791356316538816,-0.14800899778932058,-0.867967088226919,54.34690076527761,10.804358853847441,-34.54684062275204,tremor
212,6565420,2.173,-0.44278364568507644,-0.16301363730516572,-0.8640157162727776,52.42056650083875,10.770725246237633,-33.51819326347908,tremor
213,6565424,2.177,-0.4376509216821338,-0.17747691272188473,-0.8599308394305919,50.48381824283133,10.737776695391698,-32.49970734329912,tremor
214,6565434,2.187,-0.4325389837758565,-0.1913834731684351,-0.8557442686190743,48.54579066237957,10.704426701758576,-31.494348618612012,tremor
215,6565439,2.192,-0.4274709369052463,-0.20472013084899288,-0.851487444159421,46.61553000032574,10.669690177144972,-30.50503568185125,tremor
216,6565453,2.206,-0.4224692069179836,-0.2174759477641592,-0.8471911441691038,44.70191829657484,10.632703339219223,-29.534626112921725,tremor
217,6565458,2.211,-0.4175553537258414,-0.2296423098212657,-0.8428852033786886,42.813597151557545,10.592740792568547,-28.585900283011707,tremor
218,6565472,2.225,-0.41274989071161494,-0.24121298687386772,-0.8385982460265468,40.95889190608835,10.549229487215635,-27.661543029231012,tremor
219,6565509,2.262,-0.4080721120507219,-0.25218417728935816,-0.8343574360786522,39.145737228530486,10.501759262339796,-26.76412353961294,tremor
220,6565518,2.271,-0.4035399296899801,-0.26255453571121773,-0.8301882476359195,37.38160520011489,10.45008966972473,-25.89607388769991,tremor
221,6565533,2.286,-0.3991697218820723,-0.2723251827685828,-0.8261142581581399,35.673437083739145,10.394152740697253,-25.059666729130907,tremor
222,6565538,2.291,-0.3949761953441649,-0.28149969560332855,-0.8221569671143365,34.02758003129404,10.334051350141795,-24.256992719751892,tremor
223,6565542,2.295,-0.39097226323456286,-0.2900840782518692,-0.818335642800241,32.449729999279924,10.270052883038385,-23.489938236233417,tremor
224,6565552,2.305,-0.38716894119877576,-0.29808671115699165,-0.8146672001701912,30.944882075340107,10.20257804116707,-22.760163975604247,tremor
225,6565558,2.311,-0.3835752637274745,-0.30551827941104925,-0.8111661124207866,29.51728926694956,10.132184831717455,-22.069084983257778,tremor
226,6565586,2.339,-0.3801982229899955,-0.31239167974859,-0.8078443586125751,28.170430591845893,10.059548034936943,-21.417852621011612,tremor
227,6565591,2.344,-0.37704273213807027,-0.31872190679709317,-0.8047114087901983,26.906989071481323,9.985434730804176,-20.807338951368585,tremor
228,6565596,2.349,-0.3741116147933219,-0.32452591961766347,-0.8017742469096308,25.72883999229577,9.910676743571734,-20.23812398808043,tremor
229,6565601,2.354,-0.3714056220356923,-0.32982249005945147,-0.7990374305269643,24.63704958429895,9.836141096594435,-19.710486242090898,tremor
230,6565626,2.379,-0.36892347771881,-0.3346320348462416,-0.7965031848179612,23.631884081804312,9.762699721475466,-19.224396965217935,tremor
231,6565630,2.383,-0.3666619523808401,-0.33897643357185436,-0.7941715272546755,22.712828977312697,9.691199720580803,-18.779518452230377,tremor
232,6565645,2.398,-0.3646159654107594,-0.342878834901799,-0.7920404183141401,21.878618151656767,9.62243544485786,-18.375206700328157,tremor
233,6565650,2.403,-0.3627787144670218,-0.34636345328871737,-0.790105933049689,21.12727245589158,9.557123529047091,-18.010518642629524,tremor
234,6565655,2.408,-0.3611418304265956,-0.3494553584474623,-0.7883624482656584,20.456147226241452,9.495881836797825,-17.684224073493485,tremor
235,6565659,2.412,-0.3596955553930922,-0.3521802597423127,-0.78680284034516,19.861988124613475,9.439213031788693,-17.3948222771654,tremor
236,6565664,2.417,-0.3584289405665912,-0.35456428754722713,-0.785418689349534,19.34099460775788,9.38749323598205,-17.14056326529861,tremor
237,6565669,2.422,-0.35733006013054947,-0.3566337735712997,-0.7842004856836269,18.888890236327665,9.340965985075169,-16.91947342641476,tremor
238,6565674,2.427,-0.3563862367796207,-0.3584150321044202,-0.7831378362876467,18.500998941133624,9.299741456695784,-16.729385290693266,tremor
239,6565679,2.432,-0.3555842741138403,-0.359934144133125,-0.78221966790522,18.172326267423756,9.26380073498322,-16.5679710154359,tremor
240,6565683,2.436,-0.3549106908666564,-0.3612167463007551,-0.7814344254542007,17.897644517987317,9.233004688918777,-16.432779099649842,tremor
241,6565688,2.441,-0.3543519518181207,-0.36228782673510807,-0.780770263880669,17.671580611438365,9.20710688288172,-16.321273740554012,tremor
