sample,t_ms,t_s,ax,ay,az,gx,gy,gz,tremor
0,6386826,0.0,-0.3683408717367143,-0.5713904325649387,-0.7754559149339584,9.699183986439078,0.8727619549383747,-12.074024207482696,tremor
1,6386831,0.005,-0.3667029604472055,-0.5716544523437613,-0.7755881292819243,10.887373409520563,-3.388475882693741,-11.241510826794666,tremor
2,6386836,0.01,-0.36444773315767215,-0.572022546434303,-0.7755861555394147,11.977124302672943,-7.502296847675625,-10.435105383287125,tremor
3,6386850,0.024,-0.36152893526005203,-0.5725031309064122,-0.7753262107888493,12.959819112677181,-11.455190428805667,-9.654264436986288,tremor
4,6386855,0.029,-0.3580147327824107,-0.5730843069822285,-0.7746765879636061,13.827164950843374,-15.234235261792092,-8.898070269441277,tremor
5,6386860,0.034,-0.3540330796150272,-0.5737422980514426,-0.7735254307187587,14.571258410755174,-18.827153489332368,-8.16523786060289,tremor
6,6386865,0.039,-0.349721730013409,-0.5744498332647535,-0.7717902959537636,15.184651049307474,-22.222364177519037,-7.454125653700707,tremor
7,6386870,0.044,-0.3452020584321954,-0.575180899059935,-0.7694158734940035,15.66041508326594,-25.409035883754907,-6.7627500538605885,tremor
8,6386875,0.049,-0.34057134631311115,-0.5759124446727396,-0.7663677473678318,15.992208760620475,-28.377138328052542,-6.088803596321534,tremor
9,6386880,0.054,-0.335904490623169,-0.5766244325029225,-0.7626264848160538,16.174340770354632,-31.11749295422419,-5.429676714361849,tremor
10,6386889,0.063,-0.33125890163872906,-0.5772992628114079,-0.7581833828652871,16.201832958159716,-33.62182198279032,-4.782483033502648,tremor
11,6386899,0.073,-0.3266795480005937,-0.577921105332182,-0.7530378167045834,16.070480519810438,-35.88279535587889,-4.144088115016037,tremor
12,6386904,0.078,-0.3222030714450813,-0.5784753443320717,-0.7471957410643906,15.776908749171282,-37.89407475824527,-3.5111415663676633,tremor
13,6386909,0.083,-0.31786080816489126,-0.5789481833568024,-0.7406689108543272,15.318625326584902,-39.65035367056183,-2.880112427666931,tremor
14,6386923,0.097,-0.3136808822904521,-0.5793263934725588,-0.733474507224155,14.69406704989869,-41.14739217532835,-2.2473277304184807,tremor
15,6386950,0.124,-0.30968960397101053,-0.579597172333595,-0.7256349684371501,13.902639839766316,-42.382045001386786,-1.609014105738863,tremor
16,6386959,0.133,-0.30591237720523223,-0.579748082746683,-0.7171779057304793,12.944750800852672,-43.35228108906184,-0.9613422875580447,tremor
17,6386964,0.138,-0.30237427299269976,-0.5797670458385276,-0.7081360356436305,11.821831105779733,-44.05719285191029,-0.30047429979946966,tremor
18,6386969,0.143,-0.29910037752692276,-0.5796423705448196,-0.6985470909831085,10.536348510323368,-44.49699339747679,0.37738697860533454,tremor
19,6386984,0.158,-0.2961159896736911,-0.5793628064389702,-0.6884536903763219,9.091808424169182,-44.67300031350571,1.0759463146455812,tremor
20,6386989,0.163,-0.2934467165606246,-0.5789176107357803,-0.6779031565616668,7.492742654691136,-44.58760521852353,1.7987633003982308,tremor
21,6386993,0.167,-0.2911184985500007,-0.578296622889134,-0.6669472794674172,5.744685202324705,-44.244229052923636,2.5491990015397774,tremor
22,6386998,0.172,-0.28915758293421057,-0.5774903418727296,-0.6556420236866124,3.8541348027006817,-43.647263978217936,3.330363036100922,tremor
23,6387003,0.177,-0.2875904576090469,-0.5764900022672349,-0.6440471822491688,1.8285042705366923,-42.80200369523766,4.145062191825909,tremor
24,6387013,0.187,-0.28644375049013954,-0.5752876458915065,-0.6322259802150507,-0.3239429113948192,-41.71456492004238,4.9957518072808345,tremor
25,6387018,0.192,-0.2857440967159136,-0.5738761860707494,-0.6202446328611617,-2.5941679156725552,-40.39180359158594,5.884491220650539,tremor
26,6387027,0.201,-0.2855179732250099,-0.5722494618535935,-0.6081718642341423,-4.9724425724755825,-38.84123003775825,6.812904620668184,tremor
27,6387032,0.206,-0.28579149884449145,-0.5704022796715846,-0.596078392612736,-7.448444456355455,-37.070927696315565,7.7821486016547405,tremor
28,6387037,0.211,-0.286590197475051,-0.5683304401581339,-0.5840363899388358,-10.011359158763492,-35.089479982537114,8.792887612812894,tremor
29,6387042,0.216,-0.28793872229198564,-0.5660307481684447,-0.5721189225046144,-12.649987626987434,-32.90590946005914,9.845278289242403,tremor
30,6387074,0.248,-0.28986054009376344,-0.5635010045025001,-0.560399380118792,-15.352856335236726,-30.529632603450274,10.93896336046828,tremor
31,6387084,0.258,-0.2923775769855688,-0.5607399784397599,-0.5489509006471592,-18.108328055726112,-27.97043219734973,12.073075471090208,tremor
32,6387089,0.263,-0.2955098293594304,-0.5577473609292031,-0.5378457962916213,-20.904711119977964,-25.238447910893388,13.246250851083117,tremor
33,6387093,0.267,-0.29927494736821003,-0.5545236990940594,-0.5271549873215206,-23.73036529907488,-22.344183980478277,14.456652379751949,tremor
34,6387098,0.272,-0.3036878014007765,-0.5510703135358501,-0.5169474482896466,-26.573802766866347,-19.29853140807304,15.7020012329026,tremor
35,6387103,0.277,-0.30876004502827076,-0.547389200684073,-0.5072896711244449,-29.42378300375979,-16.11280077752979,16.979616010130325,tremor
36,6387108,0.282,-0.3144996901740082,-0.5434829230834046,-0.49824514892825117,-32.26940090546278,-12.798760780105377,18.28645801618009,tremor
37,6387113,0.287,-0.3209107116678159,-0.5393544910132783,-0.4898738838378372,-35.10016774485395,-9.368676846023853,19.619181217758076,tremor
38,6387117,0.291,-0.3279926987899539,-0.5350072391858274,-0.4822319219104756,-37.90608497354248,-5.835343914227822,20.974185316713037,tremor
39,6387122,0.296,-0.3357405708607442,-0.5304447024649982,-0.4753709176735535,-40.67771112756176,-2.2121073588164193,22.34767037478429,tremor
40,6387127,0.301,-0.34414437240026613,-0.5256704945916578,-0.4693377307076809,-43.40622230356486,1.4871335485143,23.735691490808005,tremor
41,6387132,0.306,-0.3531891609133466,-0.520688193786383,-0.4641740564172492,-46.08346677999321,5.24794451785331,25.134212156439077,tremor
42,6387137,0.311,-0.3628549970250937,-0.5155012388315693,-0.4599160929821556,-48.70201435833853,9.05540123209875,26.539155086382422,tremor
43,6387151,0.325,-0.3731170426061102,-0.5101128388027256,-0.45659424639338786,-51.255200890325064,12.894162776457216,27.946449523312058,tremor
44,6387161,0.335,-0.3839457678208622,-0.5045258990164683,-0.45423287547612895,-53.73716824390466,16.74857407936059,29.352074251839582,tremor
45,6387166,0.34,-0.3953072628903089,-0.4987429649794305,-0.452850078927331,-56.14289965189366,20.60279588210941,30.752095821314658,tremor
46,6387199,0.373,-0.40716364502618624,-0.49276618515606524,-0.45245752666951206,-58.46824998936901,24.440958419700344,32.14270177582844,tremor
47,6387214,0.388,-0.4194735457962094,-0.4865972922524764,-0.45306033824854475,-60.709970058099344,28.24733252262454,33.52022900964827,tremor
48,6387219,0.393,-0.43219265957024955,-0.48023760152304024,-0.45465701150842824,-62.86572347064793,32.006509637682456,34.88118766371048,tremor
49,6387228,0.402,-0.44527433027976726,-0.47368802348988553,-0.4572394052054768,-64.93409432663334,35.703580923981654,36.22228118226873,tremor
50,6387238,0.412,-0.4586701521188909,-0.4669490875790176,-0.4607927793983998,-66.91458368626513,39.324305570167844,37.54042320040877,tremor
51,6387243,0.417,-0.47233056040602484,-0.4600209726328322,-0.4652958972530903,-68.80759295099152,42.85525977066071,38.83275183363679,tremor
52,6387248,0.422,-0.48620539157966286,-0.45290354010386236,-0.47072119131322815,-70.61439264492711,46.28395994768743,40.09664174728572,tremor
53,6387253,0.427,-0.5002443958283088,-0.4455963659680788,-0.4770349963550181,-72.33707567874613,49.59895631478122,41.32971416408942,tremor
54,6387258,0.432,-0.5143976915530015,-0.4380987679859087,-0.48419784972679186,-73.97849488710435,52.78989540746806,42.52984476514744,tremor
55,6387263,0.437,-0.5286161570693025,-0.43040982582769594,-0.4921648586246226,-75.54218539367766,55.84755255336441,43.695169267445166,tremor
56,6387273,0.447,-0.5428517610430241,-0.42252839269227505,-0.5008861321165491,-77.03227312277404,58.76383727783325,44.824086324084,tremor
57,6387278,0.452,-0.557057838553985,-0.4144530982978013,-0.5103072739412953,-78.453371503322,61.531776237364596,45.91525729850994,tremor
58,6387287,0.461,-0.5711893238667732,-0.4061823444172943,-0.5203699302257052,-79.81046906099353,64.14547933883206,46.96760242675913,tremor
59,6387321,0.495,-0.5852029534609329,-0.39771429535403374,-0.5310123843741064,-81.1088111130454,66.60009512129413,47.980292921915236,tremor
60,6387326,0.5,-0.5990574532728613,-0.38904686676637174,-0.5421701896291707,-82.35377908446046,68.89176114696984,48.95273870568913,tremor
61,6387331,0.505,-0.6127137223784306,-0.3801777168949101,-0.5537768284193825,-83.55077094807804,71.01755406551938,49.884571668171446,tremor
62,6387335,0.509,-0.6261350218643255,-0.3711042443593996,-0.565764386867079,-84.7050858888355,72.97544236067233,50.775624628553196,tremor
63,6387340,0.514,-0.6392871730862433,-0.3618235962010399,-0.5780642329106995,-85.82181555677911,74.76424293255701,51.62590644248571,tremor
64,6387345,0.519,-0.6521387646784619,-0.3523326888139029,-0.5906076873534406,-86.90574338781121,76.3835810501196,52.435573908988346,tremor
65,6387364,0.538,-0.6646613632556357,-0.3426282430239496,-0.6033266785527811,-87.96125265358673,77.83385215054209,53.204901219543224,tremor
66,6387369,0.543,-0.6768297193048318,-0.332706833074224,-0.6161543731105984,-88.99224330943159,79.11618359612527,53.934247654855376,tremor
67,6387384,0.558,-0.6886219578147569,-0.32256494791421686,-0.6290257765356739,-90.00205741384077,80.23239478345572,54.62402411007466,tremor
68,6387394,0.568,-0.700019743140148,-0.31219906222321303,-0.6418782992020403,-90.9934128976258,81.1849547585162,55.274658883322445,tremor
69,6387403,0.577,-0.7110084095041759,-0.30160571421403287,-0.6546522838568943,-91.96834569884156,81.97693742530036,55.88656305501169,tremor
70,6387408,0.582,-0.7215770518313849,-0.290781587510844,-0.6672914913696621,-92.92816062515541,82.61197518404418,56.46009574998343,tremor
71,6387446,0.62,-0.731718575173124,-0.2797235951420389,-0.6797435413827452,-93.87339161870855,83.09421210782168,56.99552961575484,tremor
72,6387451,0.625,-0.7414297036591063,-0.26842896467527033,-0.6919603041412116,-94.80377226626018,83.42825745458335,57.493016950657896,tremor
73,6387466,0.64,-0.75071095095132,-0.2568953244296323,-0.7038982392689308,-95.7182173318553,83.61913951952344,57.95255704437098,tremor
74,6387470,0.644,-0.7595665535671652,-0.24512079124166544,-0.7155186769412486,-96.61481574841251,83.67225885028215,58.3739654125672,tremor
75,6387475,0.649,-0.7680043667886088,-0.23310406027974725,-0.7267880370802831,-97.49083496094322,83.59333908235985,58.75684567333205,tremor
76,6387480,0.654,-0.7760357211105614,-0.22084449693526778,-0.7376779830081478,-98.3427359613615,83.38837347475287,59.100564785882774,tremor
77,6387490,0.664,-0.7836752361538744,-0.20834223006683233,-0.7481655073739164,-99.16619798669343,83.06356577703505,59.404232242919534,tremor
78,6387500,0.674,-0.7909405891713297,-0.19559824508213575,-0.7582329499316247,-99.95615174594072,82.62526518495648,59.666683611535184,tremor
79,6387505,0.679,-0.797852236799264,-0.18261447472923234,-0.7678679486504795,-100.7068201647932,82.07989651794259,59.88646861057805,tremor
80,6387515,0.689,-0.8044330913282202,-0.1693938852033417,-0.7770633274309846,-101.41176591773723,81.43388805157572,60.06184373976657,tremor
81,6387520,0.694,-0.8107081560246094,-0.15594055535859347,-0.7858169251371283,-102.06394536613772,80.6936004093503,60.190769357558686,tremor
82,6387534,0.708,-0.8167041273020407,-0.14225974745030068,-0.7941313715422006,-102.65576884515667,79.86526039329216,60.270911041043654,tremor
83,6387539,0.713,-0.8224489741159566,-0.1283579688171992,-0.8020138160235818,-103.17916746063396,78.95490352543486,60.299645042672836,tremor
84,6387567,0.741,-0.8279715062100385,-0.11424302504818433,-0.8094756144424389,-103.62566661641306,77.96832837516105,60.274067672979825,tremor
85,6387577,0.751,-0.8333009423969813,-0.09992406621328193,-0.816531978750274,-103.98646637158434,76.91106454643888,60.191008474558146,tremor
86,6387582,0.756,-0.8384664879758964,-0.08541162842157385,-0.8232015927630606,-104.25252843565359,75.78835469105782,60.047047106212034,tremor
87,6387591,0.765,-0.8434969272556854,-0.07071767311694353,-0.8295061966271966,-104.41466919369547,74.60514939770201,59.83853392664843,tremor
88,6387596,0.77,-0.8484202338352723,-0.05585562608832398,-0.8354701421280497,-104.46365769196922,73.36611259848273,59.56161434205148,tremor
89,6387606,0.78,-0.8532631985455703,-0.04084041726111928,-0.8411199213285355,-104.3903170941554,72.07563444827692,59.21225703034779,tremor
90,6387611,0.785,-0.8580510732074655,-0.02568852116174601,-0.8464836720065142,-104.1856278022005,70.73784851985462,58.78628614259365,tremor
91,6387616,0.79,-0.8628072277232778,-0.010417996737863915,-0.8515906647747666,-103.84083025287862,69.3566505360814,58.27941749327919,tremor
92,6387621,0.795,-0.8675528184251005,0.004951475842997061,-0.8564707783676868,-103.34752536247154,67.93571656988404,57.687298598279575,tremor
93,6387626,0.8,-0.8723064668723735,0.020398564586817422,-0.8611539711402996,-102.69777070271003,66.47851950446268,57.00555223361614,tremor
94,6387631,0.805,-0.8770839501819048,0.035900264897012216,-0.8656697581654301,-101.88417074490926,64.98834341197207,56.22982300808255,tremor
95,6387635,0.809,-0.8818979062132278,0.051431892394859915,-0.870046704289745,-100.89995987915262,63.468296284976056,55.35582629963176,tremor
96,6387640,0.814,-0.8867575592330704,0.06696709290267641,-0.8743119440069683,-99.73907735893457,61.9213221913365,54.37939881835492,tremor
97,6387645,0.819,-0.8916684737606563,0.08247787266298207,-0.8784907389472109,-98.39623379250622,60.35021438486341,53.29655003397053,tremor
98,6387650,0.824,-0.8966323458912014,0.09793465112603594,-0.8826060831186174,-96.86696925643363,58.75763115515621,52.10351373677271,tremor
99,6387655,0.829,-0.9016468422895937,0.11330633769969549,-0.8866783647554689,-95.1477035041627,57.14611620769265,50.796799072049126,tremor
100,6387659,0.833,-0.906705497069599,0.12856043277458584,-0.8907250917391092,-93.23577904601599,55.518125106460296,49.373240478919605,tremor
101,6387664,0.838,-0.9117976758108737,0.14366315217689812,-0.8947606851111913,-91.12949805513016,53.87605877201294,47.830046057595204,tremor
102,6387701,0.875,-0.9169086139704058,0.15857957303645087,-0.898796342283097,-88.82815408080332,52.22230420762604,46.16484397388985,tremor
103,6387706,0.88,-0.9220195339792973,0.17327379799334852,-0.902839968337323,-86.33205941249291,50.55928157657266,44.37572658572632,tremor
104,6387711,0.885,-0.9271078416214268,0.18770913385904606,-0.9068961706526705,-83.64256864373604,48.889495628957015,42.46129204928431,tremor
105,6387716,0.89,-0.9321473983130109,0.20184828048455292,-0.9109663094599548,-80.76209857933503,47.215588522224756,40.42068323447226,tremor
106,6387720,0.894,-0.9371088621780256,0.21565352578831076,-0.9150485953139986,-77.6941441828071,45.54039051831307,38.2536238377502,tremor
107,6387725,0.899,-0.9419600877851133,0.2290869436102465,-0.9191382240422792,-74.44328984752141,43.866964961162566,35.9604515985276,tremor
108,6387730,0.904,-0.9466665723308748,0.2421105920905067,-0.9232275403686441,-71.01521494466587,42.19864429774128,33.54214847834133,tremor
109,6387735,0.909,-0.9511919350219724,0.2546867113878455,-0.9273062228123038,-67.41669238034349,40.53905460418763,31.00036754177228,tremor
110,6387745,0.919,-0.9554984164253679,0.2667779205652411,-0.9313614843181752,-63.655578800190966,38.8921270061598,28.33745610038429,tremor
111,6387750,0.924,-0.9595473855483327,0.27834741424966236,-0.9353782851116405,-59.7407951346632,37.26209542206995,25.556474483983216,tremor
112,6387755,0.929,-0.9632998442292001,0.2893591601312673,-0.9393395562308982,-55.68229640475033,35.653481090453255,22.66120963948585,tremor
113,6387760,0.934,-0.9667169208311015,0.2997780984459265,-0.943226433813599,-51.49103011198111,34.07106526673151,19.65618267715473,tremor
114,6387770,0.944,-0.9697603479051341,0.3095703442567306,-0.9470185052647669,-47.17888308341512,32.519852219031996,16.546649515317274,tremor
115,6387774,0.948,-0.9723929210204658,0.3187033926304129,-0.9506940687386903,-42.75861725178614,31.005025161045225,13.338593912258904,tremor
116,6387812,0.986,-0.9745789379000978,0.3271463257596905,-0.9542304068400277,-38.24379541468483,29.531897959744523,10.038712384615634,tremor
117,6387817,0.991,-0.9762846179323567,0.3348700198467368,-0.9576040741122581,-33.64869842356381,28.105865261709344,6.654390758012475,tremor
118,6387832,1.006,-0.9774785017901604,0.34184734836918307,-0.9607911959629428,-28.98823541713277,26.73235305453491,3.193672361633602,tremor
119,6387846,1.02,-0.9781318293471022,0.3480533775055058,-0.9637677746649993,-24.277848606139276,25.416770703526026,-0.3347818325084449,tremor
120,6387856,1.03,-0.9782188917878718,0.3534655492404894,-0.9665099965819419,-19.53341379173722,24.164464417699982,-3.921740527459209,tremor
121,6387861,1.035,-0.9777173515049997,0.3580638480157875,-0.9689945342407573,-14.771137379958862,22.980671229994673,-7.557456033230383,tremor
122,6387866,1.04,-0.9766085218013587,0.3618309475263052,-0.9711988374171812,-10.007450279525859,21.87047217597976,-11.231723846387641,tremor
123,6387871,1.045,-0.9748775980567024,0.364752335122363,-0.9731014087765943,-5.258898847610802,20.8387434601315,-14.933946922647594,tremor
124,6387876,1.05,-0.9725138329510364,0.36681641207654897,-0.9746820614269105,-0.5420330335358484,19.890104853715496,-18.653203780104924,tremor
125,6387881,1.055,-0.9695106503400821,0.36801456863738047,-0.9759221575643543,4.126707938515534,19.028865172847738,-22.37831967049615,tremor
126,6387886,1.06,-0.965865695076141,0.3683412333066862,-0.9768048288734975,8.731111661907281,18.25896530131373,-26.09794011654335,tremor
127,6387896,1.07,-0.9615808190606188,0.36779389615241465,-0.9773151802221647,13.255309312355259,17.583919777439142,-29.80060612424525,tremor
128,6387906,1.08,-0.956662006715496,0.36637310622063146,-0.9774404783181242,17.68389158623113,17.006758406537553,-33.47483035680256,tremor
129,6387939,1.113,-0.9511192455058928,0.3640824432751112,-0.9771703263279491,22.002022032671558,16.529969638301473,-37.10917353510867,tremor
130,6387944,1.118,-0.9449663488223331,0.3609284642401026,-0.9764968241114946,26.195545909381277,16.155447531225644,-40.692320339493286,tremor
131,6387949,1.123,-0.938220739275487,0.35692062495830584,-0.975414712038347,30.25109280055443,15.884444044859682,-44.21315413478375,tremor
132,6387963,1.137,-0.9309032003589701,0.35207117830590373,-0.9739214948723841,34.15617146547709,15.717528246002736,-47.66082990569039,tremor
133,6387968,1.142,-0.9230376038182093,0.3463950503561427,-0.9720175414567715,37.8992556335447,15.654553870756361,-51.02484485028464,tremor
134,6387973,1.147,-0.9146506193042918,0.33990969705320806,-0.9697061561088971,41.46985967256555,15.694636566354445,-54.29510612963632,tremor
135,6387978,1.152,-0.905771412258801,0.33263494456090387,-0.9669936185752176,44.85860323933782,15.836142002773252,-57.46199531252615,tremor
136,6387982,1.156,-0.896431335566467,0.3245928169101078,-0.963889190745836,48.05726419600211,16.076685848583747,-60.51642908263571,tremor
137,6387987,1.161,-0.8866636202825743,0.3158073547037714,-0.9604050897515807,51.05881925065784,16.4131463303939,-63.449915787686976,tremor
138,6387992,1.166,-0.8765030705672607,0.30630442846959643,-0.956556428326785,53.85747195642538,16.84168974423249,-66.25460740679337,tremor
139,6388002,1.176,-0.8659857676978491,0.2961115498572288,-0.9523611242784271,56.44866788198002,17.35780887194195,-68.92334650019502,tremor
140,6388006,1.18,-0.8551487875650137,0.28525768335089624,-0.9478397814861721,58.82909695382542,17.956373794473972,-71.44970769340175,tremor
141,6388011,1.185,-0.8440299353107795,0.2737730605956923,-0.9430155450495588,60.996683170471655,18.63169411794557,-73.82803324462353,tremor
142,6388021,1.195,-0.8326674997081271,0.2616889988908255,-0.9379139330231193,62.95056210093962,19.37759117925201,-76.05346225707889,tremor
143,6388058,1.232,-0.8211000285524398,0.2490377249447378,-0.9325626467067097,64.69104679703139,20.187478416476026,-78.1219531286057,tremor
144,6388063,1.237,-0.8093661248618994,0.2358522046486034,-0.9269913608088872,66.21958295617917,21.054447806926248,-80.03029887909949,tremor
145,6388067,1.241,-0.7975042622859441,0.2221659794050576,-0.9212314941554444,67.53869435449043,21.971360119610743,-81.7761350632568,tremor
146,6388072,1.246,-0.7855526170507412,0.20801300941273732,-0.9153159611788526,68.65191972063523,22.93093672002188,-83.35794006765741,tremor
147,6388077,1.251,-0.7735489132031652,0.19342752420665768,-0.90927890435327,69.56374234281714,23.925850799499894,-84.77502771027872,tremor
148,6388082,1.256,-0.7615302778681101,0.17844388065931358,-0.9031554080769401,70.27951379843049,24.948816143522397,-86.02753220064146,tremor
149,6388087,1.261,-0.7495331035975489,0.16309642855550935,-0.8969811951893432,70.80537326972618,25.992671855078477,-87.11638566802887,tremor
150,6388092,1.266,-0.7375929155156532,0.1474193837788658,-0.8907923082415972,71.14816395428197,27.050461772537158,-88.04328861455001,tremor
151,6388096,1.27,-0.7257442417315247,0.13144670910326492,-0.8846247787144803,71.31534809028405,28.115507640892467,-88.81067379510522,tremor
152,6388106,1.28,-0.7140204863189501,0.11521200257397968,-0.8785142885081616,71.31492208643962,29.18147539324231,-89.42166416432445,tremor
153,6388111,1.285,-0.7024538049997162,0.09874839348550958,-0.8724958291216546,71.15533316221773,30.242434163580825,-89.88002565435139,tremor
154,6388115,1.289,-0.6910749844753643,0.08208844599711924,-0.8666033649017404,70.84539874741361,31.292907875748217,-90.19011564416917,tremor
155,6388120,1.294,-0.6799133270927277,0.0652640704427003,-0.8608695074686049,70.39422964613661,32.327919432451125,-90.35682803525283,tremor
156,6388125,1.299,-0.6689965431544318,0.04830644235885495,-0.8553252088245198,69.81115764404647,33.34302765404061,-90.38553584877218,tremor
157,6388135,1.309,-0.6583506536417352,0.031245929156912898,-0.849999480652,69.10566785878594,34.33435717117477,-90.2820322063263,tremor
158,6388145,1.319,-0.6479999063351363,0.014112024203176705,-0.8449191468628354,68.28733575016098,35.29862143349528,-90.05247045993337,tremor
159,6388150,1.324,-0.6379667082027788,-0.0030667121287990297,-0.8401086355330951,67.36576838035869,36.23313883559648,-89.70330411764556,tremor
160,6388155,1.329,-0.6282715763549429,-0.02026270505947375,-0.8355898149197228,66.35054931580088,37.1358416777515,-89.24122709679507,tremor
161,6388181,1.355,-0.6189331087295699,-0.03744941238752551,-0.8313818763002455,65.25118654436555,38.0052773055599,-88.67311475521835,tremor
162,6388186,1.36,-0.6099679739885039,-0.05460136652839435,-0.8275012639966102,64.07706293941946,38.840600397292874,-88.00596611359279,tremor
163,6388191,1.365,-0.6013909180860454,-0.07169421202174756,-0.8239616503722459,62.837389056732405,39.64155513024692,-87.24684767746227,tremor
164,6388196,1.37,-0.5932147830413242,-0.0887047385009382,-0.8207739511948624,61.541158289623446,40.40844600349698,-86.40283927078717,tremor
165,6388201,1.375,-0.5854505320693197,-0.10561090863148581,-0.8179463749095641,60.19710455546445,41.142096487577106,-85.48098228537526,tremor
166,6388205,1.379,-0.5781072747110391,-0.12239188010184845,-0.8154844982986342,58.81366273975891,41.84379534937394,-84.48823073042301,tremor
167,6388210,1.384,-0.5711922860266616,-0.13902802049859397,-0.8133913607644235,57.39893212566392,42.51523133149819,-83.43140544310153,tremor
168,6388225,1.399,-0.5647110151858258,-0.15550091388987963,-0.8116675699957039,55.960643027756646,43.15841773160329,-82.31715180371391,tremor
169,6388235,1.409,-0.5586670807388683,-0.17179335820006902,-0.8103114129588727,54.50612684598401,43.77560924147678,-81.15190128850669,tremor
170,6388245,1.419,-0.5530622522585186,-0.18788935296032688,-0.8093189678578261,53.04228975667731,44.36921408279003,-79.9418371813278,tremor
171,6388254,1.428,-0.5478964206049887,-0.20377407769165412,-0.8086842147439899,51.575590247452986,44.94170491973798,-78.69286473644856,tremor
172,6388259,1.433,-0.543167561421733,-0.21943386190357486,-0.8083991445801019,50.11202066047176,45.495532156535745,-77.41058602201112,tremor
173,6388265,1.439,-0.5388716982424465,-0.2348561483441418,-0.8084538684721807,48.65709281886094,46.033043009751644,-76.10027956642742,tremor
174,6388270,1.444,-0.5350028724938243,-0.2500294516058064,-0.8088367301982625,47.215827681093025,46.55640921544562,-74.76688478238036,tremor
175,6388275,1.449,-0.5315531275668715,-0.26494331441116836,-0.8095344258694701,45.79274883087247,47.067565464629794,-73.41499097416086,tremor
176,6388279,1.453,-0.5285125129988469,-0.2795882638502994,-0.8105321344609134,44.39187951193619,47.56815974199177,-72.04883057269873,tremor
177,6388308,1.482,-0.5258691127672968,-0.2939557695230931,-0.8118136620568791,43.01674289830006,48.059515750596645,-70.67227611821488,tremor
178,6388318,1.492,-0.5236090989698452,-0.30803820497928197,-0.8133616010693947,41.67036536630527,48.54260663397531,-69.28884044628984,tremor
179,6388323,1.497,-0.5217168091447082,-0.3218288130957357,-0.8151575036241332,40.35528267829916,49.01803840366891,-67.90167954040993,tremor
180,6388327,1.501,-0.5201748427619813,-0.33532167518412764,-0.8171820661070025,39.073549131652946,49.48604102241301,-66.51359758457708,tremor
181,6388337,1.511,-0.5189641705917751,-0.3485116828282287,-0.8194153199459709,37.826749805561654,49.94646508234964,-65.12705385690545,tremor
182,6388347,1.521,-0.5180642500976747,-0.36139451086261287,-0.8218368224207173,36.6160160346141,50.39878239949743,-63.744171220617396,tremor
183,6388352,1.526,-0.5174531407214157,-0.37396658963594404,-0.8244258408461236,35.442044179944546,50.8420894574192,-62.36674607896134,tremor
184,6388357,1.531,-0.5171076146654748,-0.38622507480076046,-0.8271615239112852,34.30511768611577,51.2751133109146,-60.99625976496556,tremor
185,6388361,1.535,-0.5170032611828106,-0.398167813320751,-0.8300230552046248,33.20513231307629,51.69622019280122,-59.63389143343057,tremor
186,6388381,1.555,-0.5171145850669838,-0.4097933051091249,-0.8329897858450097,32.14162431035869,52.10342758636438,-58.28053260047008,tremor
187,6388386,1.56,-0.5174151026300775,-0.4211006605866932,-0.8360413453941841,31.113801147732694,52.49442088246204,-56.93680351855993,tremor
188,6388391,1.565,-0.5178774405742268,-0.4320895553326508,-0.8391577324798027,30.120574238291447,52.866575868813214,-55.603071560573355,tremor
189,6388400,1.574,-0.5184734443904989,-0.4427601837514743,-0.8423193883866369,29.16059291374137,53.21698812131231,-54.27947169416985,tremor
190,6388428,1.602,-0.5191743028963569,-0.45311321417345524,-0.8455072578993288,28.232278785819997,53.54250984639464,-52.96592895967135,tremor
191,6388433,1.607,-0.5199506941047198,-0.4631497479570784,-0.8487028417134075,27.333859608193062,53.83979392694171,-51.6621826598099,tremor
192,6388438,1.612,-0.5207729549964213,-0.47287128491859015,-0.8518882438445711,26.463401876747326,54.1053440348603,-50.36781179519962,tremor
193,6388443,1.617,-0.5216112744683801,-0.48227969677109755,-0.8550462159588442,25.618841657935576,54.335568931766254,-49.08226119348308,tremor
194,6388448,1.622,-0.5224359054393054,-0.4913772092725888,-0.8581601988280833,24.79801344028151,54.526838673733465,-47.80486779713606,tremor
195,6388462,1.636,-0.5232173894175209,-0.5001663925999084,-0.8612143595762538,23.998677070899475,54.675540418268454,-46.53488666077398,tremor
196,6388467,1.641,-0.5239267851549854,-0.5086501582874787,-0.8641936223173545,23.218543012507276,54.77813183205086,-45.27151631481525,tremor
197,6388472,1.646,-0.5245358925172106,-0.516831760124588,-0.8670836893890737,22.455296235298245,54.83119060410649,-44.01392325025969,tremor
198,6388482,1.656,-0.5250174634423275,-0.524714795896059,-0.8698710507491811,21.706619067934664,54.83145917549596,-42.76126536461012,tremor
199,6388487,1.661,-0.5253453937390191,-0.5323032068879799,-0.8725429801876066,20.97021329966065,54.77588441318829,-41.512714284189975,tremor
200,6388492,1.666,-0.525494892178808,-0.5396012726361001,-0.8750875186280277,20.24382176686715,54.661652503503966,-40.2674765413447,tremor
201,6388497,1.671,-0.525442626404607,-0.5466135993248816,-0.8774934466417516,19.52524957256489,54.48621975249554,-39.0248136287153,tremor
202,6388501,1.675,-0.5251668480882344,-0.5533451013528354,-0.8797502500367742,18.81238496577977,54.24734021596703,-37.78406096724502,tremor
203,6388521,1.695,-0.5246475020823334,-0.5598009766757892,-0.8818480837330477,18.103219744793556,53.94309113246161,-36.54464580153823,tremor
204,6388526,1.7,-0.5238663256969459,-0.5659866774693162,-0.8837777398790799,17.395868861686367,53.57189699920127,-35.30610397149687,tremor
205,6388554,1.728,-0.5228069444292901,-0.5719078782872627,-0.8855306261258128,16.688588747094176,53.132552797403136,-34.06809540705484,tremor
206,6388559,1.733,-0.5214549693129196,-0.5775704441298883,-0.8870987590073498,15.979793812496533,52.62424634096758,-32.830418074285944,tremor
207,6388568,1.742,-0.5197980986090777,-0.5829804006186293,-0.8884747754862684,15.268070663446137,52.04657909182485,-31.5930200086216,tremor
208,6388574,1.748,-0.5178262233300333,-0.5881439078475641,-0.8896519631709089,14.552189744542614,51.39958426382825,-30.356009050280786,tremor
209,6388578,1.752,-0.5155315328449487,-0.5930672385927862,-0.8906243069972142,13.83111435656303,50.68374081484953,-29.11965996042196,tremor
210,6388583,1.757,-0.5129086143083647,-0.597756760619712,-0.8913865478218539,13.104007161057845,49.89998204963558,-27.884418709966248,tremor
211,6388588,1.762,-0.509954538306994,-0.6022189220375981,-0.8919342467992974,12.370234383579652,49.049697932776276,-26.650903850769105,tremor
212,6388593,1.767,-0.5066689230626701,-0.6064602381556247,-0.8922638488261171,11.629367950824749,48.13473070751226,-25.41990498061488,tremor
213,6388598,1.772,-0.5030539706624084,-0.6104872781687939,-0.8923727387701389,10.881185773857412,47.15736392915891,-24.192378403611162,tremor
214,6388607,1.781,-0.4991144708925232,-0.6143066502531246,-0.8922592855641045,10.125670341576566,46.120305500238814,-22.969440173068435,tremor
215,6388622,1.796,-0.49485777103656686,-0.6179249842330717,-0.8919228713369991,9.363005729199191,45.026665713657714,-21.75235678302295,tremor
216,6388632,1.806,-0.4902937130774351,-0.6213489118067733,-0.891363905291282,8.593573057956277,43.87993162723614,-20.542533834627793,tremor
217,6388646,1.82,-0.48543454262564334,-0.624585045236549,-0.8905838246042025,7.81794435626722,42.6839392199921,-19.34150302214329,tremor
218,6388674,1.848,-0.4802947959739952,-0.6276399562506462,-0.8895850867222913,7.036874668334739,41.44284461715608,-18.150907737967906,tremor
219,6388679,1.853,-0.47489117239377143,-0.6305201574587488,-0.8883711585270961,6.251292167213102,40.161095186902195,-16.972487489363022,tremor
220,6388684,1.858,-0.4692423979005371,-0.6332320886951159,-0.886946507681512,5.462286020797795,38.84340062006616,-15.808061194567761,tremor
221,6388688,1.862,-0.46336908449644654,-0.6357821102999234,-0.885316600065075,4.671091871706155,37.49470343444358,-14.659509346599883,tremor
222,6388693,1.867,-0.4572935860005937,-0.6381765044863968,-0.8834879049252211,3.8790749931166277,36.1201479113396,-13.5287550356971,tremor
223,6388703,1.877,-0.4510398487349208,-0.6404214847795426,-0.8814679067059005,3.0877113885114205,34.725046355264,-12.417743890932776,tremor
224,6388708,1.882,-0.44463325308680274,-0.6425232122662445,-0.8792651199548139,2.2985672479639145,33.31484172651415,-11.328423095091317,tremor
225,6388713,1.887,-0.4381004406558969,-0.6444878162864589,-0.8768891016743228,1.5132772458902133,31.895066047790024,-10.262719712614231,tremor
226,6388717,1.891,-0.4314691214888054,-0.6463214164137933,-0.8743504542879648,0.7335221891869019,30.47129445199142,-9.222518641633203,tremor
227,6388727,1.901,-0.4247678568362167,-0.6480301422486202,-0.8716608122192464,-0.03899347355624078,29.049095251321017,-8.209640564448073,tremor
228,6388732,1.906,-0.4180258147901283,-0.6496201477088559,-0.8688328059195589,-0.802563777010603,27.633976911418266,-7.225820330085197,tremor
229,6388737,1.911,-0.4112724987835214,-0.6510976170901439,-0.8658799988804814,-1.5555025026450127,26.231333258942854,-6.272686251636359,tremor
230,6388742,1.916,-0.4045374518912317,-0.6524687610593706,-0.8628167954663202,-2.2961631024290026,24.846388585185093,-5.3517408273910005,tremor
231,6388747,1.921,-0.3978499427793324,-0.6537398018057001,-0.8596583200001207,-3.0229568434780587,23.48414448881333,-4.464343387494909,tremor
232,6388752,1.926,-0.39123864166957134,-0.6549169476689595,-0.856420270114709,-3.73436881243516,22.149330315567518,-3.6116951219572972,tremor
233,6388756,1.93,-0.3847312965314219,-0.6560063585810141,-0.8531187496521131,-4.428971543208978,20.846358918031676,-2.794826860138789,tremor
234,6388761,1.935,-0.37835442067184266,-0.6570141045025119,-0.8497700881318379,-5.105436195294486,19.579289192616766,-2.0145898470112873,tremor
235,6388771,1.945,-0.3721330028259101,-0.6579461196555368,-0.8463906548504047,-5.762541389587867,18.35179645620017,-1.2716496015530803,tremor
236,6388798,1.972,-0.3660902497040124,-0.6588081557063239,-0.8429966759163408,-6.399179971520345,17.167151199670304,-0.5664827592206,tremor
237,6388803,1.977,-0.3602473687562135,-0.6596057371130262,-0.8396040619082009,-7.014364077612226,16.0282061252604,0.1006233819896486,tremor
238,6388812,1.986,-0.3546233958519113,-0.6603441215909014,-0.8362282523815093,-7.607228893286409,14.937390723878767,0.7295690339272929,tremor
239,6388817,1.991,-0.34923506903824,-0.661028268046386,-0.832884081287699,-8.177035395909783,13.896712116337955,1.32043828992875,tremor
240,6388822,1.996,-0.34409674610357377,-0.6616628134379577,-0.829585664815011,-8.72317221660983,12.907760597643122,1.8734941383140806,tremor
241,6388827,2.001,-0.33922036090494195,-0.6622520589669135,-0.8263463106457061,-9.245156600030269,11.971718336691286,2.389172453389696,tremor
242,6388832,2.006,-0.3346154117197845,-0.6627999649719413,-0.8231784455719618,-9.742634347372144,11.089369956088756,2.8680751709149037,tremor
243,6388852,2.026,-0.33028897441903093,-0.6633101530768045,-0.8200935571406858,-10.215378602239763,10.261114160063789,3.3109627357067306,tremor
244,6388857,2.031,-0.3262457339911915,-0.6637859136458426,-0.8171021446605743,-10.663287360989054,9.486976093422076,3.7187458076214415,tremor
245,6388862,2.036,-0.32248802966646445,-0.6642302164923323,-0.8142136754894643,-11.086379642809318,8.76662060701624,4.092476131761153,tremor
246,6388867,2.041,-0.3190159112334592,-0.6646457230440523,-0.8114365438570467,-11.484790333592816,8.099366994645896,4.433336429313005,tremor
247,6388876,2.05,-0.31582720665015285,-0.6650347987185355,-0.8087780312807974,-11.858763817340659,7.484206000097766,4.742629157672819,tremor
248,6388881,2.055,-0.312917603271978,-0.6653995249710514,-0.8062442695587995,-12.208646619046405,6.919819951486089,5.021764024427436,tremor
249,6388891,2.065,-0.3102807465802075,-0.6657417112050185,-0.8038402090298249,-12.534879384138405,6.404606758249087,5.272244213188664,tremor
250,6388896,2.07,-0.30790836091366147,-0.666062907336841,-0.8015695959759084,-12.837988582536907,5.936708201681274,5.495651380931323,tremor
251,6388922,2.096,-0.3057903962129548,-0.6663644181709225,-0.7994349634801927,-13.118578318641097,5.514042482234233,5.69362960382254,tremor
252,6388927,2.101,-0.3039152031737473,-0.666647320795685,-0.7974376396473014,-13.37732253667041,5.134340426289353,5.867868562423601,tremor
253,6388932,2.106,-0.30226973671939006,-0.6669124859492574,-0.7955777759297757,-13.614957754562589,4.795184225818531,6.020086343090315,tremor
254,6388937,2.111,-0.3008397848409857,-0.667160603785927,-0.7938543966458836,-13.832276294620929,4.494047223543739,6.1520122699179325,tremor
255,6388941,2.115,-0.29961021720147424,-0.6673922138178721,-0.7922654689718563,-14.030119862885574,4.228333143418423,6.265370167287259,tremor
256,6388947,2.121,-0.29856524590954225,-0.6676077381445256,-0.7908079910522995,-14.209373285747594,3.9954132852923196,6.361862402827818,tremor
257,6388951,2.125,-0.2976886897485425,-0.6678075165306446,-0.7894780945918293,-14.370958228492043,3.792660478476474,6.443154995405353,tremor
258,6388956,2.13,-0.29696423292215635,-0.667991841537511,-0.7882711574664295,-14.515826769216861,3.6174789483839698,6.5108640044469,tremor
259,6388961,2.135,-0.2963756699852423,-0.668160991794268,-0.787181921555394,-14.644954761544447,3.4673296433601473,6.566543348146629,tremor
260,6388971,2.145,-0.295907129941987,-0.6683152616220084,-0.7862046111229206,-14.759334979633906,3.339750958742832,6.611674130224507,tremor
261,6388976,2.15,-0.29554327433972066,-0.6684549855608672,-0.7853330476095167,-14.859970095854981,3.2323751496778206,6.647655493222256,tremor
262,6388981,2.155,-0.29526946634285767,-0.6685805568446138,-0.7845607575350135,-14.947865594824302,3.1429410116518084,6.675796969329927,tremor
263,6389000,2.174,-0.29507190997654964,-0.6686924394461111,-0.783881071254228,-15.024022774835256,3.0693035998762603,6.697312274715111,tremor
264,6389005,2.179,-0.29493776070434147,-0.6687911738981487,-0.7832872114136044,-15.089432020833575,3.0094418358151347,6.713314491789939,tremor
265,6389010,2.184,-0.29485520997569165,-0.6688773775916356,-0.7827723709907194,-15.14506653826628,2.961464799831636,6.7248126009506555,tremor
266,6389019,2.193,-0.29481354711997254,-0.6689517405889132,-0.7823297816205154,-15.191876700557202,2.9236173307638103,6.732709351138185,tremor
267,6389045,2.219,-0.29480320185641884,-0.6690150181130917,-0.7819527734238779,-15.230785081002214,2.8942852656213023,6.737800489275881,tremor
268,6389055,2.229,-0.29481576979788116,-0.6690680207809055,-0.7816348277315096,-15.262682126757428,2.8720003075788942,6.740775395187332,tremor
