sample,t_ms,t_s,ax,ay,az,gx,gy,gz,tremor
0,7687556,0.0,-0.20418670664658078,-0.29907657704440327,-0.9564753051244583,-13.564056808893318,17.922490781632654,-1.4379567625121534,tremor
1,7687561,0.005,-0.20386985117833042,-0.29767185401557233,-0.958613812342892,-12.373192966664154,15.043917533578483,-1.6241167395893306,tremor
2,7687566,0.01,-0.20361053123410683,-0.2957887199013629,-0.9615033469174363,-11.132566475168582,12.110941809148025,-1.848047555039191,tremor
3,7687571,0.015,-0.20351947488647062,-0.2934232049634818,-0.9651627441649633,-9.842618795320593,9.127458647045808,-2.1107419732647403,tremor
4,7687575,0.019,-0.20372589397362534,-0.2906692912964051,-0.9694591623635794,-8.504079226545295,6.09752361401843,-2.4129901355877617,tremor
5,7687580,0.024,-0.20434478446221527,-0.2876654397474592,-0.9741869230266024,-7.117977727588893,3.025319857180698,-2.7553614341055908,tremor
6,7687585,0.029,-0.20546260038839909,-0.2845500082114143,-0.979135327667076,-5.685654396447526,-0.08488263003849045,-3.1381863877283407,tremor
7,7687590,0.034,-0.20713699934773236,-0.2814398555241583,-0.9841223180282419,-4.208765195235149,-3.2287759435975163,-3.561538646956498,tremor
8,7687595,0.039,-0.20940234362309207,-0.278425494852954,-0.9890030477359052,-2.6892835438783615,-6.402071610129227,-4.025217292853519,tremor
9,7687600,0.044,-0.21227582079035537,-0.2755740444051917,-0.9936662835886624,-1.1294974566589555,-9.600566293155238,-4.528729637693369,tremor
10,7687604,0.048,-0.215762246645727,-0.27293439076628107,-0.9980270995053274,0.4679980387363871,-12.820215553285111,-5.0712747765362876,tremor
11,7687609,0.053,-0.21985729950944438,-0.27054203330336724,-1.0020198016908368,2.1003133763463557,-16.057215063283564,-5.651728178893011,tremor
12,7687614,0.058,-0.22454951944016802,-0.26842283164824926,-1.0055923621303342,3.764281895530778,-19.308088378608645,-6.268627646206639,tremor
13,7687619,0.063,-0.22982148304840253,-0.26659564038144323,-1.0087024522798391,5.4564822074392225,-22.569780055974014,-6.920160991503473,tremor
14,7687624,0.068,-0.23565047980373752,-0.26507405748370005,-1.011314774348578,7.173265304538409,-25.839752600990213,-7.604155819507502,tremor
15,7687650,0.094,-0.24200891132266306,-0.2638675383416467,-1.0133993314682002,8.910786089508656,-29.11608541626869,-8.318071797519403,tremor
16,7687655,0.099,-0.24886455317349918,-0.26298208225500097,-1.0149303357316197,10.665038853540535,-32.39757362251049,-9.058995809821145,tremor
17,7687660,0.104,-0.25618076351750085,-0.2624206430488636,-1.0158855315789395,12.431896097535502,-35.683824353922134,-9.82364038201098,tremor
18,7687664,0.108,-0.2639166882849116,-0.2621833688655,-1.016245779894045,14.207149978105058,-38.97534790717901,-10.608345746669794,tremor
19,7687669,0.113,-0.2720274916339825,-0.2622677419369688,-1.0159947988741553,15.986555582661792,-42.273640961405455,-11.409085898678345,tremor
20,7687674,0.118,-0.28046462792524074,-0.2626686653965352,-1.0151189930882425,17.76587519061797,-45.58125897737532,-12.221478959452487,tremor
21,7687679,0.123,-0.28917616393090945,-0.26337852822572133,-1.0136073259224705,19.540922649085736,-48.90187481080546,-13.040802136799158,tremor
22,7687689,0.133,-0.29810715539034144,-0.2643872688354442,-1.0114512063209304,21.30760697170128,-52.24032052921578,-13.86201153136369,tremor
23,7687694,0.138,-0.3072000790788663,-0.26568245073655306,-1.0086443710518906,23.061974255275892,-55.602609410168085,-14.67976699925536,tremor
24,7687699,0.143,-0.3163953195687993,-0.26724935901379443,-1.0051827505598954,24.800247004216427,-58.9959351350138,-15.488462229662339,tremor
25,7687704,0.148,-0.32563170842786315,-0.26907112304382996,-1.0010643110847264,26.518859963284797,-62.42864529266659,-16.282260133131334,tremor
26,7687713,0.157,-0.3348471124962727,-0.271128868551734,-0.9962888689810518,28.214491590004286,-65.91018648605416,-17.055133559621236,tremor
27,7687718,0.162,-0.34397906697231295,-0.273401900336902,-0.9908578755936761,29.884090350312896,-69.45101860264,-17.80091127605687,tremor
28,7687723,0.167,-0.35296544822243325,-0.27586791560146073,-0.9847741729639957,31.524895095403426,-73.06249619005968,-18.513329031767494,tremor
29,7687728,0.172,-0.36174518044273396,-0.27850324664657705,-0.9780417222628758,33.13444887581385,-76.75671539847708,-19.186085426709475,tremor
30,7687732,0.176,-0.37025896947791587,-0.2812831306809448,-0.970665308280626,34.71060567211588,-80.54632563678315,-19.81290217102147,tremor
31,7687737,0.181,-0.37845005621062705,-0.28418200356110107,-0.9626502246223781,36.25152966779916,-84.4443059400629,-20.387588185621173,tremor
32,7687774,0.218,-0.38626498094301687,-0.28717381342846415,-0.9540019454899029,37.75568685281239,-88.46370703977148,-20.904106844298006,tremor
33,7687783,0.227,-0.39365434909461366,-0.29023234942032045,-0.9447257910777687,39.2218289182887,-92.61736124473137,-21.356645501935105,tremor
34,7687788,0.232,-0.4005735873550511,-0.29333157994165554,-0.9348265946209977,40.648969580122646,-96.9175634713492,-21.73968629845628,tremor
35,7687793,0.237,-0.40698367821580883,-0.29644599445400094,-0.9243083798978454,42.03635365192388,-101.3757280955602,-22.04807708561877,tremor
36,7687803,0.247,-0.4128518596599405,-0.299550942429899,-0.9131740584027443,43.38341937871,-106.00202770096294,-22.27710120576597,tremor
37,7687807,0.251,-0.4181522758262553,-0.3026229630608615,-0.9014251554100338,44.689754741469834,-110.80502119409597,-22.42254476427161,tremor
38,7687812,0.256,-0.4228665637875277,-0.3056400994668497,-0.8890615737799745,45.9550486468702,-115.79128004923211,-22.48075998155055,tremor
39,7687817,0.261,-0.42698436127129263,-0.3085821914856203,-0.8760814036881792,47.17903812288519,-120.96502252297306,-22.44872318763931,tremor
40,7687822,0.266,-0.4305037202603989,-0.31143114157198565,-0.8624807855595388,48.361452847033206,-126.32776644127988,-22.32408603809423,tremor
41,7687827,0.271,-0.4334314119640307,-0.31417114887322195,-0.8482538324129122,49.50195853477691,-131.87801152854053,-22.10521859335496,tremor
42,7687832,0.276,-0.4357831096524863,-0.31678890714248586,-0.8333926166123403,50.60010090343472,-137.61096217480275,-21.7912430244843,tremor
43,7687836,0.28,-0.43758343730174964,-0.31927376279250724,-0.817887224697868,51.65525208802626,-143.51830101424102,-21.38205689303774,tremor
44,7687841,0.285,-0.43886587391198145,-0.3216178300714577,-0.8017258825437957,52.66656149995458,-149.5880227306059,-20.8783452015631,tremor
45,7687846,0.29,-0.4396725057787986,-0.3238160610634302,-0.7848951515671975,53.63291316348053,-155.80433613984403,-20.281580714902525,tremor
46,7687851,0.295,-0.4400536219396134,-0.32586626898340004,-0.7673801950904624,54.55289151523332,-162.14764085847307,-19.594012394730818,tremor
47,7687855,0.299,-0.4400671515030422,-0.32776910405805215,-0.7491651122625432,55.42475749019922,-168.5945827917879,-18.818642150480606,tremor
48,7687860,0.304,-0.43977794558521666,-0.32952798216590723,-0.7302333351882505,56.24643643419579,-175.11819032856954,-17.959190468659347,tremor
49,7687865,0.309,-0.4392569110847893,-0.33114896735783655,-0.710568083136309,57.01551897982109,-181.6880905867415,-17.02005182129071,tremor
50,7687870,0.314,-0.4385800084612523,-0.33264061039521636,-0.6901528659370685,57.72927551365772,-188.27080240909845,-16.00624105567211,tremor
51,7687897,0.341,-0.43782713092406933,-0.3340137465251205,-0.6689720269926386,58.3846842695538,-194.8301001649806,-14.923332211785073,tremor
52,7687902,0.346,-0.43708088776589793,-0.33528125684024174,-0.6470113147800867,58.97847244289687,-201.32743992065014,-13.777391374865125,tremor
53,7687907,0.351,-0.4364253195301595,-0.3364577986867596,-0.6242584704469203,59.50716909919101,-207.72243743679002,-12.574905222792873,tremor
54,7687912,0.356,-0.4359445766029432,-0.3375595115790415,-0.6007038182281349,59.9671681354728,-213.97338602522947,-11.322706861428218,tremor
55,7687917,0.361,-0.43572159497771024,-0.3386037058310172,-0.5763408450848739,60.35479921358776,-220.03780171145263,-10.027900379934314,tremor
56,7687922,0.366,-0.4358368030110573,-0.3396085415287134,-0.5511667562134159,60.66640442881706,-225.8729833124515,-8.697785355774975,tremor
57,7687926,0.37,-0.43636689105418003,-0.3405927055121021,-0.5251829938340722,60.898418468088515,-231.43657570004206,-7.339782349029706,tremor
58,7687931,0.375,-0.43738367226462066,-0.34157509371775857,-0.49839570782283443,61.047450106779145,-236.68712545501708,-5.961360278141296,tremor
59,7687936,0.38,-0.43895305812389995,-0.34257450559509645,-0.470816168169771,61.11036306322553,-241.58461919939984,-4.569966469265958,tremor
60,7687941,0.385,-0.4411341666606652,-0.34360935640400886,-0.4424611108288011,61.0843544522734,-246.09099604826022,-3.1729601073813956,tremor
61,7687946,0.39,-0.4439785755292779,-0.34469741209714927,-0.4133530101753354,60.96702932820252,-250.1706267900247,-1.777549767999973,tremor
62,7687951,0.395,-0.4475297262967124,-0.34585555025732684,-0.38352027294385127,60.756470057122456,-253.79075353486095,-0.3907356504427553,tremor
63,7687956,0.4,-0.4518224808664134,-0.34709954927263337,-0.3529973501287586,60.45129948656897,-256.9218846292178,0.9807429500231734,tremor
64,7687965,0.409,-0.4568828261783621,-0.3484439066627027,-0.32182476486729844,60.050737068696776,-259.5381406049472,2.3304545097420637,tremor
65,7687975,0.419,-0.4627277193804676,-0.34990168629553886,-0.29004905576546874,59.55464723437411,-261.6175478173296,3.6523162068566957,tremor
66,7687980,0.424,-0.46936506273093925,-0.35148439323818914,-0.25772263647460963,58.963579408883774,-263.14227725005185,4.9406287998086675,tremor
67,7687985,0.429,-0.4767937956600763,-0.3532018742488782,-0.22490357358874255,58.27879911487907,-264.0988267646256,6.190105508646704,tremor
68,7687989,0.433,-0.48500409067689904,-0.35506224150488214,-0.19165528613250268,57.502309640941434,-264.47814588919505,7.395895117822228,tremor
69,7688022,0.466,-0.4939776399993389,-0.35707181708480495,-0.15804617107281774,56.63686378545873,-264.27570310464023,8.553599671059276,tremor
70,7688032,0.476,-0.5036880206491252,-0.35923509594144243,-0.12414916043170221,55.68596524076977,-263.49149648920957,9.65928725896884,tremor
71,7688036,0.48,-0.5141011269465767,-0.36155472550835327,-0.09004121668206322,54.653859290665096,-262.1300094832448,10.709500488471466,tremor
72,7688041,0.485,-0.5251756605218026,-0.36403150053473676,-0.055802774095861755,53.545512677074804,-260.200114367017,11.701261244463359,tremor
73,7688051,0.495,-0.536863668872818,-0.3666643720986135,-0.02151713447921967,52.366582742562166,-257.7149267542835,12.632072300886104,tremor
74,7688056,0.5,-0.5491111240658948,-0.36945046992668285,0.012730173801174919,51.12337623436279,-254.6916149772386,13.499916234122008,tremor
75,7688060,0.504,-0.5618585334697964,-0.3723851371504771,0.046852064435064886,49.82279841300812,-251.15116868727446,14.303251974599716,tremor
76,7688065,0.509,-0.5750415745971709,-0.3754619765083839,0.08076058048410473,48.47229330944253,-247.11813133271988,15.041009229447814,tremor
77,7688070,0.514,-0.5885917463341096,-0.37867290683487587,0.11436759180777964,47.07977610775383,-242.62030140796475,15.712580927047627,tremor
78,7688085,0.529,-0.6024370291616747,-0.3820082285279166,0.14758549454743364,45.65355870292999,-237.68840751617057,16.317813767830163,tremor
79,7688089,0.533,-0.6165025474465103,-0.3854566966045226,0.18032790526161863,44.20226950962536,-232.355762378932,16.856996906433764,tremor
80,7688099,0.543,-0.630711227496018,-0.38900559998049433,0.21251034298976534,42.73476859316553,-226.65790098551957,17.330848734267214,tremor
81,7688104,0.548,-0.6449844457998954,-0.392640845764477,0.24405089317826392,41.260059170282744,-220.63220811049004,17.740501679194274,tremor
82,7688108,0.552,-0.6592426626485532,-0.3963470476332112,0.2748708479804193,39.78719650259891,-214.31754043617562,18.087484891858953,tremor
83,7688113,0.557,-0.6734060370441761,-0.4001076177156057,0.30489531790198676,38.32519520661397,-207.75384848655068,18.37370464581791,tremor
84,7688118,0.562,-0.6873950194154164,-0.4039048617972886,0.33405381008720986,36.88293605042699,-200.98180350505234,18.601422240925192,tremor
85,7688145,0.589,-0.7011309190477237,-0.40772007800251986,0.3622807687252576,35.469073402779486,-194.04243428282922,18.77322916904909,tremor
86,7688150,0.594,-0.7145364433259009,-0.4115336593680975,0.3895160731296152,34.09194463000767,-186.9767787347928,18.89201928576686,tremor
87,7688154,0.598,-0.7275362058927769,-0.4153252008629571,0.4157054890752444,32.75948286962936,-179.82555465664137,18.960957744587166,tremor
88,7688159,0.603,-0.7400572007668886,-0.4190736114162991,0.4408010690899946,31.47913469947253,-172.6288534856085,18.983446507133774,tremor
89,7688169,0.613,-0.7520292394840031,-0.4227572314095934,0.4647614977096094,30.25778422795536,-165.42585998858556,18.96308635276787,tremor
90,7688173,0.617,-0.7633853485718565,-0.42635395590135095,0.48755237827902626,29.101685041741543,-158.2545996649129,18.903635472628135,tremor
91,7688178,0.622,-0.7740621252262134,-0.4298413636398837,0.5091464586928192,28.016401274645876,-151.15171439729727,18.808964937312496,tremor
92,7688183,0.627,-0.7840000499650311,-0.4331968517285578,0.5295237944365516,27.006758827533282,-144.15226564626818,18.683011560779935,tremor
93,7688188,0.632,-0.7931437562706198,-0.436397775675154,0.5486718483196076,26.076807491676153,-137.28956337466744,18.5297289230406,tremor
94,7688193,0.637,-0.8014422586914925,-0.43942159449440527,0.5665855272791028,25.22979442162999,-130.5950179902793,18.353037529935815,tremor
95,7688198,0.642,-0.8088491424114242,-0.44224602053215556,0.5832671575008366,24.468149078153797,-124.09801195574266,18.156775250141767,tremor
96,7688203,0.647,-0.815322718725826,-0.44484917371840926,0.5987263997948374,23.79347942611683,-117.8257873606722,17.944649258771125,tremor
97,7688208,0.652,-0.8208261520306521,-0.4472097400055574,0.6129801076606574,23.206578838636553,-111.80334569367926,17.72019072818572,tremor
98,7688213,0.657,-0.825327564690737,-0.4493071337760325,0.6260521307880494,22.70744284323921,-106.05335629449132,17.486713445399467,tremor
99,7688217,0.661,-0.8288001264073477,-0.4511216639803639,0.6379730668890496,22.295294568631764,-100.59607049624778,17.247277414450124,tremor
100,7688227,0.671,-0.8312221343773248,-0.45263470366450886,0.6487799647914911,21.968617533006288,-95.44923924804917,17.004658334999345,tremor
101,7688232,0.676,-0.8325770895958842,-0.4538288623393955,0.658515981697107,21.725194276695625,-90.62803297457785,16.761323643127,tremor
102,7688237,0.681,-0.8328537731127635,-0.454688160312401,0.6672299974794473,21.56214929985419,-86.14496350579638,16.519415558526553,tremor
103,7688241,0.685,-0.832046323967961,-0.4551982036206447,0.6749761889246153,21.47599482645872,-82.00980901960962,16.280741306629732,tremor
104,7688269,0.713,-0.8301543180338199,-0.45534635757512715,0.6818135669484767,21.462678067972504,-78.2295440145651,16.04677038610109,tremor
105,7688274,0.718,-0.8271828442912732,-0.45512191617423425,0.687805480087158,21.51762887287985,-74.80827728580114,15.818638455268045,tremor
106,7688279,0.723,-0.8231425725114268,-0.454516263864886,0.6930190879570496,21.635806882290655,-71.74720158819504,15.597157148254245,tremor
107,7688284,0.728,-0.8180498043370725,-0.45352302546615464,0.6975248088873208,21.811747532264537,-69.04455898536659,15.382828934864303,tremor
108,7688289,0.733,-0.811926498742913,-0.4521381996767425,0.7013957464795167,22.039606432658104,-66.69562572875932,15.175866023933768,tremor
109,7688294,0.738,-0.8048002629463145,-0.4503602715576975,0.7047071003577636,22.313201814102676,-64.69271995793251,14.976212273045558,tremor
110,7688298,0.742,-0.7967043009317475,-0.4481902997253108,0.7075355667473815,22.626054886579546,-63.02523471233183,14.783567093736691,tremor
111,7688303,0.747,-0.7876773135910867,-0.44563197465839094,0.7099587346862017,22.971428110102977,-61.679697823592115,14.59741042006978,tremor
112,7688308,0.752,-0.7777633467937383,-0.4426916454445778,0.7120544835936062,23.3423615436065,-60.63985929097311,14.417027934114502,tremor
113,7688313,0.757,-0.7670115862310973,-0.43937831337741406,0.7139003875968375,23.73170760452317,-59.886805782615724,14.24153590680034,tremor
114,7688318,0.762,-0.755476100403188,-0.4357035919830234,0.7155731314721596,24.132164723888483,-59.39910100564166,14.069905202031945,tremor
115,7688323,0.767,-0.743215535435402,-0.431681634220597,0.7171479423501498,24.53631050057204,-59.15294991017971,13.900984184320881,tremor
116,7688332,0.776,-0.7302927673643516,-0.4273290286915928,0.718698040523275,24.936635022849885,-59.12238409668614,13.733520442129656,tremor
117,7688337,0.781,-0.7167745189734501,-0.4226646676456771,0.7202941118536206,25.32557502059921,-59.27946542805441,13.56618137197828,tremor
118,7688342,0.786,-0.7027309490650346,-0.41770959033168825,0.7220038034933871,25.695549431433268,-59.59450473423564,13.397573751111167,tremor
119,7688347,0.791,-0.6882352221207434,-0.4124868057626312,0.7238912439903437,26.038996814432767,-60.03629264522593,13.22626245537809,tremor
120,7688352,0.796,-0.6733630655771917,-0.40702109921725016,0.7260165884314224,26.348414843280757,-60.57233997911244,13.05078845662983,tremor
121,7688398,0.842,-0.658192320485182,-0.40133882678836635,0.7284355891204065,26.61640188656924,-61.16912568908572,12.869686168354908,tremor
122,7688403,0.847,-0.642802489317507,-0.3954677020357132,0.7311991923820395,26.835700473480035,-61.79235103899123,12.681500112321354,tremor
123,7688408,0.852,-0.6272742824904552,-0.3894365783451406,0.7343531623754063,26.999242280984262,-62.40719928607735,12.484800773006084,tremor
124,7688418,0.862,-0.6116891632410527,-0.3832752299812051,0.737937733180764,27.10019418213402,-62.97860053747477,12.278199417026567,tremor
125,7688423,0.867,-0.596128889292985,-0.37701413410888496,0.7419872907797483,27.132004858125473,-63.47150151561184,12.060361600860078,tremor
126,7688428,0.872,-0.5806750494497133,-0.3706842553377791,0.7465300867934875,27.0884514743648,-63.851139744560456,11.830019072314585,tremor
127,7688433,0.877,-0.5654085937976497,-0.3643168336997853,0.7515879859423773,26.963685927592543,-64.08332125715548,11.5859797784794,tremor
128,7688438,0.882,-0.5504093573607259,-0.3579431764774856,0.757176249149935,26.752280178854555,-64.13470041372571,11.32713571929352,tremor
129,7688442,0.886,-0.5357555785795629,-0.3515944539853016,0.7633033540547349,26.44927020305282,-63.97305987312927,11.05246843614832,tremor
130,7688447,0.891,-0.5215234156880614,-0.3453014992652549,0.7699708544488857,26.050198119799624,-63.56758820578354,10.761052006858796,tremor
131,7688452,0.896,-0.5077864657574215,-0.33909461167080435,0.777173279860283,25.55115212409777,-62.889152127987046,10.452053533184905,tremor
132,7688457,0.901,-0.49461529272599647,-0.3330033644439613,0.7848980761689055,24.948803900987965,-61.910559912251635,10.124731246021817,tremor
133,7688462,0.906,-0.4820769719981051,-0.32705641660752766,0.7931255878207237,24.240443272300496,-60.60681223451762,9.778430499906417,tremor
134,7688467,0.911,-0.47023466004875514,-0.321281329761031,0.8018290818961691,23.424009872651666,-58.955336593702775,9.412578063825048,tremor
135,7688471,0.915,-0.4591471978061189,-0.3157043906547446,0.810974814016562,22.498121676788752,-56.93620150659319,9.026675222979517,tremor
136,7688476,0.92,-0.44886875632870493,-0.3103504406958052,0.8205221358385375,21.462100198426636,-54.53230695210689,8.620290273383205,tremor
137,7688481,0.925,-0.43944853242300397,-0.30524271379403106,0.8304236436958911,20.315992154578026,-51.729548012743784,8.193051008580689,tremor
138,7688485,0.929,-0.4309305003725674,-0.3004026841667455,0.8406253677991337,19.060587346190935,-48.51694932539758,7.744637761550418,tremor
139,7688490,0.934,-0.42335322391669966,-0.29584992587838893,0.8510670012911299,17.69743245652136,-44.886768779158714,7.274777479830787,tremor
140,7688517,0.961,-0.4167497301083656,-0.29160198597942816,0.8616821683762711,16.228840426410674,-40.83456983231743,6.783239191579215,tremor
141,7688521,0.965,-0.411147443842484,-0.2876742731152302,0.8723987306841566,14.65789504275677,-36.35926278380131,6.269831083107949,tremor
142,7688526,0.97,-0.4065681789379011,-0.2840799633786644,0.883139130991308,12.988450379230182,-31.463116208512467,5.734399273825794,tremor
143,7688530,0.974,-0.4030281790584519,-0.28082992495879044,0.8938207734007544,11.225124754625735,-26.15174042074956,5.176828257704576,tremor
144,7688535,0.979,-0.4005381998535466,-0.27793266278702133,0.9043564390599518,9.373288916768066,-20.434045189489414,4.597042886840926,tremor
145,7688550,0.994,-0.39910362271273914,-0.2753942839283351,0.9146547364658679,7.439048211790216,-14.322174015399817,3.995011697695198,tremor
146,7688555,0.999,-0.3987245904849335,-0.27321848396305803,0.9246205853415735,5.4292185570895555,-7.83141716428322,3.3707513167091423,tremor
147,7688559,1.003,-0.39939615631337627,-0.27140655411926984,0.93415573295374,3.351296101981825,-0.9801053830278359,2.7243316272651987,tremor
148,7688569,1.013,-0.4011084382471744,-0.26995740850499267,0.9431593015659387,1.2134205353002805,6.2105141865222535,2.0558813403591563,tremor
149,7688574,1.018,-0.40384677435243527,-0.2688676304908094,0.9515283654902941,-0.9756679133811634,13.716418912978524,1.3655935984702037,tremor
150,7688589,1.033,-0.4075918754645482,-0.268131537116149,0.9591585559229833,-3.206677631619383,21.510968008627614,0.6537312679702902,tremor
151,7688594,1.038,-0.4123199752492618,-0.2677412603177128,0.9659446914507652,-5.469820685585222,29.565076449457603,-0.07936835595457106,tremor
152,7688599,1.043,-0.4180029795834398,-0.26768684377209134,0.9717814318266779,-7.754873430398264,37.84740604158078,-0.8332896094471611,tremor
153,7688603,1.047,-0.4246086191298789,-0.2679563541692157,0.976563952364122,-10.051242247408924,46.324574356625895,-1.607535362371027,tremor
154,7688613,1.057,-0.4321006101243609,-0.2685360057589776,0.9801886361109272,-12.348033966822458,54.9613821505661,-2.401524763596196,tremor
155,7688640,1.084,-0.4404388286918621,-0.269410297024212,0.9825537808407124,-14.634130557787826,63.72105953374882,-3.2145917856701973,tremor
156,7688644,1.088,-0.4495795034761604,-0.27056215832772645,0.9835603178148213,-16.898267714398898,72.56553064941633,-4.045984506746098,tremor
157,7688649,1.093,-0.4594754301632824,-0.2719731093668973,0.9831125391743659,-19.12911700701284,81.45569603143149,-4.894865063353472,tremor
158,7688663,1.107,-0.470076209898206,-0.27362342525592026,0.9811188306516424,-21.315371278232714,90.3517312309735,-5.760310209318413,tremor
159,7688693,1.137,-0.48132851198426707,-0.27549231004733926,0.977492405987023,-23.445832928037085,99.21339977953336,-6.641312420768762,tremor
160,7688698,1.142,-0.4931763598977578,-0.27755807649721914,0.9721520389803815,-25.509504654742212,108.00037810214873,-7.536781495328681,tremor
161,7688718,1.162,-0.5055614386855336,-0.27979833086387323,0.9650227885101782,-27.495682107843066,116.6725895964597,-8.445546603500425,tremor
162,7688733,1.177,-0.5184234212297771,-0.28219016150167847,0.956036711155223,-29.394047774520967,125.19054473497155,-9.366358753135941,tremor
163,7688738,1.182,-0.531700310531673,-0.28471032996782003,0.9451335553026564,-31.194765271225865,133.51568371449147,-10.29789361319934,tremor
164,7688763,1.207,-0.5453287948997546,-0.28733546330331466,0.9322614298746037,-32.888573053102704,141.61071784374107,-11.238754608245499,tremor
165,7688783,1.227,-0.5592446125681736,-0.2900422460826094,0.9173774401012945,-34.46687639335252,149.43996549724406,-12.187476149681151,tremor
166,7688799,1.243,-0.5733829217340815,-0.2928076107461199,0.9004482821353533,-35.921836323894446,156.9696780453157,-13.1425268303247,tremor
167,7688814,1.258,-0.587678671301281,-0.2956089246294073,0.8814507877438625,-37.2464540674638,164.1683506899365,-14.102312390207286,tremor
168,7688823,1.267,-0.6020669668263814,-0.2984241719733357,0.86037240982834,-38.43464933013694,171.00701262485734,-15.065178270210543,tremor
169,7688839,1.283,-0.6164834253965397,-0.3012321290430149,0.8372116391174477,-39.481330664771235,177.459490475012,-16.02941159787275,tremor
170,7688854,1.298,-0.6308645125515194,-0.3040125303159084,0.8119783420827807,-40.382455962834804,183.50263867811265,-16.993242475423084,tremor
171,7688901,1.345,-0.6451478540364225,-0.3067462235499099,0.7846940099889624,-41.13508099077304,189.11653049866155,-17.95484444151008,tremor
172,7688906,1.35,-0.6592725152979622,-0.30941531145003265,0.7553919090686055,-41.73739379181741,194.28460385800338,-18.912333956400712,tremor
173,7688911,1.355,-0.6731792424025693,-0.3120032776727273,0.7241171222172746,-42.18873282461607,198.9937572046509,-19.863768769558842,tremor
174,7688915,1.359,-0.6868106596180436,-0.31449509510840373,0.6909264734927508,-42.48958704710261,203.2343921783965,-20.807145164158758,tremor
175,7688920,1.364,-0.7001114213005158,-0.31687731482414216,0.6558883282356941,-42.6415768460449,207.00040165663117,-21.74039439482967,tremor
176,7688925,1.369,-0.7130283188257793,-0.3191381347491548,0.6190822638858083,-42.647415679839,210.28910372139617,-22.661379093044157,tremor
177,7688934,1.378,-0.7255103468208304,-0.32126744811965013,0.5805986095300876,-42.5108533842189,213.10112404431683,-23.56789086679529,tremor
178,7688949,1.393,-0.7375087365543278,-0.323256872809087,0.5405378558087826,-42.236603155722364,215.44023111894364,-24.457650608963107,tremor
179,7688954,1.398,-0.7489769676709424,-0.3250997638606242,0.49900994090180056,-41.830255181778824,217.31313064380637,-25.328313037363277,tremor
180,7688963,1.407,-0.7598707720852657,-0.3267912126588843,0.4561334227258916,-41.2981806195037,218.72922707619495,-26.17747668311136,tremor
181,7688968,1.412,-0.7701481453374442,-0.32832803701568664,0.41203455186670557,-40.647430014207806,219.70036174934378,-27.002699986601332,tremor
182,7688983,1.427,-0.7797693807060856,-0.3297087667751769,0.36684626371081763,-39.88563022625623,220.24053775196674,-27.801523498721885,tremor
183,7688988,1.432,-0.7886971397484855,-0.33093362920253044,0.3207071112467496,-39.020883536940154,220.36564182609882,-28.571497584671107,tremor
184,7689016,1.46,-0.7968965697932947,-0.3320045373485944,0.27376016161812855,-38.061671939276586,220.0931727310619,-29.310214604113725,tremor
185,7689022,1.466,-0.8043354745025221,-0.3329250828601578,0.22615187942116327,-37.01676881501652,219.44198383147602,-30.015344321727582,tremor
186,7689027,1.471,-0.810984538337473,-0.3337005325817433,0.1780310179323597,-35.89515937019263,218.43204526879438,-30.684671228636347,tremor
187,7689031,1.475,-0.8168176001294812,-0.3343378261656947,0.12954753632933672,-34.7059704382326,217.08422835585634,-31.31613243289007,tremor
188,7689036,1.48,-0.8218119655447045,-0.3348455701770873,0.08085155720036122,-33.458409609931245,215.4201122428135,-31.907854748657787,tremor
189,7689046,1.49,-0.8259487435211236,-0.33523402309762884,0.03209237487732863,-32.161713117823375,213.46181077537628,-32.458189596576894,tremor
190,7689051,1.495,-0.8292131880615232,-0.33551506525241037,-0.016582478199470917,-30.825101478296236,211.23181598661793,-32.965744379331895,tremor
191,7689056,1.5,-0.8315950243035208,-0.3357021479453035,-0.06502810257541435,-29.45774158410172,208.75285391037033,-33.42940915645392,tremor
192,7689061,1.505,-0.8330887367444715,-0.3358102168959449,-0.1131030378722831,-28.068713761504185,206.04774835658014,-33.84837770654539,tremor
193,7689066,1.51,-0.8336937980221364,-0.3358556063063635,-0.16067000289332975,-26.666982263466057,203.13928881570305,-34.22216239564339,tremor
194,7689071,1.515,-0.8334148187763003,-0.3358559014062915,-0.20759656981266933,-25.261367739668838,200.0500995625638,-34.55060261626261,tremor
195,7689075,1.519,-0.8322616027236714,-0.33582976897606553,-0.25375577328747656,-23.86052037296674,196.8025081219579,-34.833866877050724,tremor
196,7689080,1.524,-0.8302490959131952,-0.33579675697469985,-0.2990266559266446,-22.47289257881556,193.41841240284882,-35.072448877630265,tremor
197,7689085,1.529,-0.8273972248445443,-0.3357770658833912,-0.3432947520358616,-21.106710424474123,189.91914691848865,-35.267158085236154,tremor
198,7689095,1.539,-0.823730624330887,-0.33579129562142074,-0.3864525119571022,-19.7699432409684,186.32534953087787,-35.419105444003215,tremor
199,7689100,1.544,-0.8192782622303934,-0.3358601728506804,-0.42839966961410963,-18.47027127123952,182.6568310500006,-35.529684908913914,tremor
200,7689109,1.553,-0.8140729739654375,-0.336004264144779,-0.4690435560188608,-17.215051610429214,178.93245074066124,-35.60055151969011,tremor
201,7689137,1.581,-0.8081509245507246,-0.3362436808850276,-0.5082993614260639,-16.011283124526603,175.17000128950613,-35.63359672528059,tremor
202,7689142,1.586,-0.8015510191521353,-0.3365977819150029,-0.5460903485011614,-14.865571435224025,171.3861069888294,-35.6309216400749,tremor
203,7689147,1.591,-0.7943142846509358,-0.3370848800010663,-0.582348018321815,-13.78409535017262,167.59613870830336,-35.594808852964924,tremor
204,7689152,1.596,-0.7864832442127028,-0.33772195804516153,-0.6170122303911763,-12.772576203895909,163.814148583797,-35.52769330944277,tremor
205,7689157,1.601,-0.778101304675519,-0.3385244007732986,-0.6500312772813981,-11.83625141331271,160.05282630509615,-35.43213264440564,tremor
206,7689161,1.605,-0.7692121731351353,-0.33950574724697025,-0.681361914188955,-10.979853193881716,156.3234776236409,-35.31077717957003,tremor
207,7689166,1.61,-0.7598593149702294,-0.34067746898643747,-0.7109693436304622,-10.207592931394153,152.63602445995284,-35.16633964815803,tremor
208,7689171,1.615,-0.7500854612348901,-0.3420487777460725,-0.7388271557377972,-9.523151250488253,148.9990249346604,-35.001564602264736,tremor
209,7689176,1.62,-0.7399321692702968,-0.34362646606033165,-0.7649172250885863,-8.929673418315552,145.41971086333393,-34.819197417629645,tremor
210,7689190,1.634,-0.729439436882483,-0.3454147826283128,-0.7892295656709696,-8.429769403788443,141.90403978501266,-34.621952850312105,tremor
211,7689195,1.639,-0.7186453677519411,-0.3474153434958735,-0.8117621463438622,-8.025517708240564,138.45675845105336,-34.41248321989815,tremor
212,7689200,1.644,-0.7075858840864603,-0.34962707892464834,-0.8325206699066859,-7.718472021724008,135.08147486659976,-34.19334646978952,tremor
213,7689205,1.649,-0.6962944820524011,-0.35204621492089483,-0.8515183195103938,-7.50966985964754,131.78073639199468,-33.96697453922565,tremor
214,7689225,1.669,-0.6848020262546638,-0.35466628773199305,-0.8687754765027811,-7.3996425803229355,128.5561119717835,-33.73564262600105,tremor
215,7689230,1.674,-0.6731365812908936,-0.35747818924923147,-0.8843194138158236,-7.388426509867914,125.40827712632482,-33.501439998081544,tremor
216,7689256,1.7,-0.6613232807079914,-0.3604702411572343,-0.8981839686351026,-7.475575211056515,122.33710076581731,-33.26624302271121,tremor
217,7689261,1.705,-0.6493842358490258,-0.3636282957558984,-0.9104091973785707,-7.660173137457691,119.34173305431862,-33.03169102723858,tremor
218,7689271,1.715,-0.6373384883977753,-0.36693586152044,-0.9210410150892379,-7.9408509643930545,116.42069345253448,-32.79916549727571,tremor
219,7689281,1.725,-0.6252020104685906,-0.370374251524292,-0.9301308204381732,-8.315802792900804,113.57195782568604,-32.56977297823597,tremor
220,7689286,1.73,-0.6129877548527135,-0.37392275274485615,-0.9377351068713584,-8.782805240350656,110.79304330306296,-32.34433190888964,tremor
221,7689291,1.735,-0.6007057559401977,-0.3775588140131691,-0.9439150601476188,-9.33923823840381,108.08108956226584,-32.12336351044759,tremor
222,7689296,1.74,-0.5883632795184529,-0.3812582500429382,-0.9487361426019076,-9.982107215989675,105.43293542753754,-31.907086796679973,tremor
223,7689301,1.745,-0.5759650176627317,-0.3849954586879662,-0.952267664837661,-10.708066276849843,102.8451900706777,-31.69541775543761,tremor
224,7689305,1.749,-0.5635133235978675,-0.388743648403266,-0.9545823460874125,-11.51344198365094,100.31429859061801,-31.487972762662206,tremor
225,7689315,1.759,-0.5510084808023682,-0.39247507285433564,-0.9557558650765628,-12.394257418105132,97.83660223041792,-31.284076306595157,tremor
226,7689325,1.769,-0.5384490006679401,-0.39616126973133836,-0.955866403796078,-13.34625628262292,95.40839389693699,-31.08277310412556,tremor
227,7689330,1.774,-0.5258319435406182,-0.3997733010629956,-0.9549941870670888,-14.364926926684312,93.02596992146152,-30.882844665422294,tremor
228,7689335,1.779,-0.5131532586887224,-0.40328199265725057,-0.9532210211053076,-15.44552630054284,90.68567908535819,-30.682830290020462,tremor
229,7689345,1.789,-0.5004081393507438,-0.406658170676303,-0.9506298344221098,-16.583103937979214,88.38396979187195,-30.481052346144843,tremor
230,7689382,1.826,-0.4875913892181703,-0.4098728937254618,-0.9473042243164321,-17.772526125444877,86.11743588247647,-30.275645497881175,tremor
231,7689396,1.84,-0.47469779630790454,-0.412897679135676,-0.943328011941299,-19.008500403874653,83.88286100948635,-30.064589322443428,tremor
232,7689401,1.845,-0.4617225091415851,-0.4157047222897543,-0.9387848085391618,-20.28560045645873,81.67726079394187,-29.845743540761923,tremor
233,7689406,1.85,-0.4486614086607647,-0.41826710785105725,-0.9337575950335673,-21.59829127292811,79.49792140719451,-29.616884919169635,tremor
234,7689411,1.855,-0.4355114677630221,-0.4205590116256318,-0.9283283168391334,-22.9409542972995,77.34243290847715,-29.375744829409157,tremor
235,7689415,1.859,-0.4222710891966395,-0.42255589160225976,-0.9225774955557257,-24.307912122001397,75.20871572414882,-29.120046486118905,tremor
236,7689420,1.864,-0.4089404121123118,-0.4242346665595438,-0.9165838591334555,-25.69345222214346,73.0950389962907,-28.847540988330874,tremor
237,7689425,1.869,-0.3955215779400208,-0.4255738805678117,-0.9104239920869984,-27.091849232268064,71.00003002845456,-28.5560414369754,tremor
238,7689430,1.874,-0.3820189473880239,-0.42655385177457683,-0.9041720073527526,-28.49738534200553,68.92267460863192,-28.243454556864915,tremor
239,7689435,1.879,-0.36843926212653066,-0.4271568040499877,-0.8978992413826378,-29.904368510292862,66.86230852754403,-27.907809404912076,tremor
240,7689440,1.884,-0.35479174696101184,-0.4273669803728055,-0.8916739740268163,-31.307148350542285,64.81860109097714,-27.547282890307,tremor
241,7689444,1.888,-0.3410881508306239,-0.4271707372371266,-0.8855611746578559,-32.70012970162526,62.79153181852888,-27.160221965379744,tremor
242,7689449,1.893,-0.3273427275788807,-0.42655661982673176,-0.8796222758245867,-34.07778405733391,60.78136180991591,-26.745162467710582,tremor
243,7689459,1.903,-0.313572159931146,-0.42551541820394784,-0.8739149754966474,-35.43465917146039,58.788601435808275,-26.300844703616978,tremor
244,7689463,1.907,-0.29979543229319,-0.4240402052564948,-0.8684930686752967,-36.76538728079399,56.81397607033237,-25.82622595756165,tremor
245,7689468,1.912,-0.28603365970035494,-0.42212635759959494,-0.8634063088066544,-38.06469248947963,54.858391525022526,-25.320490186117315,tremor
246,7689474,1.918,-0.2723098813696385,-0.4197715610013944,-0.8587002990423955,-39.32739793239378,52.922900668521784,-24.783055202180826,tremor
247,7689478,1.922,-0.25864882775715625,-0.4169758021525293,-0.8544164129522447,-40.54843337960394,51.00867243084993,-24.21357767121787,tremor
248,7689505,1.949,-0.24507666979453813,-0.4137413487128191,-0.8505917438081244,-41.722843952716985,49.11696401866175,-23.611956229361123,tremor
249,7689510,1.954,-0.23162075814122776,-0.41007271953061525,-0.847259081045988,-42.84580058875719,47.24909674780824,-22.97833300089146,tremor
250,7689515,1.959,-0.21830935898361495,-0.40597664674496986,-0.8444469119991046,-43.912612802707905,45.40643548796117,-22.31309374690316,tremor
251,7689519,1.963,-0.2051713913285731,-0.4014620311597039,-0.8421794465364314,-44.91874416930504,43.590371377420034,-21.61686682173086,tremor
252,7689525,1.969,-0.1922361690942263,-0.3965398918484743,-0.8404766618899394,-45.85983078244233,41.80230725402494,-20.89052105200952,tremor
253,7689530,1.974,-0.1795331497861493,-0.39122331045395103,-0.8393543647598499,-46.731702777036105,40.043645167858045,-20.135162588939227,tremor
254,7689534,1.978,-0.1670916902981431,-0.3855273701340873,-0.8388242677653966,-47.53040883017061,38.31577536545323,-19.352130721531317,tremor
255,7689539,1.983,-0.1549408094730408,-0.37946908863299256,-0.8388940774576304,-48.252243403661225,36.62006622697612,-18.542992580223167,tremor
256,7689544,1.988,-0.1431089565352165,-0.3730673445503126,-0.8395675914140153,-48.893776350369464,34.95785476646596,-17.70953660817377,tremor
257,7689554,1.998,-0.13162378435690844,-0.3663427955754233,-0.8408448023701974,-49.451884381755555,33.33043744532716,-16.853764634123564,tremor
258,7689559,2.003,-0.12051192670388072,-0.3593177872551977,-0.8427220078866827,-49.92378378535938,31.73906117874704,-15.977882349028489,tremor
259,7689564,2.008,-0.10979877905255686,-0.3520162507840925,-0.8451919246668693,-50.30706369051791,30.184914516471615,-15.08428797133642,tremor
260,7689574,2.018,-0.09950828319027633,-0.3444635883454818,-0.8482438073010832,-50.599719111089,28.669119044751824,-14.17555888396476,tremor
261,7689578,2.022,-0.08966271650338917,-0.3366865446904587,-0.8518635718652219,-50.8001829461473,27.192721087247712,-13.254436040853516,tremor
262,7689583,2.027,-0.0802824875296029,-0.3287130639047729,-0.856033925402986,-50.90735609311541,25.756683789298105,-12.323805975247796,tremor
263,7689588,2.032,-0.07138593992221182,-0.3205721306707122,-0.8607345028162838,-50.920634822675325,24.361879664165738,-11.386680299508031,tremor
264,7689593,2.037,-0.0629891673914452,-0.312293595761229,-0.8659420130342659,-50.839934581550814,23.009083671588947,-10.44617266866932,tremor
265,7689597,2.041,-0.05510584243270686,-0.3039079859922701,-0.8716303964980211,-50.6657094268895,21.69896689682768,-9.505473283813323,tremor
266,7689602,2.046,-0.04774706173516143,-0.2954462993922001,-0.8777709959741179,-50.398966353115,20.43209091018249,-8.567821130449724,tremor
267,7689629,2.073,-0.04092121111959099,-0.28693978691224237,-0.8843327425006867,-50.04127385058722,19.20890291656216,-7.6364742753257,tremor
268,7689634,2.078,-0.03463385272315959,-0.27841972258538333,-0.8912823578956486,-49.59476414116083,18.029731847314945,-6.714678673640815,tremor
269,7689639,2.083,-0.028887636972204016,-0.26991716462270815,-0.8985845747600302,-49.0621286752302,16.89478558652021,-5.805636050668047,tremor
270,7689644,2.088,-0.023682241693755778,-0.26146271048646325,-0.9062023743507752,-48.44660664897612,15.804149539807437,-4.912471494840716,tremor
271,7689648,2.092,-0.01901434052169777,-0.253086249467434,-0.9140972421371961,-47.75196649972714,14.757786731040301,-4.038201419808737,tremor
272,7689658,2.102,-0.014877602536499505,-0.24481671669701746,-0.9222294403290148,-46.982480542873866,13.755539551647534,-3.185702526271219,tremor
273,7689663,2.107,-0.011262724798958797,-0.23668185282488666,-0.930558296176054,-46.14289310479002,12.797133199732093,-2.3576823384345196,tremor
274,7689668,2.112,-0.0081574990506173,-0.22870797377300214,-0.9390425043745433,-45.23838266577044,11.882180742571922,-1.556651821599138,tremor
275,7689673,2.117,-0.005546913317425268,-0.22091975501276548,-0.9476404414528147,-44.274518644424916,11.010189627055627,-0.7849005171315189,tremor
276,7689677,2.121,-0.0034132884550905278,-0.21334003468354162,-0.9563104895352527,-43.257213527900205,10.18056936102835,-0.04447456472181034,tremor
277,7689683,2.127,-0.0017364488344594785,-0.20598963956882346,-0.9650113663928793,-42.19267108718431,9.392640009928208,0.6628420774917461,tremor
278,7689688,2.132,-0.0004939254325249197,-0.19888723747703924,-0.9737024581891582,-41.087331424911255,8.645641109979314,1.3355429556157148,tremor
279,7689692,2.136,0.0003388113634260929,-0.19204921895460644,-0.9823441508413217,-39.94781359584546,7.938740596380433,1.9724107707091731,tremor
280,7689697,2.141,0.0007880928394763324,-0.18548961051437812,-0.9908981554743371,-38.78085652700753,7.271043379651917,2.5725251840363574,tremor
281,7689702,2.146,0.0008817713142647548,-0.1792200207259439,-0.9993278230878275,-37.59325895242173,6.641599268962115,3.1352666464385677,tremor
282,7689707,2.151,0.0006489227677701844,-0.17324961962576402,-1.007598443327243,-36.39181907090778,6.049410030411669,3.6603161709281187,tremor
283,7689712,2.156,0.00011953812061780197,-0.1675851510098323,-1.015677522185519,-35.183274634630834,5.493435472941062,4.147651026977092,tremor
284,7689717,2.161,-0.0006757913069138522,-0.16223097631427716,-1.0235350335893114,-33.9742441778009,4.972598564953414,4.597536405284835,tremor
285,7689726,2.17,-0.0017061887181420037,-0.1571891480107142,-1.0311436401656209,-32.77117009235019,4.485789689006922,5.010513181761927,tremor
286,7689752,2.196,-0.0029408020209923196,-0.15245950977851852,-1.0384788790522677,-31.580264242982683,4.031870227209208,5.387381995972055,tremor
287,7689762,2.206,-0.00434910463929152,-0.14803982019599335,-1.0455193094087485,-30.407456781174307,3.6096757232856578,5.729183948190457,tremor
288,7689766,2.21,-0.005901182937688897,-0.14392589634030023,-1.0522466192774762,-29.258348761441816,3.2180188769077644,6.037178305463663,tremor
289,7689776,2.22,-0.007568006870308548,-0.1401117735097745,-1.0586456905742163,-28.13816908124121,2.8556925873564447,6.3128176843061174,tremor
290,7689781,2.225,-0.009321681010102756,-0.13658987726491095,-1.0647046221488252,-27.051736162987904,2.5214731880528736,6.557721239483553,tremor
291,7689786,2.23,-0.011135673530871405,-0.13335120408795523,-1.0704147119447442,-26.003424685830975,2.2141239254167773,6.7736464300946295,tremor
292,7689796,2.24,-0.012985021003736151,-0.13038550714307326,-1.0757704002167663,-24.997137570844878,1.9323986589387825,6.962459954046471,tremor
293,7689800,2.244,-0.01484650708104167,-0.12768148384717243,-1.0807691764998786,-24.036283336048072,1.6750457070589762,7.126108440446951,tremor
294,7689810,2.254,-0.016698813334294536,-0.12522696221833435,-1.0854114535498502,-23.123758870771415,1.440811738231785,7.266589468435168,tremor
295,7689815,2.259,-0.018522640749169025,-0.12300908324912058,-1.0897004118134825,-22.261937632456934,1.2284456067216614,7.3859234438029775,tremor
296,7689825,2.269,-0.02030080070778515,-0.1210144768565102,-1.093641818161759,-21.452663240850878,1.0367020533759483,7.486126815327305,tremor
297,7689834,2.278,-0.02201827473034023,-0.1192294292905807,-1.0972438226696772,-20.697248430395714,0.8643452243537744,7.569187054803658,tremor
298,7689839,2.283,-0.023662242798192405,-0.11764004023910092,-1.1005167371932087,-19.9964793152697,0.710151995317681,7.637039761336994,tremor
299,7689844,2.288,-0.025222080703040488,-0.11623236823916672,-1.1034727994155948,-19.350624916374592,0.5729151166050755,7.6915481834107995,tremor
300,7689874,2.318,-0.026689327505850693,-0.11499256338950964,-1.1061259259434433,-18.759451890417935,0.45144621262108786,7.734485382597829,tremor
301,7689879,2.323,-0.028057624783586744,-0.11390698673422352,-1.108491457946954,-18.222244385414733,0.3445786772835925,7.767519191461089,tremor
302,7689889,2.333,-0.029322629842879252,-0.11296231604336666,-1.1105859027622114,-17.737828923361793,0.25117051078412916,7.792200047554513,tremor
303,7689894,2.338,-0.030481905461622286,-0.11214563802956948,-1.1124266747986455,-17.30460417810782,0.17010714441366584,7.809951719411414,tremor
304,7689899,2.343,-0.0315347889806758,-0.11144452729737453,-1.1140318390079107,-16.920575472743003,0.10030429974891349,7.822064882757476,tremor
305,7689913,2.357,-0.032482243726890944,-0.11084711251805983,-1.1154198600601368,-16.583393765402285,0.040710923829065895,7.829693457430998,tremor
306,7689918,2.362,-0.03332669583361905,-0.11034213046116953,-1.11660936023406,-16.290398826005795,-0.009687768691955406,7.833853576746298,tremor
307,7689923,2.367,-0.03407185956058781,-0.1099189686028557,-1.1176188888583116,-16.038666230312327,-0.05186713216798593,7.83542502928539,tremor
308,7689928,2.372,-0.03472255421646847,-0.10956769707774885,-1.1184667059444622,-15.825057712179046,-0.0867598131709798,7.83515498639671,tremor
309,7689932,2.376,-0.03528451576148254,-0.10927909075185177,-1.119170582431642,-15.646274320458762,-0.11525239402621833,7.833663805487026,tremor
310,7689942,2.386,-0.03576420611803966,-0.10904464217601269,-1.1197476192211213,-15.498911725108584,-0.13818201750978837,7.8314526783118215,tremor
