sample,t_ms,t_s,ax,ay,az,gx,gy,gz,tremor
0,7773738,0.0,-0.09118293994087565,-0.11127793002901414,-1.0433690050523414,-2.841709561680348,25.3928373637591,-4.451642845948173,tremor
1,7773743,0.005,-0.08919167225203273,-0.1109373978246218,-1.0444258206498644,-2.4268287812806335,24.540927718390797,-4.116336802017023,tremor
2,7773748,0.01,-0.08645358843833724,-0.11044804597236846,-1.0459050156596326,-1.9513159654368266,23.286375700733043,-3.7748240056759017,tremor
3,7773753,0.015,-0.08292627764184653,-0.10978835805679182,-1.047846913605422,-1.4140141418158865,21.61444686878199,-3.42905827776249,tremor
4,7773757,0.019,-0.07871577664567286,-0.10896271330179601,-1.0502124664384127,-0.8141370148914742,19.51248070231414,-3.081149712877888,tremor
5,7773767,0.029,-0.07400857101625531,-0.10799245502062993,-1.0529158526558582,-0.15129383879637986,16.97005552044346,-2.7333584164354314,tremor
6,7773772,0.034,-0.06900830510892636,-0.10690566798117963,-1.055857147129718,0.5744880149919568,13.979140102786252,-2.388086771125776,tremor
7,7773777,0.039,-0.06390184107945465,-0.10573082993948665,-1.0589408537307026,1.362743149044001,10.53422998568277,-2.0478702097318067,tremor
8,7773782,0.044,-0.05884848303724025,-0.10449415235705783,-1.0620825091016517,2.212551239770019,6.6324664067687635,-1.7153664804444246,tremor
9,7773791,0.053,-0.053981188668210216,-0.1032191068704064,-1.0652087755550588,3.1225234865420464,2.2737358980887024,-1.393343399546983,tremor
10,7773796,0.058,-0.049411941436463075,-0.10192688858493879,-1.0682550566908289,4.090792738253667,-2.5392514123863568,-1.084665094543517,tremor
11,7773801,0.063,-0.045237412887207576,-0.10063711491088215,-1.071162733077249,5.115007607005586,-7.800906629459269,-0.7922767492922205,tremor
12,7773806,0.068,-0.04154351584328135,-0.09936845625726098,-1.07387683804761,6.192330853187247,-13.50273173546215,-0.5191878725800259,tremor
13,7773811,0.073,-0.038408614243672555,-0.09813910591590552,-1.0763443626692013,7.319442292691713,-19.633315525351932,-0.2684541236189185,tremor
14,7773816,0.078,-0.03590558188182335,-0.09696708722981084,-1.0785131313647687,8.492546434597335,-26.178357031500695,-0.043157742319910104,tremor
15,7773821,0.083,-0.034102995452379437,-0.09587042627117649,-1.0803311229530927,9.707385005879013,-33.120717295958755,0.1536133512572187,tremor
16,7773826,0.088,-0.03306571826308479,-0.09486722263422359,-1.0817461157957005,10.959254458705514,-40.440499936714744,0.31878770534621576,tremor
17,7773851,0.113,-0.032855071725076075,-0.09397564643803664,-1.0827055602284745,12.243028486936655,-48.11516047252804,0.4493336296125837,tremor
18,7773856,0.118,-0.033528736027555614,-0.09321388332296636,-1.083156607067545,13.553185503837485,-56.11964382362842,0.5422835082491487,tremor
19,7773871,0.133,-0.03514047826034469,-0.0926000436245879,-1.0830462417614484,14.883840955120167,-64.42654881006608,0.5947589862250301,tremor
20,7773880,0.142,-0.037739775641746125,-0.09215204762249837,-1.0823214890128305,16.22878426214469,-73.00631785728362,0.60399686073572,tremor
21,7773885,0.147,-0.041371380830800476,-0.09188749569026386,-1.0809296633771281,17.581520111997897,-81.82744953174304,0.5673754916805632,tremor
22,7773890,0.152,-0.04607486273022485,-0.091823530032391,-1.0788186486918718,18.93531373869385,-90.85673101002084,0.4824415306934795,tremor
23,7773895,0.157,-0.05188414739212458,-0.09197669320251453,-1.075937194228523,20.283239778012902,-100.05948715896521,0.34693675589424133,tremor
24,7773900,0.162,-0.05882707790636174,-0.09236278753264927,-1.072235218935061,21.618234229610938,-109.39984257387528,0.15882478457858776,tremor
25,7773904,0.166,-0.06692500830002047,-0.09299673880975082,-1.0676641175586354,22.93314902159137,-118.84099267161884,-0.08368258512722335,tremor
26,7773916,0.178,-0.07619244373097721,-0.09389246690784507,-1.0621770641400123,24.2208086405715,-128.34547975520923,-0.3820996794082577,tremor
27,7773925,0.187,-0.08663673712449747,-0.09506276555234282,-1.0557293095781808,25.47406826137739,-137.87546986167555,-0.7376422036358494,tremor
28,7773930,0.192,-0.09825785056869862,-0.09651919291322116,-1.048278470823336,26.685872783211668,-147.3930262007236,-1.15120377063854,tremor
29,7773935,0.197,-0.11104818806531778,-0.09827197426952024,-1.0397848098721372,27.849316152254005,-156.86037512199923,-1.6233340356411001,tremor
30,7773940,0.202,-0.12499250452482644,-0.10032991754831323,-1.0302115011867818,28.95770032324011,-166.24016083667775,-2.1542187692390904,tremor
31,7773949,0.211,-0.14006789415702844,-0.10270034211808295,-1.0195248865007567,30.004593184355297,-175.49568555665113,-2.7436621889074932,tremor
32,7773976,0.238,-0.15624385963527046,-0.10538902081891795,-1.0076947162586833,30.983884742454293,-184.59113226914414,-3.3910718516748717,tremor
33,7773981,0.243,-0.1734824616269552,-0.10840013485675018,-0.9946943771960696,31.889840846072797,-193.4917680066561,-4.095446385750871,tremor
34,7773986,0.248,-0.19173854653592776,-0.11173624089842861,-0.9805011057985169,32.71715372658304,-202.16412619007144,-4.855366308179917,tremor
35,7773991,0.253,-0.21096004866603077,-0.11539824950064888,-0.9650961875609003,33.46098868017514,-210.5761674057618,-5.6689881440649925,tremor
36,7773995,0.257,-0.2310883615571191,-0.11938541389833894,-0.9484651420567869,34.117026301668986,-218.69741878939868,-6.53404203689852,tremor
37,7774000,0.262,-0.25205877200132754,-0.12369532815775891,-0.9305978938052132,34.681499805424664,-226.49909296859227,-7.447833021461651,tremor
38,7774005,0.267,-0.27380094922544385,-0.12832393374370485,-0.9114889287909641,35.15122711030841,-233.95418820270143,-8.40724611808897,tremor
39,7774010,0.272,-0.29623948092273106,-0.13326553363462385,-0.8911374362771114,35.52363750907607,-241.03757191104742,-9.408755395289012,tremor
40,7774015,0.277,-0.31929444723571443,-0.13851281322572048,-0.8695474352690787,35.79679287808377,-247.72605017650926,-10.4484371324089,tremor
41,7774020,0.282,-0.34288202343608987,-0.14405686737655626,-0.8467278846700209,35.96940350482617,-253.99842602989966,-11.521987191805819,tremor
42,7774025,0.287,-0.36691510192830745,-0.14988723307976332,-0.8226927758280418,36.04083871217323,-259.8355493436852,-12.624742678843335,tremor
43,7774035,0.297,-0.3913039243323926,-0.1559919273488059,-0.797461205835803,36.01113253087295,-265.22036098658833,-13.751707927436742,tremor
44,7774040,0.302,-0.41595671479715096,-0.16235749004618638,-0.7710574296199723,35.88098470684436,-270.13793352832124,-14.897584798609758,tremor
45,7774050,0.312,-0.44078030637960375,-0.16896903150338993,-0.743510888566921,35.65175732142306,-274.5755102650902,-16.0568072179879,tremor
46,7774059,0.321,-0.4656807533157721,-0.1758102849264445,-0.7148562131856263,35.32546725178585,-278.52254369701814,-17.223579802149544,tremor
47,7774069,0.331,-0.49056392328519716,-0.18286366374121846,-0.6851331971233465,34.904774612952295,-281.9707338728215,-18.39192033136767,tremor
48,7774074,0.336,-0.5153360652649064,-0.1901103242103567,-0.6543867397422858,34.3929672164561,-284.91406628404616,-19.555705720820416,tremor
49,7774100,0.362,-0.5399043501473026,-0.19753023384091165,-0.6226667544574325,33.793940974127636,-287.3488483087027,-20.7087210330203,tremor
50,7774105,0.367,-0.5641773827923335,-0.20510224628003904,-0.5900280401482376,33.112176092139165,-289.2737426342322,-21.844710973084222,tremor
51,7774110,0.372,-0.5880656854270615,-0.21280418353680267,-0.5565301132040733,32.35270886496333,-290.6897956799057,-22.957433227953302,tremor
52,7774115,0.377,-0.6114821531644101,-0.2206129264365353,-0.5222369981471674,31.521098909694246,-291.60045881528004,-24.040712960964036,tremor
53,7774120,0.382,-0.6343424828343562,-0.22850451418179354,-0.4872169752873616,30.623391779893915,-292.01160012360015,-25.088497756540566,tremor
54,7774125,0.387,-0.6565655763451707,-0.23645425375014412,-0.45154228448682915,29.666077045806688,-291.93150453626873,-26.09491231717065,tremor
55,7774130,0.392,-0.678073919525571,-0.24443683961268697,-0.4152887848363918,28.656042096640615,-291.370860304698,-27.054312231444673,tremor
56,7774134,0.396,-0.6987939369629427,-0.2524264839285333,-0.37853557085433687,27.600522088058437,-290.34272993872173,-27.961336146353613,tremor
57,7774144,0.406,-0.7186563228520619,-0.26039705698301163,-0.34136454669664384,26.50704660894657,-288.86250391267515,-28.810955684885776,tremor
58,7774159,0.421,-0.7375963473826266,-0.2683222372162742,-0.3038599607910805,25.38338376360986,-286.94783562319634,-29.598522451601955,tremor
59,7774163,0.425,-0.7555541377859131,-0.27617566976430735,-0.2661079042413696,24.237482446653434,-284.6185562876148,-30.319811466208385,tremor
60,7774173,0.435,-0.7724749328843428,-0.28393113204495146,-0.228195777242428,23.077413616789954,-281.89656871635157,-30.97106036128356,tremor
61,7774178,0.44,-0.7883093098778028,-0.29156270460999695,-0.19021172855714533,21.9113113462606,-278.80571919699344,-31.549003681004944,tremor
62,7774188,0.45,-0.803013382155483,-0.2990449452806022,-0.15224407381557042,20.747314338066037,-275.37164710411093,-32.050901631050706,tremor
63,7774193,0.455,-0.81654896709409,-0.30635306448919647,-0.11438069904189621,19.593508477315467,-271.62161229680635,-32.47456266368565,tremor
64,7774226,0.488,-0.8288837230109589,-0.3134630997407517,-0.07670845645225316,18.45787083264653,-267.5843008769995,-32.81835934232403,tremor
65,7774235,0.497,-0.839991254590824,-0.32035208713907615,-0.03931256023034724,17.348215364477973,-263.28961044766953,-33.08123702179948,tremor
66,7774240,0.502,-0.8498511861162821,-0.32699822796081107,-0.002275990626184922,16.27214044558783,-258.7684166201034,-33.26271501059266,tremor
67,7774245,0.507,-0.8584492016601047,-0.3333810482787184,0.03432108481779592,15.236978177105525,-254.05232314605334,-33.36288005481229,tremor
68,7774250,0.512,-0.8657770510607623,-0.3394815496374992,0.0704018640068253,14.249745409500704,-249.17339865674214,-33.382372198367406,tremor
69,7774255,0.517,-0.8718325200843493,-0.3452823487892465,0.10589342843503305,13.317096362406605,-244.1639035464297,-33.32236331528397,tremor
70,7774260,0.522,-0.8766193627947776,-0.35076780452718614,0.14072721890117224,12.44527677376945,-239.0560110310639,-33.18452885722039,tremor
71,7774270,0.532,-0.8801471939192863,-0.3559241297359513,0.1748394619846454,11.640079585787616,-233.881526832321,-32.971013591554886,tremor
72,7774280,0.542,-0.882431338982614,-0.3607394869152929,0.20817154162527554,10.906802281431812,-228.67161225810068,-32.684392306325414,tremor
73,7774284,0.546,-0.8834926402271647,-0.36520406563522545,0.24067031135517353,10.250206111732393,-223.45651562440207,-32.32762661261155,tremor
74,7774289,0.551,-0.8833572168431931,-0.36931014064263135,0.2722883439277107,9.674477589260777,-218.2653169350696,-31.904019068473836,tremor
75,7774294,0.556,-0.8820561787802124,-0.3730521096561709,0.3029841162625705,9.183192752694891,-213.1256904740533,-31.41716587301461,tremor
76,7774299,0.561,-0.8796252943549859,-0.3764265102460718,0.33272212878917723,8.779284815851472,-208.06368948344436,-30.870909336230127,tremor
77,7774304,0.566,-0.8761046129624888,-0.3794320155813128,0.3614729594405202,8.465015890372138,-203.1035564410242,-30.26929122876308,tremor
78,7774308,0.57,-0.8715380453951849,-0.38206940922110666,0.3892132537322865,8.24195350752876,-198.26756164791738,-29.616507965082068,tremor
79,7774313,0.575,-0.8659729055645164,-0.38434153951486766,0.4159256535490885,8.11095265846504,-193.5758719052593,-28.916868383251256,tremor
80,7774318,0.58,-0.8594594187960639,-0.3862532545426643,0.4415986684232361,8.072144023854214,-189.04645000541876,-28.174754664734404,tremor
81,7774323,0.585,-0.8520502033438415,-0.38781131886667586,0.46622649418557355,8.124928976627263,-184.69498460303276,-27.394586699713084,tremor
82,7774349,0.611,-0.8437997333388655,-0.3890243136648882,0.4898087848269803,8.267981819903461,-180.5348488068813,-26.580789958210172,tremor
83,7774354,0.616,-0.8347637930058276,-0.3899025220717987,0.512350384147404,8.49925956840117,-176.577084649616,-25.737766689837056,tremor
84,7774363,0.625,-0.8249989334939134,-0.39045780174426287,0.5338610241811713,8.816019389639978,-172.8304096363356,-24.869870070246886,tremor
85,7774368,0.63,-0.8145619447825282,-0.3907034467885089,0.5543549973745351,9.214843583035256,-169.30124106290634,-23.9813807721799,tremor
86,7774373,0.635,-0.8035093555000198,-0.39065404121770736,0.5738508090270305,9.69167169779239,-165.99373384692677,-23.07648538599286,tremor
87,7774378,0.64,-0.7918969728994094,-0.3903253060635514,0.5923708156837518,10.2418391085425,-162.90982816329645,-22.15925614968172,tremor
88,7774383,0.645,-0.7797794736300083,-0.3897339421568398,0.6099408541594368,10.86012113081839,-160.0493040418493,-21.233631554152538,tremor
89,7774388,0.65,-0.7672100534578741,-0.38889747043865186,0.6265898648707151,11.540781609593589,-157.40984108948754,-20.3033975412403,tremor
90,7774392,0.654,-0.7542401409498609,-0.38783407147630355,0.6423495122850447,12.277624875850634,-154.9870825242775,-19.37216918564504,tremor
91,7774407,0.669,-0.7409191766196331,-0.38656242564099835,0.6572538046439385,13.06405004031837,-152.77470368101876,-18.443372927199952,tremor
92,7774411,0.673,-0.7272944554478323,-0.38510155515831146,0.6713387147168647,13.893106763707484,-150.76448600823912,-17.520229580544235,tremor
93,7774416,0.678,-0.7134110273873089,-0.3834706689729495,0.684641803180653,14.757551876543653,-148.9463982524953,-16.60573848242128,tremor
94,7774421,0.683,-0.6993116478236661,-0.38168901108941194,0.6972018462536632,15.649906476067356,-147.30868693303805,-15.702663233290448,tremor
95,7774426,0.688,-0.6850367682811608,-0.37977571278555167,0.7090584693821058,16.562513359368356,-145.83797829399768,-14.813519546354328,tremor
96,7774431,0.693,-0.6706245570703305,-0.37774964888017604,0.7202517890125937,17.487594826735332,-144.5193936889054,-13.940565734904444,tremor
97,7774436,0.698,-0.6561109400157337,-0.3756292981046411,0.7308220647349674,18.41731098542074,-143.33667985354197,-13.085796349306545,tremor
98,7774441,0.703,-0.6415296527285527,-0.3734326076149086,0.7408093643043049,19.34381869280681,-142.27235481330553,-12.25093941555796,tremor
99,7774445,0.707,-0.626912297916615,-0.37117686181125575,0.7502532442287311,20.259331204147465,-141.3078692939481,-11.43745762309602,tremor
100,7774472,0.734,-0.6122884037592181,-0.3688785559232544,0.7591924487260582,21.156178451457624,-140.42378249948052,-10.646553655868754,tremor
101,7774486,0.748,-0.5976854821825283,-0.3665532752607903,0.7676646298846953,22.02686770212523,-139.59995006306954,-9.879179659586468,tremor
102,7774491,0.753,-0.5831290886179803,-0.3642155815768649,0.7757060917627815,22.864144153014895,-138.81572102821096,-9.136050608508906,tremor
103,7774496,0.758,-0.5686428870522434,-0.36187890852776305,0.7833515608544546,23.66105082787235,-138.05014010556033,-8.417661117248661,tremor
104,7774501,0.763,-0.554248725422853,-0.35955546861572407,0.7906339848042829,24.410986980935398,-137.28215132257532,-7.72430508218437,tremor
105,7774505,0.767,-0.5399667264302299,-0.35725617415469396,0.7975843605024533,25.107764087150645,-136.4907994862806,-7.0560974570496855,tremor
106,7774515,0.777,-0.5258153976898607,-0.35499057467765854,0.8042315918622864,25.745658436178196,-135.6554264254007,-6.412997461039721,tremor
107,7774520,0.782,-0.5118117631329155,-0.35276681283175115,0.8106023768098247,26.31945935540951,-134.75585959392356,-5.7948325607602245,tremor
108,7774525,0.787,-0.4979715150640825,-0.3505916002401069,0.8167211224244156,26.824512174018608,-133.7725912098278,-5.201322633940705,tremor
109,7774530,0.792,-0.4843091836894768,-0.3484702141089603,0.8226098868416782,27.2567552034792,-132.68694662615593,-4.632103794186831,tremor
110,7774534,0.796,-0.47083831857819347,-0.34640651458664234,0.8282883464958587,27.612750229054992,-131.48124106222994,-4.086751422788512,tremor
111,7774539,0.801,-0.45757167467993054,-0.34440298209906856,0.8337737875066116,27.889706242845214,-130.1389241488748,-3.5648020157430986,tremor
112,7774544,0.806,-0.44452139435480353,-0.3424607731537301,0.8390811204221195,28.085496361316427,-128.64471196217278,-3.065773516792621,tremor
113,7774549,0.811,-0.4316991764656834,-0.3405797924791171,0.844222918001999,28.19866803198115,-126.98470634123741,-2.589183875048273,tremor
114,7774554,0.816,-0.41911642396121135,-0.33875877890338923,0.8492094761392959,28.228446735644333,-125.14650131612773,-2.134567639884484,tremor
115,7774558,0.82,-0.4067843625068727,-0.3369954021194586,0.8540488982733851,28.174733435339753,-123.11927642448708,-1.7014904830636837,tremor
116,7774563,0.825,-0.39471412451373744,-0.3352863674600187,0.8587472036507157,28.038096019933008,-120.89387658606744,-1.2895616107253205,tremor
117,7774568,0.83,-0.3829167952286501,-0.33362752602083373,0.8633084594918077,27.819754951472042,-118.46287805530201,-0.8984440844349982,tremor
118,7774605,0.867,-0.3714034202021393,-0.33201398790800907,0.8677349364966737,27.521563265058983,-115.82063981231225,-0.527863098602541,tremor
119,7774610,0.872,-0.36018497620573636,-0.3304402369982307,0.872027286192966,27.145981007248228,-112.96333962162949,-0.17761225405759049,tremor
120,7774615,0.877,-0.34927231020342037,-0.3289002462902098,0.8761847375104203,26.696044159198625,-109.88899394493582,0.152442169842278,tremor
121,7774625,0.887,-0.338676052891421,-0.32738759353754754,0.8802053088469184,26.175328098491622,-106.59746100888847,0.46235898920476076,tremor
122,7774630,0.892,-0.32840651427666107,-0.3258955772383901,0.8840860309879518,25.587905716360538,-103.09042663710798,0.7521220125027264,tremor
123,7774634,0.896,-0.3184735686825979,-0.324417333146357,0.8878231756840581,24.93830041166815,-99.37137292347825,1.0216421403028138,tremor
124,7774639,0.901,-0.3088865356288338,-0.32294595129085,0.8914124845002122,24.23143431091584,-95.44553037068839,1.270761724256216,tremor
125,7774649,0.911,-0.29965406152850904,-0.3214745931385106,0.8948493926785899,23.47257220654805,-91.31981465987093,1.4992612079446657,tremor
126,7774654,0.916,-0.29078400538521626,-0.31999660808211516,0.8981292431321614,22.667261861389697,-87.00274968714153,1.7068680468785444,tremor
127,7774658,0.92,-0.2822833299101459,-0.31850564798482045,0.9012474862413807,21.821271485181512,-82.50437884483074,1.8932678926940985,tremor
128,7774663,0.925,-0.2741579979434873,-0.31699577809812735,0.904199861795462,20.940525328389455,-77.83616669874874,2.0581180106835437,tremor
129,7774668,0.93,-0.2664128729259141,-0.31546158236083127,0.9069825601468751,20.03103843565545,-73.010893211542,2.2010628582367544,tremor
130,7774673,0.935,-0.259051621532091,-0.3138982609094949,0.9095923603854594,19.0988516430408,-68.04254251966151,2.3217516787338575,tremor
131,7774678,0.94,-0.25207661648157775,-0.3123017176074861,0.9120267440502414,18.149967887999267,-62.94618804180132,2.4198578732449874,tremor
132,7774683,0.945,-0.245488837954847,-0.31066863553231056,0.9142839835577096,17.190290835066527,-57.73787543020042,2.4950998176379193,tremor
133,7774688,0.95,-0.23928777288743944,-0.308996538643467,0.9163632051210712,16.225566714962273,-52.4345046099916,2.547262705712765,tremor
134,7774693,0.955,-0.23347131258442314,-0.30728383827516476,0.9182644264609203,15.261330145113424,-47.05371191189533,2.5762209234257076,tremor
135,7774719,0.981,-0.22803565046158736,-0.30552986364419743,0.9199885700654544,14.302854561508262,-41.61375310790425,2.5819603957964476,tremor
136,7774724,0.986,-0.22297518312972306,-0.3037348762014626,0.9215374531547135,13.355107759716306,-36.13338801669418,2.564600298048134,tremor
137,7774734,0.996,-0.21828241930596728,-0.3019000683241519,0.9229137558491423,12.42271292759107,-30.631767250999474,2.5244134901945157,tremor
138,7774739,1.001,-0.21394790194365643,-0.3000275474520198,0.924120969350253,11.509915457965029,-25.128321616164012,2.4618450256923703,tremor
139,7774744,1.006,-0.20996014934539334,-0.298120307223915,0.9251633262184834,10.620555752369036,-19.642654615578966,2.37752810322741,tremor
140,7774748,1.01,-0.20630562081826848,-0.29618218742282826,0.9260457150800304,9.75804815629982,-14.19443845835099,2.2722968744572634,tremor
141,7774753,1.015,-0.20296871173526898,-0.2942178246002025,0.9267735823017947,8.925366094140678,-8.803313891987777,2.147195585215197,tremor
142,7774758,1.02,-0.1999317818376257,-0.2922325951709377,0.9273528233300832,8.125033395283392,-3.4887941019242725,2.0034836089823447,tremor
143,7774763,1.025,-0.19717521940299249,-0.2902325526055259,0.9277896664855911,7.359121724276767,1.7298271624197397,1.842636025026501,tremor
144,7774768,1.03,-0.1946775426410483,-0.28822436014351643,0.9280905520412587,6.629253948568234,6.833563152537083,1.6663394945104688,tremor
145,7774773,1.035,-0.1924155384572365,-0.2862152202486675,0.9282620093834526,5.936613197781639,11.80381736315876,1.4764832914148296,tremor
146,7774782,1.044,-0.19036443761138247,-0.28421280184341496,0.9283105349779975,5.281957288783346,16.622462498953578,1.2751454484376732,tremor
147,7774787,1.049,-0.18849812432782168,-0.28222516620994514,0.9282424737424833,4.665638112734825,21.271915266442782,1.0645740809046174,tremor
148,7774792,1.054,-0.18678937760460104,-0.28026069232843187,0.928063906280939,4.087625507291564,25.73520714237396,0.8471640561373764,tremor
149,7774797,1.059,-0.18521014082500514,-0.27832800233268407,0.9277805442860888,3.547535073799664,29.99605131962948,0.6254292842617649,tremor
150,7774816,1.078,-0.18373181578641282,-0.2764358876861009,0.9273976362786569,3.0446593507538657,34.03890608207792,0.4019710200905173,tremor
151,7774846,1.108,-0.1823255769052277,-0.2745932365994428,0.9269198857480925,2.578001724568716,37.84903490720461,0.17944268192323856,tremor
152,7774851,1.113,-0.1809627010900471,-0.27280896310963476,0.9263513836847728,2.146312447970987,41.41256363035364,-0.03948819546935045,tremor
153,7774856,1.118,-0.17961490854324014,-0.27109193810588605,0.9256955574241607,1.7481261430330923,44.716535015820064,-0.2521801602447115,tremor
154,7774861,1.123,-0.17825470950666578,-0.2694509224306718,0.9249551376085055,1.381800184784147,47.74896106482642,-0.456059409243486,tremor
155,7774870,1.132,-0.17685575169847703,-0.26789450201729786,0.924132144861417,1.0455533850957726,50.49887335770205,-0.6486618867489967,tremor
156,7774875,1.137,-0.17539316292900128,-0.26643102487551806,0.9232278974424666,0.7375044185739665,52.95637169193932,-0.827675057588889,tremor
157,7774880,1.142,-0.1738438832028513,-0.2650685396198021,0.922243040713258,0.45570944937468016,55.1126712519184,-0.990978489484092,tremor
158,7774885,1.147,-0.1721869805908421,-0.26381473516258713,0.9211775987315303,0.19819843106193266,56.960148539391646,-1.1366823905993084,tremor
159,7774890,1.152,-0.17040394535401635,-0.2626768811727489,0.9200310477274658,-0.0369904349476759,58.49238631308862,-1.263163274114931,tremor
160,7774899,1.161,-0.16847895725530881,-0.2616617689278628,0.9188024106360637,-0.251778576393588,59.70421783476958,-1.369095956507981,tremor
161,7774904,1.166,-0.1663991216974161,-0.2607756522636371,0.9174903712887807,-0.44801772195877254,60.59177079522184,-1.4534811352269976,tremor
162,7774909,1.171,-0.16415467124339056,-0.26002418843935926,0.9160934063340999,-0.6274637742681142,61.15251138093284,-1.5156678377647725,tremor
163,7774919,1.181,-0.1617391301489507,-0.25941237888854224,0.9146099324883866,-0.7917542221292716,61.3852890065987,-1.5553701001270628,tremor
164,7774929,1.191,-0.15914944067406234,-0.25894451000419233,0.9130384663407783,-0.9423893534436117,61.29038223664383,-1.5726773310297777,tremor
165,7774934,1.196,-0.15638605102398476,-0.2586240943134226,0.9113777936658131,-1.0807174512758795,60.869546311163,-1.5680579511740365,tremor
166,7774939,1.201,-0.15345296564726357,-0.25845381262009176,0.9096271450397583,-1.207924074848529,60.12606245362958,-1.5423560546744293,tremor
167,7774966,1.228,-0.15035775915115457,-0.25843545792648964,0.9077863745035842,-1.3250254420290994,59.06478877085278,-1.496781007092262,tremor
168,7774970,1.232,-0.14711155522040867,-0.2585698821694643,0.9058561380477596,-1.4328658404850065,57.69221210044041,-1.4328900606260786,tremor
169,7774975,1.237,-0.1437289717061434,-0.25885694699933737,0.9038380687806381,-1.5321189094776746,56.01649969679677,-1.3525642286585435,tremor
170,7774980,1.242,-0.14022803266604322,-0.25929547996503827,0.9017349457459075,-1.6232925670122729,54.04754926422223,-1.2579778190493256,tremor
171,7774985,1.247,-0.13663004780205162,-0.2598832375283448,0.8995508534430686,-1.7067373158801717,51.79703560327572,-1.1515621743881275,tremor
172,7774990,1.252,-0.132959459622434,-0.26061687631531044,0.8972913291614838,-1.782657641875284,49.278452038682325,-1.0359642987864397,tremor
173,7774999,1.261,-0.12924365882807698,-0.2614919339420621,0.8949634952631015,-1.8511262044529244,46.50714481474871,-0.9140011557168313,tremor
174,7775004,1.266,-0.12551276889203214,-0.2625028206476913,0.8925761735514601,-1.9121005026111613,43.500338745399944,-0.7886104967854314,tremor
175,7775009,1.271,-0.12179940152220255,-0.26364282284537754,0.8901399788585742,-1.9654416726175274,40.27715256230199,-0.6627991315404967,tremor
176,7775018,1.28,-0.11813838558797056,-0.2649041195714018,0.8876673889815336,-2.010935042050375,36.85860258461257,-0.5395895825240544,tremor
177,7775023,1.285,-0.11456647304231413,-0.26627781266982964,0.8851727881224529,-2.048312032796927,33.26759350350563,-0.42196609532131363,tremor
178,7775028,1.29,-0.1111220262562871,-0.2677539713930224,0.8826724810456241,-2.077272980806263,29.528895206009985,-0.31282099082094134,tremor
179,7775033,1.295,-0.10784469187899266,-0.26932169191733135,0.8801846752840876,-2.0975104270782854,25.66910464436221,-0.21490235005668423,tremor
180,7775038,1.3,-0.10477506674378756,-0.27096917206222426,0.8777294289267369,-2.1087324336036573,21.71659179847817,-0.13076400433867186,tremor
181,7775043,1.305,-0.10195436140629194,-0.2726838012546525,0.8753285618183523,-2.1106854872685883,17.701428806501152,-0.06271876320661314,tremor
182,7775048,1.31,-0.0994240666190832,-0.27445226549644525,0.8730055284252803,-2.103176569728355,13.655301382379518,-0.012795751986572696,tremor
183,7775053,1.315,-0.0972256274611779,-0.2762606667712288,0.8707852511667981,-2.0860939878951923,9.611401724320586,0.017297349655729558,tremor
184,7775057,1.319,-0.09540012901637006,-0.2780946559711209,0.868693913684772,-2.059426576012301,5.604302258893391,0.026206479172306056,tremor
185,7775062,1.324,-0.09398799651872031,-0.27993957803630753,0.8667587143112992,-2.0232808971008063,1.669809771060195,0.012957211394093273,tremor
186,7775093,1.355,-0.0930287118463655,-0.2817806275891894,0.8650075808760047,-1.9778960916884967,-2.155200256400914,-0.023025780376340885,tremor
187,7775098,1.36,-0.09256054723654081,-0.2836030129222088,0.8634688489378377,-1.923656048516824,-5.832968935661912,-0.0819060575321695,tremor
188,7775103,1.365,-0.09262031620743393,-0.28539212579152895,0.8621709064723669,-1.86109860836267,-9.325058364207422,-0.16342959801669113,tremor
189,7775108,1.37,-0.09324314099247681,-0.2871337141187599,0.8611418089134105,-1.790921559983947,-12.592574195479923,-0.26692570851032504,tremor
190,7775113,1.375,-0.09446223537017127,-0.28881405445091474,0.8604088691618667,-1.7139852457333815,-15.596405120526114,-0.3913143975322201,tremor
191,7775118,1.38,-0.0963087015947181,-0.29042012089540276,0.8599982277014715,-1.6313116601900244,-18.297477696933775,-0.5351198176291251,tremor
192,7775123,1.385,-0.09881134013406163,-0.29193974722817384,0.859934408316096,-1.5440799943032937,-20.657024736617092,-0.6964892917072713,tremor
193,7775127,1.389,-0.10199647102227771,-0.2933617789529403,0.8602398651259949,-1.4536186473258492,-22.63686530858542,-0.8732173726113404,tremor
194,7775132,1.394,-0.10588776576674898,-0.2946762122516521,0.8609345267920457,-1.3613937975487413,-24.199694316296547,-1.0627743431484533,tremor
195,7775142,1.404,-0.11050608887387765,-0.2958743169991038,0.8620353438101613,-1.268994689174587,-25.30937955546115,-1.2623385425837073,tremor
196,7775147,1.409,-0.11586934814805697,-0.2969487413087486,0.8635558448558283,-1.1781158553681272,-25.93126413108948,-1.4688319031896917,tremor
197,7775152,1.414,-0.12199235297543369,-0.29789359542528016,0.865505708154054,-1.0905365555208566,-26.032472098509924,-1.6789580970480704,tremor
198,7775157,1.419,-0.12888667984309082,-0.29870451317638524,0.8678903538455573,-1.0080977571622225,-25.582215180269095,-1.889242730406852,tremor
199,7775162,1.424,-0.1365605443938617,-0.2993786896362145,0.8707105632891662,-0.9326770395057675,-24.55209838905682,-2.0960750799286756,tremor
200,7775166,1.428,-0.145018679407834,-0.2999148941317599,0.8739621311691643,-0.8661618369432693,-22.91642234894201,-2.2957509381213805,tremor
201,7775181,1.443,-0.15426221826129768,-0.3003134582356676,0.8776355561449571,-0.8104214778417473,-20.652480050302866,-2.484516218653115,tremor
202,7775186,1.448,-0.1642885836674635,-0.30057623893000196,0.8817157755633737,-0.7672785072449068,-17.740845697405973,-2.658611061046049,tremor
203,7775211,1.473,-0.17509138187608667,-0.30070655768771853,0.8861819494199166,-0.7384798108181421,-14.16565320916815,-2.8143142622019504,tremor
204,7775216,1.478,-0.18666030302375122,-0.3007091167870482,0.8910072982713823,-0.7256680795488017,-9.914861804391583,-2.947987938537343,tremor
205,7775221,1.483,-0.1989810289912449,-0.3005898947196231,0.8961589991453884,-0.7303541677659241,-4.980505927931998,-3.0561223702938887,tremor
206,7775226,1.488,-0.2120351509213956,-0.3003560230341886,0.901598142664169,-0.7538908987568208,0.6410734566575073,-3.135380980425917,tremor
207,7775231,1.493,-0.22580009943283522,-0.3000156473346092,0.9072797536345523,-0.7974488608251333,6.94901945967823,-3.1826453448162915,tremor
208,7775245,1.507,-0.24024909145984982,-0.2995777754045787,0.9131528763123171,-0.8619947109242075,13.937775282001013,-3.1950600248301937,tremor
209,7775250,1.512,-0.25535109846239484,-0.29905211556751166,0.9191607244948206,-0.9482724633092603,21.596929439193566,-3.1700768767883147,tremor
210,7775255,1.517,-0.27107084137264087,-0.2984489084285122,0.9252408955974297,-1.0567881887317554,29.911094119719206,-3.1054983509290075,tremor
211,7775265,1.527,-0.2873688179570087,-0.2977787551098899,0.9313256469903752,-1.187798487811857,38.85982059446717,-2.9995191690950054,tremor
212,7775274,1.536,-0.3042013681777992,-0.2970524450044161,0.9373422321658083,-1.341303032149381,48.41755540330734,-2.8507656821788867,tremor
213,7775279,1.541,-0.32152078259292594,-0.29628078594763363,0.9432132937979856,-1.5170413886827478,58.55364067482945,-2.6583321603035936,tremor
214,7775284,1.546,-0.33927545786318825,-0.29547443955943326,0.9488573104499554,-1.714494254629245,69.23236141508181,-2.4218132584600407,tremor
215,7775289,1.551,-0.35741010213206675,-0.29464376432448625,0.9541890935385581,-1.9328891289712868,80.41304196179026,-2.1413319238052413,tremor
216,7775294,1.556,-0.37586599152621564,-0.29379866876539,0.9591203311457723,-2.1712103312718334,92.05019307289328,-1.8175620627323428,tremor
217,7775299,1.561,-0.3945812774227799,-0.2929484768071016,0.963560175295811,-2.428213153352033,104.09371033370715,-1.4517453580046529,tremor
218,7775304,1.566,-0.4134913425501046,-0.2921018071360228,0.9674158693410889,-2.702441801637051,116.48912375549851,-1.045701708839469,tremor
219,7775309,1.571,-0.4325292025110818,-0.2912664680257315,0.9705934120629589,-2.992250667976224,129.17789762233954,-0.6018328521485331,tremor
220,7775334,1.596,-0.45162594799856143,-0.2904493687415842,0.9729982549552783,-3.295828365376129,142.09777883839018,-0.12311880942045285,tremor
221,7775339,1.601,-0.4707112218539523,-0.289656448261499,0.9745360288974565,-3.6112238916653228,155.18319125645309,0.3868931046667934,tremor
222,7775344,1.606,-0.4897137242559652,-0.28889262168144375,0.9751132960379294,-3.936374245797154,168.36567277747037,0.9241068727909465,tremor
223,7775349,1.611,-0.5085617387810069,-0.288161744338813,0.9746383222235375,-4.269132822707965,181.57435145816765,1.4839040094635303,tremor
224,7775354,1.616,-0.5271836718927769,-0.2874665934080521,0.9730218647669724,-4.60729795143534,194.73645647171608,2.0611773607864325,tremor
225,7775358,1.62,-0.545508598576113,-0.2868088665083093,0.9701779697865649,-4.948641007365962,207.77785949144038,2.6503722698457897,tremor
226,7775363,1.625,-0.5634668072483164,-0.2861891967038626,0.96602477281295,-5.290933609613986,220.62364183869727,3.2455347959475738,tremor
227,7775368,1.63,-0.5809903376585751,-0.2856071831576329,0.9604852958559285,-5.6319734987371355,233.1986825020897,3.8403665717081386,tremor
228,7775373,1.635,-0.5980135061333797,-0.28506143659878075,0.953488233673841,-5.969608773549958,245.42826187733553,4.42828578056804,tremor
229,7775378,1.64,-0.6144734131732265,-0.28454963867223565,0.94496872159382,-6.301760247023023,257.23867579559493,5.002493634347294,tremor
230,7775383,1.645,-0.6303104289990844,-0.28406861413901313,0.9348690768991784,-6.6264417595303815,268.5578541121248,5.556045625502494,tremor
231,7775388,1.65,-0.6454686531465522,-0.2836144147825791,0.9231395055345945,-6.941778362173909,279.31597783043793,6.081926724557806,tremor
232,7775398,1.66,-0.6598963445913403,-0.28318241374346775,0.9097387656865213,-7.246022351226023,289.4460884550344,6.573129593570413,tremor
233,7775407,1.669,-0.6735463191623585,-0.2827674088517397,0.8946347796836854,-7.5375671923024266,298.88468301725806,7.02273479478466,tremor
234,7775412,1.674,-0.6863763111720627,-0.2823637333597703,0.8778051856437739,-7.81495941437788,307.57228803336835,7.423991893987058,tremor
235,7775417,1.679,-0.698349296285415,-0.2819653723066925,0.8592378203879549,-8.076908575956573,315.4540055712148,7.770400297245691,tremor
236,7775422,1.684,-0.7094337726746047,-0.281566082585219,0.8389311253815415,-8.322295408264704,322.48002465363305,8.055788624627429,tremor
237,7775426,1.688,-0.7196039974767082,-0.281159514647287,0.8168944678638207,-8.550178224682073,328.6060914152634,8.274391417112206,tremor
238,7775458,1.72,-0.7288401754894835,-0.28073933368995,0.7931483699226689,-8.75979765482527,333.79393173290873,8.420921989147772,tremor
239,7775462,1.724,-0.737128596914732,-0.28029933811608443,0.7677246390588556,-8.95057972136104,338.0116204545838,8.490640274045461,tremor
240,7775477,1.739,-0.7444617208282992,-0.27983357307320167,0.7406663947653956,-9.122137236312314,341.2338918826207,8.479414563461876,tremor
241,7775482,1.744,-0.7508382010138333,-0.2793364369463369,0.7120279867938937,-9.274269461505794,343.4423868651078,8.383776123698016,tremor
242,7775487,1.749,-0.7562628509780884,-0.2788027788250346,0.6818748020459764,-9.40695996345002,344.62583272628314,8.200965789638605,tremor
243,7775491,1.753,-0.7607465454916662,-0.27822798518158526,0.6502829583548092,-9.520372599834175,344.7801532682417,7.928971793187653,tremor
244,7775496,1.758,-0.7643060569260054,-0.277608054281541,0.6173388847585319,-9.614845600892457,343.90850712972366,7.566558267781661,tremor
245,7775501,1.763,-0.7669638259542786,-0.2769396571851577,0.58313878918987,-9.690883748857889,342.02125384721256,7.113284068943076,tremor
246,7775506,1.768,-0.7687476677565769,-0.27622018457311864,0.5477880158194435,-9.749148707417532,339.135848018068,6.569511748993077,tremor
247,7775511,1.773,-0.7696904165986079,-0.2754477790236974,0.5114002956193501,-9.790447606854146,335.2766630189308,5.936406713278249,tremor
248,7775515,1.777,-0.7698295134169079,-0.2746213527630365,0.4740968950926143,-9.815720046970103,330.47474679154254,5.215926762300824,tremor
249,7775520,1.782,-0.7692065427263391,-0.27374059128673617,0.4360056695807502,-9.826023736519739,324.767513278736,4.410802389324982,tremor
250,7775525,1.787,-0.7678667266592195,-0.2728059435909503,0.39726002915306213,-9.822519041921366,318.19837418136814,3.5245083579249616,tremor
251,7775535,1.797,-0.7658583851572578,-0.27181860003866176,0.35799782682795567,-9.806452766845068,310.81631681250593,2.561227228920766,tremor
252,7775549,1.811,-0.7632323721988042,-0.2707804591109299,0.31836018079218537,-9.779141526111932,302.67543492502176,1.5258056386370766,tremor
253,7775554,1.816,-0.7600414984070303,-0.26969408444945625,0.2784902443453613,-9.74195511129045,293.83442040891936,0.4237042442975936,tremor
254,7775581,1.843,-0.7563399504146139,-0.2685626536890951,0.2385319394125945,-9.69630027069077,284.35602456651065,-0.7390576605945837,tremor
255,7775586,1.848,-0.7521827169416345,-0.26738990061930284,0.19862867144803398,-9.643605341802427,274.30649813682095,-1.955961805471053,tremor
256,7775590,1.852,-0.7476250307007357,-0.2661800522226068,0.1589220451074965,-9.585306177051203,263.7550192568657,-3.2200538091586117,tremor
257,7775595,1.857,-0.7427218340521641,-0.2649377621375848,0.11955060087859744,-9.522833790032115,252.7731180850317,-4.524008218883516,tremor
258,7775600,1.862,-0.7375272748954865,-0.26366804209543176,0.08064859270205027,-9.457604114781226,241.4341059185562,-5.860194760826826,tremor
259,7775605,1.867,-0.7320942377069796,-0.26237619287912795,0.04234482548493518,-9.391010212919209,229.81251543626934,-7.220744941507159,tremor
260,7775610,1.872,-0.7264739129949702,-0.2610677363359526,0.004761569467769379,-9.324417183357463,217.98355733623515,-8.59761824718367,tremor
261,7775615,1.877,-0.7207154068148858,-0.25974834991612794,-0.03198643409082447,-9.25915992898029,206.0225972255348,-9.98266729042991,tremor
262,7775620,1.882,-0.7148653904160641,-0.25842380509385005,-0.06779286426983833,-9.196543816291516,194.00465521966575,-11.367701342980233,tremor
263,7775624,1.886,-0.7089677886319241,-0.2570999108404169,-0.1025606001882259,-9.137848128319693,182.00392936419374,-12.744547770926468,tremor
264,7775629,1.891,-0.7030635043171581,-0.255782463060033,-0.136202383274736,-9.084332058324437,170.09334273880813,-14.10511095539153,tremor
265,7775634,1.896,-0.697190175019616,-0.25447720057256884,-0.1686413590802509,-9.037242823779382,158.34411298056256,-15.44142834510222,tremor
266,7775639,1.901,-0.6913819571891378,-0.25318976784616115,-0.1998114981041184,-8.99782530340661,146.82534200804787,-16.74572335324932,tremor
267,7775643,1.905,-0.6856693326111198,-0.25192568426393647,-0.22965789727413274,-8.9673324274053,135.60362298514343,-18.010454883628142,tremor
268,7775653,1.915,-0.6800789314532044,-0.2506903192766855,-0.25813696551375165,-8.947035397354925,124.74266108186491,-19.22836335078053,tremor
269,7775658,1.92,-0.6746333663830153,-0.2494888723768447,-0.2852164982272715,-8.93823269078818,114.30290443433701,-20.39251314237168,tremor
270,7775663,1.925,-0.6693510727278393,-0.24832635646732615,-0.3108756465342201,-8.942256729877382,104.34118195654965,-21.49633155341695,tremor
271,7775668,1.93,-0.6642461506979316,-0.2472075829374495,-0.33510478771156105,-8.960477081101544,94.91034538637487,-22.53364429679057,tremor
272,7775673,1.935,-0.6593282073684684,-0.24613714663963743,-0.3579053036026211,-8.994299116551867,86.05891417664138,-23.498707763520116,tremor
273,7775677,1.939,-0.6546021984470253,-0.2451194090090453,-0.3792892737880989,-9.045157206777864,77.83072351692392,-24.386238275192326,tremor
274,7775710,1.972,-0.6500682728127837,-0.2441584777851721,-0.39927909015411234,-9.11450171665232,70.2645777990662,-25.19143864443431,tremor
275,7775715,1.977,-0.6457216262836964,-0.24325818216096137,-0.4179069991885493,-9.203779331786064,63.393914093824655,-25.910022433993504,tremor
276,7775724,1.986,-0.6415523747886788,-0.24242204266531298,-0.43521457791447427,-9.31440656643755,57.24648248747422,-26.538236358824143,tremor
277,7775729,1.991,-0.6375454606544343,-0.24165323563242988,-0.45125214882152803,-9.447736719704924,51.844052154156316,-27.07288127233979,tremor
278,7775734,1.996,-0.6336806085305348,-0.24095455268334096,-0.46607813846875534,-9.60502106075632,47.20215354683434,-27.511332087615397,tremor
279,7775739,2.001,-0.6299323491247867,-0.24032835621924142,-0.47975838361860473,-9.787365601243282,43.32986793492549,-27.85155680517952,tremor
280,7775758,2.02,-0.6262701291506731,-0.23977653250062705,-0.4923653878848812,-9.995685389401684,40.22967567792285,-28.092134578286874,tremor
281,7775763,2.025,-0.6226585246266874,-0.23930044445604193,-0.503977531058993,-10.23065875794787,37.89737410764753,-28.232272485329123,tremor
282,7775768,2.03,-0.6190575719404771,-0.23890088689498515,-0.5146782327163031,-10.492684286997525,36.32207465744141,-28.271820440655794,tremor
283,7775773,2.035,-0.6154232269669075,-0.2385780472146607,-0.524555071660989,-10.781843319196287,35.48628687639201,-28.21128349632336,tremor
284,7775777,2.039,-0.6117079571327512,-0.23833147489049614,-0.5336988634811038,-11.097870656481826,35.36609427018513,-28.051830686134668,tremor
285,7775787,2.049,-0.607861464882024,-0.2381600629408771,-0.5422027000417026,-11.440135622559135,35.931423745807855,-27.7952995344536,tremor
286,7775792,2.054,-0.603831533852664,-0.23806204411227663,-0.5501609570350366,-11.80763507000119,37.14640706449705,-27.44419538229119,tremor
287,7775797,2.059,-0.5995649816214534,-0.23803500373825895,-0.5576682784877558,-12.198999199403044,38.96982928435261,-27.001684769050204,tremor
288,7775802,2.064,-0.5950086955094768,-0.23807591011481896,-0.5648185500876415,-12.61251026529767,41.35565577469283,-26.47158225302863,tremor
289,7775829,2.091,-0.5901107210502022,-0.2381811618698649,-0.5717038760088333,-13.046133396836122,44.25362612545872,-25.858330245136962,tremor
290,7775839,2.101,-0.5848213667536244,-0.23834665030847232,-0.5784135762451181,-13.497557925203129,47.60990045793983,-25.166971640066375,tremor
291,7775844,2.106,-0.5790942844665112,-0.23856783330481618,-0.5850332229406497,-13.964246913914934,51.36774178327838,-24.40311524189548,tremor
292,7775854,2.116,-0.5728874829827733,-0.23883981628483306,-0.5916437344941564,-14.443492191349447,55.46821764395262,-23.572894204097945,tremor
293,7775859,2.121,-0.5661642345790787,-0.23915743545487908,-0.598320545150913,-14.93247215671616,59.85090537602107,-22.682917931012305,tremor
294,7775864,2.126,-0.5588938400798598,-0.23951533873444852,-0.6051328655545957,-15.428309885352808,64.45458746750673,-21.74021807760756,tremor
295,7775869,2.131,-0.5510522271538913,-0.23990806067313897,-0.6121430467267316,-15.928129444028643,69.21792598091328,-20.75218939883532,tremor
296,7775874,2.136,-0.5426223674681502,-0.24033008869858785,-0.6194060566253254,-16.42910874214352,74.08010737387124,-19.726526246762532,tremor
297,7775879,2.141,-0.5335945096429682,-0.24077591911050897,-0.6269690751339978,-16.92852765819979,78.98145110100452,-18.671155531850246,tremor
298,7775883,2.145,-0.5239662354343811,-0.24124010215200528,-0.6348712102295733,-17.423810582841533,83.86397709461076,-17.594166983392395,tremor
299,7775898,2.16,-0.5137423552857888,-0.24171727618459463,-0.6431433352448409,-17.91256289973851,88.67192863846921,-16.5037415687127,tremor
300,7775902,2.164,-0.5029346657463778,-0.24220219146720273,-0.6518080446019883,-18.39260127145818,93.35224829691296,-15.40807895359162,tremor
301,7775907,2.169,-0.4915615949550754,-0.24268972433818287,-0.660879723140555,-18.861977893139787,97.85500543917871,-14.315324895483387,tremor
302,7775912,2.174,-0.47964776339493725,-0.24317488279172594,-0.6703647222051117,-19.31899910136634,102.13377449097985,-13.233499442555232,tremor
303,7775917,2.179,-0.46722348565250743,-0.2436528045891683,-0.6802616339998213,-19.762238859968722,106.1459633582095,-12.170426757380637,tremor
304,7775927,2.189,-0.45432423546166845,-0.24411874918847634,-0.6905616543633926,-20.190547678790562,109.85309155085928,-11.13366730097147,tremor
305,7775952,2.214,-0.4409900915587847,-0.24456808491326681,-0.7012490230729534,-20.603057455627862,113.22101746362908,-10.130453020175558,tremor
306,7775962,2.224,-0.42726517658434005,-0.2449962728851364,-0.7123015300717237,-20.99918257616751,116.22011413651231,-9.167626099670203,tremor
307,7775967,2.229,-0.4131970961896144,-0.24539884925777408,-0.7236910756858675,-21.378617394872563,118.82539275955665,-8.251581780622294,tremor
308,7775972,2.234,-0.39883638131950555,-0.2457714071711275,-0.7353842730116378,-21.741330013974423,121.01657336540624,-7.38821571275226,tremor
309,7775977,2.239,-0.38423593379906307,-0.24610957957997692,-0.7473430812281481,-22.087552146048957,122.77810266664805,-6.582876288052504,tremor
310,7775982,2.244,-0.36945047397320163,-0.2464090237466726,-0.7595254595479655,-22.417764821736068,124.09911979014088,-5.840322390368967,tremor
311,7775986,2.248,-0.3545359890683884,-0.24666540779713364,-0.7718860327104482,-22.732679776150203,124.97337158552787,-5.164686970307925,tremor
312,7775996,2.258,-0.3395491818594545,-0.24687439939587744,-0.7843767601890332,-23.033216482352934,125.3990800980696,-4.559446805877753,tremor
313,7776006,2.268,-0.3245469208132272,-0.24703165635204194,-0.7969476024863111,-23.320474968663905,125.3787656101841,-4.027398729080577,tremor
314,7776011,2.273,-0.30958569482413634,-0.24713281885127727,-0.8095471789278315,-23.595704737809335,124.91902931854256,-3.570642490656101,tremor
315,7776016,2.278,-0.29472107762073585,-0.24717350302350288,-0.8221234121674985,-23.860270281197742,124.03030018856002,-3.1905703123600664,tremor
316,7776021,2.283,-0.2800072085757084,-0.24714929569062846,-0.8346241551483534,-24.11561383133594,122.72655081159503,-2.887863055919914,tremor
317,7776026,2.288,-0.26549629773396616,-0.24705575036104518,-0.846997796527429,-24.363216103505927,121.02498721870799,-2.6624928341868417,tremor
318,7776031,2.293,-0.25123816324522347,-0.24688838480540326,-0.8591938406170784,-24.604555837096605,118.94571763389932,-2.5137318096131955,tremor
319,7776035,2.297,-0.23727980903172194,-0.2466426808120849,-0.8711634577882209,-24.841068958775182,116.51140512380795,-2.4401668692380314,tremor
320,7776045,2.307,-0.22366504951092817,-0.2463140869347617,-0.8828600011018579,-25.074108160395113,113.74690904410288,-2.4397198333178243,tremor
321,7776050,2.312,-0.21043418666385252,-0.24589802516853654,-0.8942394847620904,-25.304903623579268,110.67892010537724,-2.509672845163186,tremor
322,7776076,2.338,-0.19762374287964918,-0.2453899024917831,-0.9052610198965171,-25.534525542129693,107.33559378341837,-2.646698598695394,tremor
323,7776090,2.352,-0.18526625104192565,-0.244785128065874,-0.9158872032534681,-25.76384900622294,103.7461866701522,-2.8468950800280366,tremor
324,7776095,2.357,-0.17339010149657086,-0.24407913660019065,-0.926084454742258,-25.993521732660078,99.94070018380609,-3.105824520424898,tremor
325,7776100,2.362,-0.16201944407483274,-0.24326741801314472,-0.9358233003824689,-26.223935066046785,95.94953581160975,-3.418556273639413,tremor
326,7776105,2.367,-0.1511741423629875,-0.24234555313138034,-0.9450785981520158,-26.45519864465466,91.80316574041592,-3.779713340422141,tremor
327,7776110,2.372,-0.14086977689643437,-0.24130925484485266,-0.9538297053356222,-26.68711912051568,87.53182235237922,-4.183522269920657,tremor
328,7776115,2.377,-0.13111769379263805,-0.24015441391649686,-0.9620605871412832,-26.91918333538569,83.16520964354085,-4.6238661727399215,tremor
329,7776120,2.382,-0.1219250953803404,-0.23887714853606098,-0.9697598674505368,-27.150546368465495,78.73223917517548,-5.094340580714913,tremor
330,7776124,2.386,-0.11329516951534145,-0.237473856691035,-0.976920823514562,-27.380024876342805,74.2607926943368,-5.588311880223472,tremor
331,7776129,2.391,-0.10522725441439176,-0.2359412704778387,-0.9835413271573191,-27.606096132335324,69.77751306159563,-6.098978027114843,tremor
332,7776134,2.396,-0.0977170359330019,-0.23427651156582924,-0.9896237355887468,-27.826903135856032,65.30762460251117,-6.619431221640743,tremor
333,7776139,2.401,-0.09075677422527878,-0.23247714712865264,-0.9951747352824529,-28.04026609940239,60.87478345908777,-7.1427221814814,tremor
334,7776143,2.405,-0.08433555663731664,-0.2305412456489059,-1.000205142568195,-28.243700529828697,56.50095796442212,-7.661925600975449,tremor
335,7776148,2.41,-0.07843957349815198,-0.22846743206495276,-1.0047296646739872,-28.434442001036675,52.206338506717195,-8.170206326403049,tremor
336,7776153,2.415,-0.07305241319224219,-0.2262549417507638,-1.0087666249738019,-28.609477567354425,48.009275801011825,-8.660885712156293,tremor
337,7776158,2.42,-0.06815537254075202,-0.22390367279453072,-1.0123376562019077,-28.76558359344569,43.926245967271726,-9.127507552465753,tremor
338,7776163,2.425,-0.06372777810826608,-0.22141423596905807,-1.0154673654269013,-28.89936958401509,39.97184034557143,-9.563902910053224,tremor
339,7776167,2.429,-0.05974731361638404,-0.21878800167140688,-1.0181829746731386,-29.007327393762907,36.158777587269995,-9.96425308892744,tremor
340,7776172,2.434,-0.05619034822235188,-0.2160271429604175,-1.0205139412605728,-29.085884994221495,32.49793526606166,-10.323149925559667,tremor
341,7776198,2.46,-0.053032260054483145,-0.21313467365223465,-1.0224915622191064,-29.131463778213675,28.99839807106969,-10.635652503313942,tremor
342,7776208,2.47,-0.05024774914953489,-0.2101144802646082,-1.0241485675116193,-29.1405382064053,25.667519591133658,-10.89733933563883,tremor
343,7776213,2.475,-0.047811133903626166,-0.20697134645683612,-1.0255187072254806,-29.109696462994037,22.51099479014089,-11.10435502890039,tremor
344,7776217,2.479,-0.04569662543887635,-0.2037109685265638,-1.026636338279744,-29.03570071300368,19.532940511131066,-11.253450446506035,tremor
345,7776222,2.484,-0.04387857497721594,-0.20033996052732822,-1.0275360164442504,-28.915545555975434,16.735981705832845,-11.342015465967721,tremor
346,7776227,2.489,-0.04233169038381274,-0.19686584767682624,-1.0282520995067543,-28.74651334224497,14.121341510913059,-11.368103546380802,tremor
347,7776232,2.494,-0.04103121938889154,-0.19329704693201624,-1.0288183672366478,-28.526225135821605,11.688933723420101,-11.330447489955,tremor
348,7776237,2.499,-0.039953098471975944,-0.18964283389831676,-1.029267663401807,-28.252686251263697,9.43745662523588,-11.228465973180752,tremor
349,7776242,2.504,-0.03907406785560385,-0.185913295597591,-1.0296315645406051,-27.924325449375687,7.364487448721617,-11.062260632583753,tremor
350,7776247,2.509,-0.03837175439245981,-0.1821192690241586,-1.0299400795218214,-27.54002704341348,5.466577052484034,-10.832603710796572,tremor
351,7776252,2.514,-0.03782472526230447,-0.17827226585079453,-1.030221383188411,-27.099155342200135,3.739344581783875,-10.540916492730185,tremor
352,7776257,2.519,-0.03741251628012355,-0.17438438408888982,-1.0305015866199192,-26.60157103867052,2.177572021361459,-10.189238978028744,tremor
353,7776262,2.524,-0.03711563923986564,-0.17046820794021528,-1.0308045457983561,-26.047639341421842,0.7752986136990817,-9.780191433350186,tremor
354,7776267,2.529,-0.03691557308341808,-0.16653669748335787,-1.0311517097497107,-25.438229841395053,-0.4740848774427289,-9.316928637426955,tremor
355,7776272,2.534,-0.03679474380768491,-0.1626030701971523,-1.0315620085730801,-24.774708302475496,-1.5777421193103145,-8.803087768270569,tremor
356,7776276,2.538,-0.036736497924399314,-0.15868067661951268,-1.032051781164215,-24.05892075775338,-2.5432975207560795,-8.242730983951253,tremor
357,7776281,2.543,-0.03672507398958896,-0.154782872660562,-1.032634741880315,-23.29317047466436,-3.3787431620094237,-7.640283818068063,tremor
358,7776286,2.548,-0.036745576243892866,-0.15092289122629718,-1.0333219848590185,-22.480188513748768,-4.09234675700296,-7.000470552770551,tremor
359,7776291,2.553,-0.03678395377051815,-0.14711371585888647,-1.034122024173211,-21.623098738988876,-4.6925612426953105,-6.328247751288095,tremor
360,7776296,2.558,-0.036826987800657345,-0.143367959059303,-1.0350408674518932,-20.725378235090606,-5.187936788792644,-5.628737132983742,tremor
361,7776322,2.584,-0.036862288892366465,-0.1396977478252304,-1.036082120009451,-19.79081414339117,-5.5870362206720205,-4.907158959938289,tremor
362,7776327,2.589,-0.036878304705581816,-0.13611461870944117,-1.037247115901181,-18.82345794181133,-5.898355018282584,-4.168767074262009,tremor
363,7776332,2.594,-0.03686433805346028,-0.13262942437723482,-1.0385350716945527,-17.827578167932952,-6.130247146122021,-3.4187866728520744,tremor
364,7776342,2.604,-0.036810573931507586,-0.12925225321479406,-1.0399432581856292,-16.807612524284036,-6.2908579307370704,-2.662355820942706,tremor
365,7776347,2.609,-0.03670811343029248,-0.12599236302612396,-1.041467184889052,-15.768120222310124,-6.388065010990154,-1.9044715834590678,tremor
366,7776352,2.614,-0.03654901191506109,-0.12285812929067615,-1.0431007919614546,-14.713735330132701,-6.429428073992264,-1.1499415016872694,tremor
367,7776356,2.618,-0.03632631864394034,-0.11985700789134138,-1.044836644318973,-13.649121799613594,-6.4221477171008905,-0.40334097596628304,tremor
368,7776362,2.624,-0.03603411508609479,-0.1169955117175682,-1.0466661230806718,-12.578930763409607,-6.373033397310632,0.3310230562907695,tremor
369,7776366,2.628,-0.035667549546648684,-0.114279200138222,-1.0485796100821592,-11.50776060965501,-6.288480078847123,1.049141928729178,tremor
370,7776376,2.638,-0.035222866234815735,-0.11171268003974011,-1.0505666620072411,-10.440120255998272,-6.174452893352839,1.747328489279337,tremor
371,7776386,2.648,-0.034697427538675364,-0.10929961693822657,-1.0526161716204419,-9.380395951717153,-6.036478907306074,2.4222338881885945,tremor
372,7776391,2.653,-0.034089728898197245,-0.10704275459149531,-1.054716514586724,-8.332821833198667,-5.879644967172249,3.0708581694530177,tremor
373,7776401,2.663,-0.033399406193905176,-0.10494394154473038,-1.0568556813699155,-7.301454343054573,-5.708600575249329,3.6905550550901043,tremor
374,7776410,2.672,-0.032627235895015164,-0.10300416312243127,-1.0590213946385127,-6.2901504998541125,-5.527564834337781,4.279031419538728,tremor
375,7776415,2.677,-0.03177512827786634,-0.1012235775080287,-1.0612012134125317,-5.302549882707987,-5.340336662399838,4.834342033707261,tremor
376,7776420,2.682,-0.030846113834766584,-0.09960155471091316,-1.0633826258079235,-4.342060085449838,-5.150307677079091,5.354880213955546,tremor
377,7776445,2.707,-0.02984432260794766,-0.0981367173942258,-1.0655531326436838,-3.411845311419759,-4.960477339477079,5.839365040836622,tremor
378,7776450,2.712,-0.028774955709549275,-0.09682698271840216,-1.0677003243576937,-2.5148177297180228,-4.773470093512812,6.286825817147246,tremor
379,7776455,2.717,-0.027644247860262424,-0.09566960454284677,-1.0698119536348802,-1.6536311993026243,-4.591554322965951,6.696584416686124,tremor
380,7776460,2.722,-0.026459419535298102,-0.09466121551944696,-1.0718760059046237,-0.8306769860863092,-4.416662967510436,7.068236136002145,tremor
381,7776469,2.731,-0.025228617344818426,-0.09379786880214379,-1.0738807694461003,-0.04808114368013537,-4.250415601362221,7.401629604752939,tremor
382,7776474,2.736,-0.023960841610589086,-0.09307507927805492,-1.0758149062965157,0.6922967101672807,-4.094141707954341,7.696846242592165,tremor
383,7776479,2.741,-0.022665860663119715,-0.09248786438678405,-1.0776675245445408,1.3888634241019053,-3.9489048101052515,7.954179679643814,tremor
384,7776484,2.746,-0.021354112067213157,-0.09203078472409634,-1.0794282519690088,2.0402912936509656,-3.815527058932431,8.1741154895548,tremor
385,7776489,2.751,-0.02003659168606077,-0.09169798471488594,-1.0810873104040821,2.645516086019108,-3.6946138565729596,8.35731152149969,tremor
386,7776494,2.756,-0.01872473213645362,-0.09148323368390483,-1.0826355897175777,3.203734167339237,-3.5865780886806786,8.504579060644804,tremor
387,7776498,2.76,-0.017430272718355434,-0.09137996765179046,-1.0840647199074875,3.714398764833215,-3.491663568416444,8.616864994833755,tremor
388,7776504,2.766,-0.016165123289477452,-0.09138133214284218,-1.085367139572174,4.177215378202419,-3.4099673387307385,8.695235117753997,tremor
389,7776508,2.77,-0.014941224783199194,-0.09148022621632096,-1.086536158902295,4.592136341991314,-3.341460539410289,8.740858654748104,tremor
390,7776513,2.775,-0.0137704091340877,-0.09166934783304255,-1.0875660153761062,4.959354532900395,-3.2860076152320215,8.75499405644839,tremor
391,7776518,2.78,-0.01266426129207371,-0.09194124055305711,-1.088451920502095,5.279296212738548,-3.243383716835726,8.738976067907968,tremor
392,7776523,2.785,-0.011633985798799611,-0.09228834143784301,-1.08919009622365,5.552612998339609,-3.2132902213782484,8.694204047353619,tremor
393,7776528,2.79,-0.010690280099040165,-0.09270302991073995,-1.0897777999546683,5.780172953330391,-3.1953683706045353,8.622131479369928,tremor
394,7776538,2.8,-0.009843216399429375,-0.09317767722038325,-1.0902133376247014,5.96305080171158,-3.1892110854384343,8.52425660248501,tremor
395,7776542,2.804,-0.00910213349868655,-0.09370469606069132,-1.090496064546436,6.102517268273369,-3.1943730655311846,8.402114050961968,tremor
396,7776567,2.829,-0.008475539630436185,-0.09427658983366186,-1.0906263743426796,6.20002755494546,-3.21037931735083,8.257267395149848,tremor
397,7776572,2.834,-0.00797102701280601,-0.09488600100281985,-1.090605676547889,6.25720896541979,-3.236732274080125,8.091302454167147,tremor
398,7776577,2.839,-0.007595198514330164,-0.09552575797769434,-1.0904363637960492,6.2758476940576715,-3.272917675265568,7.905821249405068,tremor
399,7776582,2.844,-0.007353606637484696,-0.09618891999039234,-1.0901217696976315,6.257874800997459,-3.318409367371889,7.702436467643734,tremor
400,7776587,2.849,-0.0072507048871875614,-0.09686881946665073,-1.089666118587758,6.205351404818119,-3.372673174218068,7.482766308162743,tremor
401,7776592,2.854,-0.007289811514756429,-0.09755910144588055,-1.0890744683125315,6.120453137305254,-3.4351699744246864,7.248429598208844,tremor
402,7776601,2.863,-0.0074730855838539756,-0.09825375965857973,-1.0883526471431675,6.005453921289887,-3.5053581143151185,7.001041074479087,tremor
403,7776606,2.868,-0.007801515270773871,-0.09894716891852362,-1.087507185803087,5.862709151331413,-3.5826952788081585,6.742206743806496,tremor
404,7776611,2.873,-0.00827491826978513,-0.0996341135279209,-1.0865452454905573,5.694638376878221,-3.66663993731431,6.473519252799322,tremor
405,7776621,2.883,-0.008891954114775778,-0.10030981142589497,-1.0854745426992567,5.503707606898519,-3.756652473621299,6.1965532125451785,tremor
406,7776626,2.888,-0.00965014814751272,-0.10096993383664078,-1.0843032715919148,5.292411372729276,-3.85219609652092,5.912860439790088,tremor
407,7776630,2.892,-0.01054592676300603,-0.10161062019802405,-1.083040024668154,5.0632547015257385,-3.9527376122075717,5.623965089985612,tremor
408,7776635,2.897,-0.011574663450318089,-0.10222848818000926,-1.0816937124786548,4.818735165696654,-4.057748123355943,5.331358670392129,tremor
409,7776640,2.902,-0.012730735030069959,-0.10282063864053644,-1.080273483161894,4.561325183309473,-4.166703706973305,5.036494933316471,tremor
410,7776645,2.907,-0.014007587373496033,-0.10338465541803626,-1.0787886426052702,4.2934547499198255,-4.279086115298372,4.740784660970267,tremor
411,7776649,2.911,-0.01539780977547078,-0.10391859992639552,-1.0772485760496298,4.017494783243443,-4.394383539172556,4.445590364850419,tremor
412,7776664,2.926,-0.016893217047467424,-0.10442100060015692,-1.075662671956662,3.735741258457365,-4.512091466560844,4.152220934216278,tremor
413,7776689,2.951,-0.018484938298557387,-0.10489083733441226,-1.0740402489339735,3.450400303667705,-4.63171365521336,3.86192627981371,tremor
414,7776694,2.956,-0.020163511288844787,-0.10532752117288774,-1.0723904864540283,3.1635744123481264,-4.752763216063337,3.5758920295083403,tremor
415,7776699,2.961,-0.021918981178707216,-0.10573086961302794,-1.0707223600047429,2.8772499130431246,-4.874763777347244,3.2952343409936433,tremor
416,7776704,2.966,-0.02374100246616607,-0.10610107800759694,-1.0690445811750051,2.5932858177355,-4.997250678251497,3.020994903095995,tremor
417,7776709,2.971,-0.025618942903671574,-0.1064386876358646,-1.0673655430232363,2.3134041505966607,-5.119772132686314,2.754136202123344,tremor
418,7776718,2.98,-0.027541988206190315,-0.10674455108490692,-1.0656932709226785,2.0391818395088777,-5.241890308004604,2.4955371338872663,tremor
419,7776723,2.985,-0.029499246393024224,-0.10701979562002854,-1.064035378941886,1.7720442340718539,-5.363182274388821,2.245989045322739,tremor
420,7776728,2.99,-0.031479850637236476,-0.10726578523414895,-1.0623990317144352,1.513260295406802,-5.4832407943842725,2.006192291300681,tremor
421,7776733,2.995,-0.033473059525164335,-0.10748408205226048,-1.0607909116827168,1.2639394844617113,-5.601674939232591,1.776753391798203,tremor
422,7776738,3.0,-0.0354683536552758,-0.10767640773274328,-1.0592171915656714,1.025030356565878,-5.7181105416999225,1.5581828720564825,tremor
423,7776742,3.004,-0.03745552753454325,-0.10784460545728998,-1.05768351189388,0.7973208509581178,-5.832190524802474,1.3508938636767664,tremor
424,7776747,3.009,-0.03942477576660363,-0.10799060304094907,-1.0561949634692909,0.5814402454208925,-5.94357517942181,1.1552015374154363,tremor
425,7776752,3.014,-0.04136677257411065,-0.10811637762876378,-1.0547560746322846,0.37786272833836393,-6.051942495199822,0.9713234282282468,tremor
426,7776757,3.019,-0.04327274376219701,-0.10822392238041417,-1.0533708032477638,0.18691252319032195,-6.156988670567716,0.7993806993817448,tremor
427,7776762,3.024,-0.045134530314888795,-0.10831521548290325,-1.0520425333477708,0.008770482873539778,-6.258428931704384,0.6394003748688188,tremor
428,7776771,3.033,-0.04694464292559097,-0.10839219177623588,-1.0507740763852904,-0.15651794731423285,-6.35599877140488,0.4913185481835843,tremor
429,7776776,3.038,-0.04869630690028177,-0.10845671722946745,-1.049567677057814,-0.3090335187964296,-6.449455676828234,0.3549845517752897,tremor
430,7776781,3.043,-0.05038349704156778,-0.10851056646421518,-1.0484250236458352,-0.44897286265869807,-6.5385813547726395,0.23016604679901265,tremor
431,7776786,3.048,-0.05200096232599592,-0.10855540348800768,-1.0473472627773683,-0.5766372311360591,-6.623184392216054,0.11655496870324361,tremor
432,7776812,3.074,-0.05354424042507771,-0.10859276576783426,-1.0463350184735845,-0.6924204874385125,-6.70310321612713,0.013774241769389624,tremor
433,7776817,3.079,-0.05500966238326055,-0.10862405174150193,-1.0453884152553456,-0.7967965586661824,-6.778209148402775,-0.07861484445956256,tremor
434,7776822,3.084,-0.056394348031888204,-0.10865051182736553,-1.0445071050028225,-0.8903065870137054,-6.8484093010539135,-0.16110472059331904,tremor
435,7776826,3.088,-0.057696192954055994,-0.10867324294857378,-1.0436902971708137,-0.9735460252276784,-6.913649036940812,-0.23423321939960318,tremor
436,7776831,3.093,-0.0589138479879682,-0.10869318653454858,-1.0429367918817871,-1.047151920088527,-6.973913739305388,-0.2985749934309756,tremor
437,7776836,3.098,-0.06004669234603229,-0.10871112990065444,-1.0422450153559164,-1.1117906131570532,-7.029229684107137,-0.3547328063850936,tremor
438,7776841,3.103,-0.06109480143068234,-0.10872771083953482,-1.0416130570980187,-1.1681460646829802,-7.079663881344513,-0.4033288328655769,tremor
439,7776846,3.108,-0.062058910353972964,-0.10874342518775898,-1.0410387082480028,-1.2169089778147297,-7.12532283526641,-0.44499609648743804,tremor
440,7776855,3.117,-0.062940374029254,-0.10875863706247736,-1.0405195005149273,-1.258766867605167,-7.166350261363017,-0.4803701697081348,tremor
441,7776860,3.122,-0.06374112451606688,-0.10877359139776108,-1.040052745154155,-1.29439518329421,-7.202923882002493,-0.5100812497228554,tremor
442,7776865,3.127,-0.06446362608446721,-0.10878842835233547,-1.0396355715096934,-1.3244495541522645,-7.235251491460991,-0.5347467139610657,tremor
443,7776870,3.132,-0.06511082824697335,-0.10880319911279077,-1.0392649647247898,-1.3495591912126554,-7.263566523198321,-0.5549642478953237,tremor
444,7776875,3.137,-0.06568611681094481,-0.10881788258195406,-1.0389378023162625,-1.3703214424624222,-7.2881233605164635,-0.5713056283458251,tremor
445,7776880,3.142,-0.06619326285363353,-0.10883240242277169,-1.0386508894032491,-1.387297469958492,-7.309192607781227,-0.5843112374571409,tremor
446,7776885,3.147,-0.06663636943248505,-0.1088466439245141,-1.0384009924699515,-1.4010089952926392,-7.327056491952598,-0.5944853756365739,tremor
447,7776889,3.151,-0.06701981582409114,-0.10886047017046989,-1.0381848716164261,-1.411936045160838,-7.342004504120299,-0.6022924352278163,tremor
448,7776894,3.156,-0.06734819913951531,-0.10887373701426677,-1.0379993113056245,-1.4205156207505782,-7.354329327557468,-0.6081539890351539,tremor
