sample,t_ms,t_s,ax,ay,az,gx,gy,gz,tremor
0,7719645,0.0,0.09767651700226401,-0.1565484948836952,-1.0550664204117959,1.5244962924938228,-18.22069003696199,1.2918271414205131,tremor
1,7719659,0.014,0.09718163957311814,-0.15668645049275726,-1.054199639644582,2.1515829853459163,-21.405122604491094,1.693242026273741,tremor
2,7719663,0.018,0.09639821677374825,-0.15688995614325923,-1.052884698656816,2.7837153593546065,-24.659256801428683,2.077686285082794,tremor
3,7719668,0.023,0.09524283816164805,-0.1571720440248697,-1.0510139924927193,3.419401737651687,-27.97282889462696,2.443661393140123,tremor
4,7719678,0.033,0.09366836461445809,-0.1575357946184767,-1.0485421609102372,4.0571483054584485,-31.335073341295075,2.789770132080624,tremor
5,7719683,0.038,0.0916601754350285,-0.15797724027419605,-1.0454724473527386,4.695470199221089,-34.73482271811784,3.1147278014160182,tremor
6,7719688,0.043,0.0892237915136691,-0.15848922337941576,-1.0418336183728378,5.332902961522448,-38.16062087938445,3.417373029531156,tremor
7,7719697,0.052,0.08637422799080312,-0.15906397801910416,-1.0376629531018082,5.968014309302551,-41.60084916910778,3.696678087203185,tremor
8,7719702,0.057,0.08312964253370067,-0.1596943251089388,-1.032997437222813,6.59941615679601,-45.04386530591426,3.9517585833779134,tremor
9,7719707,0.062,0.07950850020781042,-0.1603739831024391,-1.027870708810842,7.22577682645505,-48.47815432733962,4.181882399202449,tremor
10,7719717,0.072,0.07552880067413183,-0.1610974635135685,-1.0223129797369337,7.845833369717101,-51.89249071847794,4.386477693241619,tremor
11,7719721,0.076,0.0712082599698624,-0.16185983373447344,-1.0163521063118628,8.458403904512515,-55.276110556585664,4.565139788630204,tremor
12,7719726,0.081,0.06656481236170551,-0.16265647970399688,-1.010014875608389,9.062399858807101,-58.61889217863922,4.717636730939189,tremor
13,7719756,0.111,0.06161712978865062,-0.16348291615137495,-1.0033281220298291,9.656837990605986,-61.91154352549034,4.8439132831551985,tremor
14,7719766,0.121,0.05638504016799395,-0.16433465297041475,-0.9963195621836333,10.240852035960051,-65.1457939384219,4.944093102369816,tremor
15,7719771,0.126,0.05088981324113885,-0.16520711153992595,-0.9890183512594258,10.813703819080478,-68.31458778947977,5.01847882548243,tremor
16,7719776,0.131,0.045154318368632484,-0.16609558114782075,-0.9814554020615185,11.374793644632424,-71.41227692914237,5.0675497845846715,tremor
17,7719781,0.136,0.039203069948763325,-0.16699520628398482,-0.9736635129938197,11.923669783168442,-74.4348085483325,5.091957080942216,tremor
18,7719785,0.14,0.03306217714010444,-0.16790099739617342,-0.9656773448672673,12.460036856576496,-77.37990468499089,5.092515768488346,tremor
19,7719790,0.145,0.026759212031143443,-0.16880785956243052,-0.9575332774918935,12.983762930478155,-80.24722925798467,5.070193929003081,tremor
20,7719795,0.15,0.020323007208525045,-0.1697106350487583,-0.9492691690142281,13.494885123859143,-83.0385381777934,5.026098458469501,tremor
21,7719819,0.174,0.013783390916954168,-0.17060415684147012,-0.9409240347951465,13.993613552030604,-85.75780776118425,4.96145742739504,tremor
22,7719829,0.184,0.007170865979088339,-0.17148331102766207,-0.9325376582757695,14.480333425504464,-88.41133637735254,4.877598929578777,tremor
23,7719834,0.189,0.0005162373432073628,-0.17234310642486497,-0.9241501434379416,14.955605130205347,-91.00781401967237,4.775926398809202,tremor
24,7719838,0.193,-0.006149807556562703,-0.17317875020485446,-0.915801416784332,15.42016210652613,-93.5583544081581,4.65789045846489,tremor
25,7719843,0.198,-0.012797161622599036,-0.1739857284732736,-0.9075306859464816,15.87490631963078,-96.07648435873683,4.5249574815022005,tremor
26,7719848,0.203,-0.019396799862118758,-0.17475989089588378,-0.8993758618517138,16.320901070965597,-98.57808553766587,4.378575180390001,tremor
27,7719884,0.239,-0.025921315284478705,-0.17549753852920782,-0.8913729516774881,16.759360850042516,-101.08128434628188,4.220135716315003,tremor
28,7719889,0.244,-0.03234548321261065,-0.1761955140304419,-0.8835554304729656,17.19163788475765,-103.60628656596556,4.050937007330497,tremor
29,7719894,0.249,-0.0386468470734017,-0.1768512933873396,-0.875953600227801,17.619205047011963,-106.17515461123456,3.8721431091814953,tremor
30,7719899,0.254,-0.04480631716240832,-0.17746307821051951,-0.8685939462067223,18.043634839705454,-108.81152688237364,3.6847447134990103,tremor
31,7719904,0.259,-0.05080877196252091,-0.17802988745643175,-0.861498501424344,18.46657434225282,-111.54028077547987,3.4895209306133057,tremor
32,7719908,0.263,-0.056643649414446454,-0.17855164720249317,-0.8546842310919813,18.88971620210435,-114.38714325554632,3.287003587032439,tremor
33,7719913,0.268,-0.06230551324342004,-0.17902927679812283,-0.8481624496294329,19.314765991077508,-117.37825532892225,3.0774452736969,tremor
34,7719923,0.278,-0.06779457722621143,-0.17946476939752937,-0.8419382833192032,19.743406470617057,-120.53969910737129,2.8607923401492807,tremor
35,7719928,0.283,-0.07311716832383747,-0.1798612645752554,-0.836010191818574,20.17725952085525,-123.89699832613229,2.6366639510518244,tremor
36,7719933,0.288,-0.07828610811003704,-0.18022311046760225,-0.830369561478411,20.617846685270933,-127.47460505095958,2.4043382092087375,tremor
37,7719938,0.293,-0.08332099111335343,-0.18055591270531576,-0.8250003827101151,21.066549466961543,-131.29538675122913,2.162746201152742,tremor
38,7719942,0.297,-0.08824833876182202,-0.1808665673322212,-0.8198790224896904,21.52457068005089,-135.38012879947243,1.9104746324703668,tremor
39,7719952,0.307,-0.09310160870398092,-0.18116327495658635,-0.8149741015220986,21.992898295852708,-139.74706768241265,1.6457774879576008,tremor
40,7719957,0.312,-0.09792104144156771,-0.181455533562707,-0.8102464836664621,22.472273300433383,-144.41146969671675,1.3665968805899147,tremor
41,7719961,0.316,-0.10275332950177357,-0.1817541077207226,-0.8056493830073974,22.96316306575597,-149.38526859142422,1.0705929576101876,tremor
42,7719966,0.321,-0.10765109888410379,-0.18207097237138212,-0.8011285915109412,23.465741609571772,-154.67677348737095,0.7551824356125415,tremor
43,7719971,0.326,-0.11267219832465303,-0.18241922992078718,-0.7966228275827895,23.979877880099703,-160.29045551428814,0.4175850616640674,tremor
44,7719976,0.331,-0.11787879905248835,-0.1828130000371778,-0.7920642031077608,24.505132866984642,-166.22681811532541,0.05487705339124145,tremor
45,7720009,0.364,-0.123336316071123,-0.1832672822647689,-0.787378803745776,25.040765929686717,-172.4823520952912,-0.33594964392010745,tremor
46,7720014,0.369,-0.12911217126722352,-0.18379779232032756,-0.7824873744472469,25.585750266398325,-179.04957250502872,-0.7579236260045551,tremor
47,7720019,0.374,-0.13527442812917265,-0.18442077368278323,-0.7773060994112677,26.138796947007844,-185.9171307409925,-1.214027288898696,tremor
48,7720028,0.383,-0.14189033643058738,-0.1851527868046696,-0.7717474631762329,26.698386446526897,-193.06999226173983,-1.7071285739067232,tremor
49,7720033,0.388,-0.1490248316901343,-0.18601047896371364,-0.76572117738191,27.262806197170317,-200.48966841365998,-2.2399126251949655,tremor
50,7720038,0.393,-0.15673903774485076,-0.18701033843815662,-0.7591351561544778,27.830192380560142,-208.15449003267665,-2.8148146558783598,tremor
51,7720043,0.398,-0.16508882113415063,-0.18816843732445354,-0.7518965221795446,28.398574040454264,-216.03991054047717,-3.4339551748044084,tremor
52,7720048,0.403,-0.174123443388741,-0.1895001678925545,-0.7439126254105555,28.965917616054426,-224.11882695625238,-4.099078600583182,tremor
53,7720053,0.408,-0.18388435221746371,-0.1910199778454425,-0.7350920569968357,29.530170150088733,-232.36190841835793,-4.811496187712739,tremor
54,7720058,0.413,-0.19440414559414632,-0.19274111016434833,-0.7253456423188334,30.089299669925953,-240.73792329878296,-5.572034107224145,tremor
55,7720063,0.418,-0.20570573451227442,-0.19467535333450703,-0.714587398851941,30.64133153070019,-249.21405765874,-6.380987454349519,tremor
56,7720068,0.423,-0.21780172131059108,-0.19683280762860864,-0.7027354467831205,31.184379815987672,-257.7562195239389,-7.238080890729333,tremor
57,7720073,0.428,-0.2306940015424982,-0.19922167276538372,-0.6897128627023613,31.71667319685665,-266.3293251651153,-8.142436561531971,tremor
58,7720077,0.432,-0.24437358888157473,-0.20184806166978125,-0.675448469110789,32.23657494719105,-274.8975651775202,-9.092549853782389,tremor
59,7720082,0.437,-0.2588206549610109,-0.20471584427244202,-0.6598775547737514,32.742597098495445,-283.42464958809984,-10.086273478650384,tremor
60,7720087,0.442,-0.2740047696540303,-0.20782652435378876,-0.6429425229741991,33.23340898214,-291.8740324103317,-11.120810265099058,tremor
61,7720092,0.447,-0.2898853223045574,-0.21117915142988056,-0.6245934663944869,33.707840632116344,-300.2091169603321,-12.192714941014065,tremor
62,7720097,0.452,-0.30641210089669413,-0.21477026866525456,-0.6047886686084855,34.16488168161227,-308.3934438207888,-13.297905045144155,tremor
63,7720125,0.48,-0.32352600411554927,-0.21859389685095143,-0.5834950329641492,34.60367646383023,-316.3908636093928,-14.431680955091801,tremor
64,7720130,0.485,-0.34115986064056575,-0.2226415536648529,-0.5606884399777516,35.02351602229953,-324.16569673828513,-15.588754836579671,tremor
65,7720134,0.489,-0.3592393306791156,-0.22690230678464998,-0.5363540342962654,35.42382766902884,-331.682882239893,-16.76328813334351,tremor
66,7720139,0.494,-0.3776838664309824,-0.2313628589747017,-0.5104864419313584,35.804162630150735,-338.9081175910675,-17.948937052414124,tremor
67,7720149,0.504,-0.3964077105087285,-0.2360076630018596,-0.48308991799155854,36.16418221432496,-345.8079913646923,-19.13890538093745,tremor
68,7720154,0.509,-0.4153209139313361,-0.2408190641003276,-0.45417842470242165,36.50364284373953,-352.3501104846579,-20.326003906194575,tremor
69,7720164,0.519,-0.4343303578231705,-0.2457774676350589,-0.42377563923178396,36.82238020574069,-358.50322381771247,-21.50271569088437,tremor
70,7720169,0.524,-0.4533407651593791,-0.25086152955158925,-0.39191489079651665,37.12029271587622,-364.2373437556947,-22.661266461918824,tremor
71,7720173,0.528,-0.47225569069951345,-0.2560483671178394,-0.3586390267303926,37.39732443207417,-369.52386728558974,-23.793699380595548,tremor
72,7720178,0.533,-0.4909784786609797,-0.261313787356191,-0.32400020760320614,37.653447527766716,-374.3356977899677,-24.891953456500822,tremor
73,7720184,0.539,-0.5094131788064037,-0.26663253044363333,-0.28805963203651386,37.888644422104825,-378.6473684652445,-25.947944839224625,tremor
74,7720188,0.543,-0.5274654125894893,-0.27197852523865385,-0.2508871925011817,38.10288968019949,-382.435167809883,-26.953650174548084,tremor
75,7720193,0.548,-0.5450431819455601,-0.2773251539853406,-0.2125610640659617,38.29613183675516,-385.6772671483499,-27.901191153015546,tremor
76,7720203,0.558,-0.5620576143170307,-0.28264552315038594,-0.17316722877402949,38.468275362297554,-388.35384964425924,-28.782919314040342,tremor
77,7720208,0.563,-0.5784236386267108,-0.28791273726393035,-0.13279893904711484,38.619163078880646,-390.4472397372827,-29.591500099932198,tremor
78,7720212,0.567,-0.5940605881756075,-0.29310017255285314,-0.09155612425054924,38.74855943283977,-391.9420314356501,-30.31999508370695,tremor
79,7720222,0.577,-0.6088927278367396,-0.2981817470657318,-0.049544745295678067,38.85613513218542,-392.8252134372618,-30.961941227522125,tremor
80,7720250,0.605,-0.6228497043991429,-0.3031321838854768,-0.006876102909357591,38.94145373969926,-393.08628866401835,-31.511425973637003,tremor
81,7720255,0.61,-0.6358669204090666,-0.3079272639141669,0.03633389404542911,39.00396086266721,-392.7173855015155,-31.96315693837019,tremor
82,7720260,0.615,-0.6478858332506372,-0.3125440646253889,0.07996549310393287,39.0429765784021,-391.7133578759467,-32.312524984811404,tremor
83,7720265,0.62,-0.6588541823903622,-0.316961181168745,0.12389588791905809,39.05769166813574,-390.07187131271735,-32.55565950254337,tremor
84,7720270,0.625,-0.6687261485959499,-0.32115892633692805,0.16800002514421064,39.047168103347865,-387.79347231908116,-32.689474825186,tremor
85,7720275,0.63,-0.6774624495108204,-0.325119506194651,0.21215142036331383,39.010344058959724,-384.88163878146975,-32.71170686476385,tremor
86,7720279,0.634,-0.6850303762584392,-0.32882716860756106,0.25622297507816283,38.94604354352342,-381.342809510671,-32.62093922843222,tremor
87,7720289,0.644,-0.6914037758260886,-0.3322683224622563,0.3000877870444196,38.852990557327885,-377.1863915594365,-32.41661830009698,tremor
88,7720294,0.649,-0.6965629838964004,-0.3354316259965622,0.3436199466264378,38.72982752648658,-372.42474444804884,-32.099057007979376,tremor
89,7720299,0.654,-0.7004947126120178,-0.338308043327529,0.386695312286277,38.57513762113416,-367.0731409364623,-31.66942724938177,tremor
90,7720304,0.659,-0.7031918975266416,-0.34089086894352616,0.4291922588261429,38.387470452334,-361.14970444590796,-31.12974119663471,tremor
91,7720309,0.664,-0.7046535077651097,-0.34317572059255896,0.47099239257093184,38.16537055467231,-354.67532363330355,-30.48282195603254,tremor
92,7720318,0.673,-0.7048843232332039,-0.34516050163485235,0.5119812283116761,37.90740799586088,-347.6735449490696,-29.73226428830224,tremor
93,7720323,0.678,-0.7038946826269638,-0.34684533452405797,0.5520488235257683,37.61221040736659,-340.1704442651389,-28.88238631762309,tremor
94,7720328,0.683,-0.7017002060274949,-0.34823246763329324,0.591090366134044,37.27849570080732,-332.1944788474652,-27.938173346059045,tremor
95,7720333,0.688,-0.6983214960551909,-0.34932615814720336,0.6290067128345013,36.90510472570105,-323.77632106714816,-26.90521503987797,tremor
96,7720343,0.698,-0.6937838219018252,-0.3501325341970836,0.6657048758502616,36.49103313716517,-314.9486753052319,-25.78963735768181,tremor
97,7720370,0.725,-0.6881167910347057,-0.35065943981687214,0.7010984567185289,36.03546177848753,-305.74607953083313,-24.598030650805,tremor
98,7720375,0.73,-0.6813540139007696,-0.3509162666257671,0.7351080264904815,35.537784942592076,-296.20469304915343,-23.337375388268793,tremor
99,7720380,0.735,-0.6735327674106165,-0.3509137763608345,0.7676614523672938,34.99763595210449,-286.3620719456997,-22.014966934690314,tremor
100,7720385,0.74,-0.6646936631670224,-0.3506639184408729,0.7986941713273278,34.41490957655707,-276.25693380078184,-20.638340725146964,tremor
101,7720389,0.744,-0.6548803261680946,-0.35017964660854883,0.8281494116803623,33.78978087516037,-265.92891330805986,-19.21519903513712,tremor
102,7720394,0.749,-0.6441390890260752,-0.3494747383808466,0.8559783637125875,33.12272011373755,-255.4183104963479,-17.753340361855116,tremor
103,7720399,0.754,-0.6325187056788851,-0.34856362058450263,0.8821403006755689,32.41450346311635,-244.7658333259091,-16.260592250999235,tremor
104,7720404,0.759,-0.6200700872640004,-0.34746120372089684,0.9066026513503862,31.666219251595013,-234.01233651454535,-14.744748243587232,tremor
105,7720409,0.764,-0.6068460614000204,-0.3461827273428227,0.9293410253179323,30.879269619718443,-223.19855854759186,-13.213509481816004,tremor
106,7720414,0.769,-0.5929011546848294,-0.3447436180684946,0.9503391919239979,30.055367510618943,-212.36485893633088,-11.67443139264598,tremor
107,7720418,0.773,-0.5782913968535143,-0.34315936132822156,0.9695890137810946,29.196529018414743,-201.55095790464063,-10.134875752451832,tremor
108,7720423,0.778,-0.5630741438087338,-0.3414453874484822,0.9870903355376842,28.305061203364765,-190.79568079558203,-8.60196832079017,tremor
109,7720428,0.783,-0.547307915690397,-0.3396169722315776,1.0028508286084172,27.383545560407935,-180.13670958697966,-7.082562117313387,tremor
110,7720433,0.788,-0.531052245328666,-0.33768915178733316,1.0168857926262924,26.434817397025228,-169.6103439726469,-5.583206307849683,tremor
111,7720438,0.793,-0.5143675318567308,-0.3356766510157748,1.0292179145637868,25.46194144103401,-159.25127448606273,-4.110120568617748,tremor
112,7720443,0.798,-0.4973148939766628,-0.33359382482633554,1.0398769867746946,24.468184063163534,-149.09237009958434,-2.669174715322278,tremor
113,7720447,0.802,-0.47995601739681265,-0.3314546109119732,1.048899585622033,23.456982562463917,-139.16448261271208,-1.265873319224936,tremor
114,7720452,0.807,-0.462352991306567,-0.32927249268054937,1.0563287128639114,22.431912017933065,-129.49626994147658,0.09465501434046521,tremor
115,7720457,0.812,-0.444568129425198,-0.32706047078909106,1.0622134025464354,21.396650248427676,-120.11404013805613,1.4076640614760927,tremor
116,7720462,0.817,-0.42666377214577933,-0.3248310416400321,1.0666082967720307,20.35494144061827,-111.04161761357062,2.6687924689638454,tremor
117,7720467,0.822,-0.4087020675717204,-0.3225961811946526,1.069573194339435,19.310559004114694,-102.30023262566229,3.8740627166560575,tremor
118,7720493,0.848,-0.39074473077789773,-0.3203673325498297,1.0711725768491864,18.26726820058498,-93.90843465077594,5.01987697088247,tremor
119,7720507,0.862,-0.3728527823579201,-0.31815539591678416,1.0714751173882795,17.228789075844062,-85.882029812544,6.103010264735387,tremor
120,7720512,0.867,-0.3550862691226985,-0.3159707199262197,1.0705531772877102,16.198760203697443,-78.23404209989562,7.120601459439933,tremor
121,7720517,0.872,-0.33750397149905703,-0.31382309352956045,1.0684822966155136,15.180703727026092,-70.97469769695152,8.07014245905324,tremor
122,7720522,0.877,-0.32016310352171345,-0.31172173811707693,1.0653406839735258,14.177992150852747,-64.11143137996345,8.949466163934968,tremor
123,7720527,0.882,-0.303119012167717,-0.30967529977817715,1.06120871080855,13.193817299879608,-57.64891363244288,9.756733650358187,tremor
124,7720532,0.887,-0.28642488312062053,-0.3076918418566073,1.0561684148827504,12.231161799780667,-51.589096897129565,10.490421051117513,tremor
125,7720536,0.891,-0.270131459934495,-0.3057788380983403,1.0503030168543168,11.29277338199991,-45.931279220367614,11.14930658692046,tremor
126,7720541,0.896,-0.2542867830887757,-0.3039431667623615,1.0436964531738537,10.381142251052099,-40.672183442442986,11.732458164885722,tremor
127,7720546,0.901,-0.23893595467617168,-0.30219110608014704,1.036432927764592,9.498481695022866,-35.80605003668419,12.239221922223598,tremor
128,7720556,0.911,-0.22412093353367718,-0.3005283314251652,1.0285964842696111,8.646712066210833,-31.32474169139154,12.669212051819741,tremor
129,7720561,0.916,-0.20988036459116355,-0.29895991450453835,1.0202706000481947,7.827448210175203,-27.21785775563354,13.022302200683146,tremor
130,7720566,0.921,-0.19624944514388012,-0.2974903248234853,1.011537802607347,7.0419903776918025,-23.472856731539476,13.298618677975641,tremor
131,7720571,0.926,-0.1832598297122824,-0.29612343360837834,1.0024793087752575,6.29131861589073,-20.0751850943369,13.498535642712882,tremor
132,7720575,0.93,-0.17093957417602762,-0.29486252031194954,0.9931746866630148,5.576090603416055,-17.008410858033756,13.622672361830158,tremor
133,7720585,0.94,-0.1593131189801831,-0.2937102817673503,0.983701540310641,4.896642870024178,-14.25436047695327,13.671892539971351,tremor
134,7720590,0.945,-0.14840131041293586,-0.29266884400755244,0.974135216856978,4.252995321819481,-11.793257878657506,13.647305625611212,tremor
135,7720616,0.971,-0.13822145823353024,-0.29173977672349516,0.9645485360884404,3.644858975798628,-9.60386466176785,13.550269894270661,tremor
136,7720621,0.976,-0.1287874272706269,-0.2909241102994518,0.9550115422820904,3.0716467867188917,-7.663620760125487,13.382396999839045,tremor
137,7720626,0.981,-0.12010976000766632,-0.2902223553394802,0.945591278328414,2.5324874208290415,-5.948785157847621,13.145557576631843,tremor
138,7720636,0.991,-0.1121958266338208,-0.28963452458711164,0.9363515821572932,2.0262417933445045,-4.434576508867393,12.841887380392418,tremor
139,7720640,0.995,-0.10504999859108355,-0.2891601571421789,0.9273529054633932,1.5515221433292852,-3.0953137377895428,12.473793385892582,tremor
140,7720645,1.0,-0.09867384131768424,-0.2887983448900422,0.9186521546229324,1.1067133768038844,-1.9045568550015273,12.043959214163474,tremor
141,7720650,1.005,-0.0930663217011267,-0.28854776107146546,0.9103025535228382,0.6899963706760548,-0.8352482982670877,11.555349242060329,tremor
142,7720655,1.01,-0.08822402573180957,-0.28840669092687726,0.9023535278057222,0.2993728977474524,0.14014488471352235,11.011210751073197,tremor
143,7720660,1.015,-0.08414138200142467,-0.2883730643395279,0.8948506097897169,-0.06730819357596873,1.0494877637828008,10.415073503125424,tremor
144,7720664,1.019,-0.08081088701680965,-0.28844449037412434,0.8878353630672849,-0.4123239315843474,1.9208330333983679,9.770746190076165,tremor
145,7720674,1.029,-0.07822332878547457,-0.2886182935597072,0.8813453255341619,-0.7380497042798564,2.782275326768287,9.08230929074805,tremor
146,7720679,1.034,-0.0763680057481759,-0.2888915516989668,0.8754139693585552,-1.046931672796167,3.66180455012191,8.354103982664025,tremor
147,7720683,1.038,-0.07523293884653819,-0.28926113490415867,0.8700706761807981,-1.3414595030716536,4.587158650950217,7.5907168907217395,tremor
148,7720688,1.043,-0.07480507526280687,-0.2897237454674814,0.8653407256449313,-1.6241397787585092,5.585676435341805,6.796960603563483,tremor
149,7720693,1.048,-0.07507048308593901,-0.29027595807735324,0.8612452952174329,-1.897470421671207,6.6841512356020365,5.977850039080617,tremor
150,7720698,1.053,-0.07601453677484507,-0.2909142597972287,0.8578014691562698,-2.1639163994215416,7.908686384626191,5.138574881603744,tremor
151,7720703,1.058,-0.07762209374578849,-0.29163508913493197,0.8550222544671842,-2.425886945101837,9.284553563678656,4.284468436462334,tremor
152,7720713,1.068,-0.07987766265767485,-0.2924348734511996,0.8529166017352069,-2.6857144532654904,10.836055143492853,3.420973349620329,tremor
153,7720739,1.094,-0.08276556396813246,-0.29331006388926234,0.8514894288601426,-2.945635153960507,12.58639162721677,2.5536047213576714,tremor
154,7720744,1.099,-0.08627008306716277,-0.29425716695817034,0.8507416459678161,-3.2077716086095935,14.557535225350014,1.6879112020662748,tremor
155,7720753,1.108,-0.09037561579041559,-0.2952727718821333,0.8506701801216278,-3.4741170260365464,16.77011045346328,0.8294346881924766,tremor
156,7720758,1.113,-0.0950668054602686,-0.29635357285281455,0.851267998913189,-3.746521369709759,19.24328246266899,-0.016330771227330735,tremor
157,7720762,1.117,-0.10032866993397374,-0.2974963854062747,0.8525241325351168,-4.0266792179169775,21.99465362322313,-0.8439802921154143,tremor
158,7720772,1.127,-0.10614671658443775,-0.2986981562959596,0.8544236944836402,-4.316119340930454,25.040168716958572,-1.6482392022309258,tremor
159,7720782,1.137,-0.11250704278902005,-0.2999559664401298,0.8569479015499167,-4.616195966204241,28.39402897408229,-2.424003401820922,tremor
160,7720787,1.142,-0.11939641939651069,-0.3012670267703249,0.8600740941918549,-4.928081709711721,32.06861511646699,-3.1663786973336334,tremor
161,7720791,1.146,-0.1268023547901262,-0.30262866707706393,0.8637757587008191,-5.252762155715739,36.07441953547265,-3.8707188302653086,tremor
162,7720796,1.151,-0.1347131375472204,-0.3040383182199304,0.8680225527729013,-5.591032065647118,40.419987726360226,-4.532661969396524,tremor
163,7720810,1.165,-0.1431178562698212,-0.30549348832395445,0.8727803361637114,-5.9434931875442265,45.11186910875199,-5.14816546263331,tremor
164,7720815,1.17,-0.1520063958527814,-0.30699173380911465,0.8780112080684469,-6.310553621891478,50.15457736506612,-5.713538656492141,tremor
165,7720820,1.175,-0.16136941017644443,-0.3085306262837179,0.8836735527587485,-6.692428681683113,55.55056040753889,-6.22547359216148,tremor
166,7720825,1.18,-0.17119827185706873,-0.31010771646529933,0.8897220948655454,-7.089143168504236,61.30018002455314,-6.681073382985329,tremor
167,7720835,1.19,-0.18148500016905625,-0.3117204963669488,0.8961079655640967,-7.500534974690033,67.40170115247506,-7.077878072863707,tremor
168,7720861,1.216,-0.19222216850672302,-0.31336636100032805,0.9027787808285483,-7.926259913820965,73.85129057473945,-7.413887768774095,tremor
169,7720871,1.226,-0.20340279276023313,-0.31504257080242803,0.9096787329031428,-8.365797676261863,80.64302468064213,-7.6875828327452735,tremor
170,7720881,1.236,-0.2150202017689533,-0.31674621589884927,0.9167486961974464,-8.818458802236538,87.76890574867816,-7.897940911130478,tremor
171,7720886,1.241,-0.22706789066726935,-0.3184741831830034,0.9239263489447209,-9.28339256278172,95.21888608836205,-8.044450576633649,tremor
172,7720891,1.246,-0.2395393575730283,-0.32022312703185357,0.9311463121289069,-9.75959564046911,102.9808993104736,-8.127121365311998,tremor
173,7720895,1.25,-0.2524279238054489,-0.32198944430857795,0.9383403073289142,-10.245921508074945,111.04089801001842,-8.14649000777612,tremor
174,7720900,1.255,-0.2657265377334331,-0.32376925413193425,0.9454373351933401,-10.74109041412324,119.38289723262497,-8.103622679275123,tremor
175,7720905,1.26,-0.2794275624699374,-0.325558382728106,0.9523638762098297,-11.243699898246998,127.98902324122447,-8.000113123306631,tremor
176,7720910,1.265,-0.2935225479315706,-0.3273523535275195,0.9590441152606325,-11.752235775361827,136.83956729384963,-7.838076532878099,tremor
177,7720914,1.269,-0.30800198825058617,-0.32914638252946565,0.9654001911657569,-12.265083544639445,145.91304437342131,-7.620139099396488,tremor
178,7720919,1.274,-0.322855066135184,-0.3309353788343605,0.9713524720242094,-12.780540196035037,155.18625706384745,-7.349423161526861,tremor
179,7720924,1.279,-0.3380693865031294,-0.3327139501407981,0.9768198566963099,-13.296826402596935,164.63436503114917,-7.029527907524633,tremor
180,7720929,1.284,-0.35363070254092377,-0.334476412926392,0.9817201022550647,-13.812099100459552,174.2309608310744,-6.66450560754015,tremor
181,7720934,1.289,-0.3695226382324728,-0.33621680698155193,0.9859701767027651,-14.324464470109966,183.94815301091631,-6.258833380811063,tremor
182,7720939,1.294,-0.38572641230758603,-0.33792891394579355,0.9894866357298332,-14.831991341479204,193.7566576841114,-5.81738054038299,tremor
183,7720944,1.299,-0.4022205694216596,-0.3396062795065473,0.9921860218128247,-15.332725049868113,203.6258999093265,-5.345371608102798,tremor
184,7720949,1.304,-0.4189807251319792,-0.3412422389580064,0.9939852835296727,-15.824701767359379,213.5241262788826,-4.848345156132189,tremor
185,7720954,1.309,-0.43597933182380283,-0.3428299458774701,0.9948022126303326,-16.305963323083198,223.41853009656558,-4.33210870647089,tremor
186,7720959,1.314,-0.45318547310325125,-0.3443624037516406,0.9945558961530169,-16.77457250399309,233.2753903906587,-3.8026900030722115,tremor
187,7720985,1.34,-0.4705646942586903,-0.3458325004655245,0.9931671807279381,-17.22862879507011,243.06022575924044,-3.266285057402301,tremor
188,7720995,1.35,-0.48807887614781104,-0.3472330456388635,0.9905591461610953,-17.666284474892024,252.7379636838313,-2.729203452950537,tremor
189,7720999,1.354,-0.5056861592607033,-0.34855681084269,0.9866575854251091,-18.085760932091688,262.27312548940273,-2.197811470922171,tremor
190,7721004,1.359,-0.523340923744443,-0.3497965727343613,0.9813914882706635,-18.48536501595913,271.6300266059842,-1.6784736594261502,tremor
191,7721009,1.364,-0.5409938299132067,-0.3509451591037042,0.974693525769459,-18.863505188493555,280.7729912440954,-1.1774935040897403,tremor
192,7721014,1.369,-0.5585919223198388,-0.3519954977310914,0.9665005331714998,-19.218707214061926,289.6665800731069,-0.7010538670894255,tremor
193,7721019,1.374,-0.5760787989515878,-0.35294066783849354,0.9567539884852817,-19.549629112148455,298.27582901136174,-0.2551578482729788,tremor
194,7721024,1.379,-0.5933948456290609,-0.3537739537882892,0.9454004841622488,-19.85507511039029,306.5664968079082,0.15442930663526072,tremor
195,7721029,1.384,-0.6104775342893576,-0.3544889005694138,0.9323921891864505,-20.134008368700297,314.5053187219088,0.522236662376325,tremor
196,7721038,1.393,-0.6272617825470549,-0.35507937051797456,0.9176872987370897,-20.385562299510944,322.0602632896643,0.8431418633980461,tremor
197,7721052,1.407,-0.6436803707543928,-0.35553960065604684,0.90125046840417,-20.60905038189329,329.2007889075087,1.1124226935331696,tremor
198,7721057,1.412,-0.6596644117139215,-0.35586425999879795,0.883053229690121,-20.803974452844944,335.8980967416707,1.3258054199580867,tremor
199,7721062,1.417,-0.6751438672127466,-0.3560485061704841,0.8630743832129382,-20.970031545439035,342.1253762933551,1.4795094168947511,tremor
200,7721067,1.422,-0.69004810462296,-0.3560880406713028,0.8413003656320683,-21.10711941473998,347.8580397933896,1.5702875526123465,tremor
201,7721072,1.427,-0.7043064859253756,-0.3559791621326558,0.817725585857427,-21.21534093558396,353.0739414727318,1.5954618011060733,tremor
202,7721108,1.463,-0.7178489806515206,-0.355718816872904,0.7923527256102076,-21.295007566657898,357.7535776526818,1.552953512851473,tremor
203,7721113,1.468,-0.730606793419719,-0.35530464601069534,0.7651929989366241,-21.346642052745633,361.88026354490506,1.4413077578272195,tremor
204,7721117,1.472,-0.7425129960395498,-0.35473502830983245,0.736266364895454,-21.37098047998714,365.440282720222,1.259711158701744,tremor
205,7721122,1.477,-0.7535031537066152,-0.35400911783102007,0.7056016874073859,-21.36897370533529,368.4230054995442,1.0080026880941968,tremor
206,7721127,1.482,-0.7635159347355063,-0.3531268753727879,0.6732368362135281,-21.34178805751839,370.8209730874747,0.6866770239200943,tremor
207,7721137,1.492,-0.7724936936339839,-0.3520890926195103,0.6392187230621247,-21.29080507267501,372.62994504855374,0.2968802281929776,tremor
208,7721142,1.497,-0.7803830180672161,-0.3508974078986567,0.6036032676247441,-21.21761990956126,373.84890860468084,-0.15960229238364373,tremor
209,7721147,1.502,-0.7871352313214253,-0.3495543124981449,0.566455288224075,-21.12403800900347,374.4800491291116,-0.6803654001960162,tremor
210,7721151,1.506,-0.7927068431842068,-0.3480631466202494,0.5278483132225517,-21.0120695342196,374.5286820999052,-1.2624111132481688,tremor
211,7721156,1.511,-0.7970599436637281,-0.3464280842575153,0.4878643098661649,-20.883921157541128,374.0031476520841,-1.9021823430955294,tremor
212,7721166,1.521,-0.8001625356270301,-0.3446541065661277,0.44659332849981026,-20.741984839623953,372.9146697365011,-2.59560298139315,tremor
213,7721171,1.526,-0.8019888042018365,-0.34274696367071106,0.4041330613756892,-20.58882336692086,371.27718275814084,-3.338123780150584,tremor
214,7721176,1.531,-0.8025193226009649,-0.3407131252402054,0.3605883167753984,-20.42715255718729,369.1071294298209,-4.124773431808608,tremor
215,7721181,1.536,-0.8017411958255349,-0.33855972059845996,0.3160704108695154,-20.259820197244704,366.42323443425227,-4.950214209182498,tremor
216,7721195,1.55,-0.7996481453996845,-0.33629446954141334,0.27069648164862015,-20.089781931078736,363.2462593104089,-5.8088014548325555,tremor
217,7721200,1.555,-0.796240539777826,-0.3339256053907393,0.22458873136042412,-19.920074462667284,359.59874469711605,-6.6946461086071265,tremor
218,7721205,1.56,-0.7915253761948328,-0.33146179209311144,0.17787360612470868,-19.75378657371096,355.50474655633525,-7.601679341088931,tremor
219,7721237,1.592,-0.7855162203097994,-0.3289120373557904,0.13068092366308534,-19.594028579954543,350.98957312452234,-8.52371824392601,tremor
220,7721252,1.607,-0.7782331098476999,-0.32628560388302846,0.08314296219690102,-19.443900953205794,346.07952900541164,-9.454531446573615,tremor
221,7721257,1.612,-0.7697024274773933,-0.32359192073965976,0.03539352525972011,-19.306462895100598,340.8016719891472,-10.387903509332029,tremor
222,7721262,1.617,-0.759956746425555,-0.3208404967168297,-0.012433001911147434,-19.184701625419837,335.18358690278006,-11.317696995779421,tremor
223,7721267,1.622,-0.7490346500284827,-0.31804083731326366,-0.060202588875553256,-19.081503019724998,329.2531792053844,-12.237911242643687,tremor
224,7721271,1.626,-0.7369805239182464,-0.3152023665882709,-0.10778247506287053,-18.999624017259755,323.03848935363294,-13.142736994180384,tremor
225,7721281,1.636,-0.7238443172084121,-0.31233435471909365,-0.15504205111198488,-18.94166697044008,316.5675273843292,-14.026606224729882,tremor
226,7721286,1.641,-0.7096812672009819,-0.30944585164508726,-0.2018536966201988,-18.910055869747232,309.86812583448966,-14.884236624198586,tremor
227,7721296,1.651,-0.6945515810100151,-0.30654562674918573,-0.24809356696885101,-18.9070141839357,302.9678081773915,-15.710670363276753,tremor
228,7721301,1.656,-0.6785200672684301,-0.30364211415879117,-0.2936423242454034,-18.934543928716675,295.89366952348576,-16.501306887655254,tremor
229,7721311,1.666,-0.6616557118885141,-0.3007433629845742,-0.33838580929404344,-18.99440553806972,288.6722664700136,-17.25192961763392,tremor
230,7721315,1.67,-0.6440311937425077,-0.29785699168369356,-0.3822156535155721,-19.088098170374245,281.3295135993525,-17.95872656132137,tremor
231,7721320,1.675,-0.6257223390622447,-0.29499014573855964,-0.4250298301818824,-19.21684022729149,273.8905850482752,-18.618304989276332,tremor
232,7721325,1.68,-0.6068075171444245,-0.29214945796575903,-0.46673314574759406,-19.381550073720863,266.37982061474446,-19.22770045078893,tremor
233,7721353,1.708,-0.5873669842965646,-0.28934101098046394,-0.5072376719636797,-19.582827196797805,258.8206368879759,-19.78438051427004,tremor
234,7721363,1.718,-0.5674821874601335,-0.2865703016060447,-0.5464631195684485,-19.820934306070264,251.2354447600573,-20.28624367601766,tremor
235,7721368,1.723,-0.5472350430311361,-0.28384220730811865,-0.5843371540219504,-20.095781121012756,243.64557527137325,-20.731613906614005,tremor
236,7721372,1.727,-0.5267072093563793,-0.28116095502281496,-0.620795653280225,-20.406910765359225,236.07121592076413,-21.119231298566266,tremor
237,7721377,1.732,-0.5059793726174361,-0.278530093018168,-0.655782907126645,-20.75348974365553,228.53135928209917,-21.448239249194103,tremor
238,7721382,1.737,-0.485130565145261,-0.2759524666538915,-0.6892517572207195,-21.134302399685694,221.04376511113026,-21.71816857138482,tremor
239,7721387,1.742,-0.4642375329203337,-0.27343019906920885,-0.7211636768660061,-21.54775056977173,213.6249362924279,-21.928918886710452,tremor
240,7721392,1.747,-0.44337416561803483,-0.2709646779148925,-0.7514887895633198,-21.991858881626605,206.29010813948273,-22.080737630058245,tremor
241,7721397,1.752,-0.4226109985628212,-0.26855654924174377,-0.7802058257025323,-22.464285846717367,199.0532498327604,-22.17419698338149,tremor
242,7721402,1.757,-0.40201479177421023,-0.2662057195560791,-0.8073020172449428,-22.96234058467498,191.92707622581113,-22.210169055188498,tremor
243,7721406,1.761,-0.3816481872574632,-0.26391136685357164,-0.832772930939943,-23.483004733357006,184.92306790505978,-22.189799630523577,tremor
244,7721411,1.766,-0.3615694420894511,-0.26167196115607055,-0.8566222414758816,-24.0229588630884,178.0514972679131,-22.114480836295726,tremor
245,7721416,1.771,-0.34183223190663076,-0.2594852947227703,-0.8788614469430044,-24.5786125469354,171.32145847974255,-21.985823103426437,tremor
246,7721421,1.776,-0.32248551729272196,-0.25734852171826206,-0.8995095300280327,-25.14613715312618,164.74089946056606,-21.805626861831303,tremor
247,7721426,1.781,-0.3035734643904421,-0.25525820673295607,-0.9185925693960879,-25.72150042643157,158.31665450168398,-21.575854471010945,tremor
248,7721435,1.79,-0.28513541084916694,-0.2532103812050609,-0.9361433066733466,-26.30050200904099,152.054476675951,-21.298602953277335,tremor
249,7721440,1.795,-0.2672058689261778,-0.2512006065240914,-0.952200675250856,-26.878809206027242,145.95906982803956,-20.976078135626413,tremor
250,7721445,1.8,-0.24981455907872246,-0.24922404243503626,-0.9668092977144158,-27.451992507424322,140.0341205471798,-20.6105707947134,tremor
251,7721450,1.805,-0.23298646954357685,-0.2472755193331539,-0.9800189589972504,-28.01556061628069,134.28233106052284,-20.204435320364325,tremor
252,7721478,1.833,-0.21674193994362057,-0.24534961315108234,-0.9918840622976242,-28.564994975281977,128.70545436833976,-19.76007126918292,tremor
253,7721482,1.837,-0.20109676952592764,-0.24344072177817466,-1.0024630743922605,-29.09578400212539,123.304333107793,-19.279907994717057,tremor
254,7721487,1.842,-0.18606235273833224,-0.2415431422699734,-1.011817966266608,-29.603457389702143,118.0789435212217,-18.766392347920664,tremor
255,7721492,1.847,-0.17164584595259422,-0.2396511484272084,-1.0200136541002223,-30.083620849428506,113.0284454872817,-18.221979270093108,tremor
256,7721501,1.856,-0.15785036886536752,-0.23775906856611398,-1.0271174447440166,-30.53199155041454,108.15123889541663,-17.64912496468846,tremor
257,7721511,1.866,-0.1446752424532712,-0.23586136340710429,-1.0331984890361354,-30.94443426055229,103.44502584380729,-17.050282234054187,tremor
258,7721516,1.871,-0.132116262706463,-0.23395270395590964,-1.0383272457059243,-31.316997891257046,98.90687739592236,-16.427897494887848,tremor
259,7721521,1.876,-0.1201660062953614,-0.23202804904960994,-1.0425749582496655,-31.645951853918145,94.5333030937744,-15.784408937834073,tremor
260,7721525,1.88,-0.10881416141884946,-0.2300827219217459,-1.0460131470315932,-31.927821407726523,90.32032118584102,-15.122245275591267,tremor
261,7721530,1.885,-0.09804787479347869,-0.22811248475730522,-1.0487131189368915,-32.15942104625495,86.2635275937431,-14.44382453717068,tremor
262,7721540,1.895,-0.08785210434243532,-0.22611360982442805,-1.0507454971151577,-32.33788493851958,82.35816195872685,-13.751552417086916,tremor
263,7721545,1.9,-0.07820996673717046,-0.2240829454523896,-1.0521797736219156,-32.460693497920424,78.59916959659027,-13.047819773039272,tremor
264,7721550,1.905,-0.06910306953034388,-0.22201797493403955,-1.0530838880104503,-32.52569528515842,74.98125877051378,-12.334998972510467,tremor
265,7721554,1.909,-0.06051181910913152,-0.21991686640699493,-1.0535238350739766,-32.53112364462779,71.49895328961568,-11.615438903163863,tremor
266,7721559,1.914,-0.05241569792008596,-0.21777851192752906,-1.0535633049340756,-32.47560771032905,68.14664097723255,-10.89145857270934,tremor
267,7721564,1.919,-0.04479350712191206,-0.21560255428249492,-1.0532633584860658,-32.358177676439595,64.91861895298592,-10.165339326595506,tremor
268,7721569,1.924,-0.037623573723497866,-0.21338940055448924,-1.052682140841901,-32.17826448979551,61.80913688786725,-9.43931580707646,tremor
269,7721574,1.929,-0.030883924077538025,-0.2111402220199358,-1.0518746348707275,-31.93569437095144,58.81243940764696,-8.71556586623948,tremor
270,7721600,1.955,-0.024552428068906878,-0.208856940571842,-1.0508924562515822,-31.630678793995713,55.922808649208065,-7.996199727827214,tremor
271,7721605,1.96,-0.018606920231904075,-0.20654220246726232,-1.0497836906566653,-31.26380073700399,53.134607645075036,-7.283248764433224,tremor
272,7721610,1.965,-0.013025305136771834,-0.20419934074156046,-1.048592772826333,-30.835998130646587,50.44232476825728,-6.578654310326188,tremor
273,7721614,1.969,-0.007785654531885589,-0.20183232803749457,-1.0473604064425275,-30.348545455412054,47.840618976973424,-5.88425695616091,tremor
274,7721619,1.974,-0.002866302878167347,-0.19944572181338593,-1.046123522921868,-29.80303436010473,45.324365129906,-5.201786764504807,tremor
275,7721624,1.979,0.0017540537616514374,-0.19704460390918999,-1.0449152765821506,-29.201354018220783,42.888698258560105,-4.532854806947123,tremor
276,7721629,1.984,0.006096252684623984,-0.1946345162912079,-1.0437650731118864,-28.54567174301164,40.52905542210786,-3.8789463620666154,tremor
277,7721634,1.989,0.010180552868194206,-0.19222139451372466,-1.0426986279015256,-27.838414179115077,38.2412136495509,-3.241416035396673,tremor
278,7721638,1.993,0.014026518292012612,-0.18981150007854491,-1.04173805058127,-27.082249198908663,36.02132249802482,-2.621484971932241,tremor
279,7721648,2.003,0.0176528996433946,-0.1874113524868461,-1.0409019520551588,-26.28006846783832,33.86592991730964,-2.0202402317330925,tremor
280,7721653,2.008,0.021077518982127726,-0.18502766140400237,-1.0402055704205044,-25.434970513519886,31.772000390853204,-1.4386362923964662,tremor
281,7721657,2.012,0.02431716250456473,-0.18266725903578274,-1.039660912403652,-24.55024404433426,29.7369246935031,-0.8774985309021586,tremor
282,7721662,2.017,0.02738748647159138,-0.18033703257774683,-1.039276907306787,-23.629351217373323,27.758521025798494,-0.3375284251458464,tremor
283,7721672,2.027,0.030302940709326952,-0.1780438564741954,-1.0390595709187087,-22.675910550528446,25.835027707302835,0.18068989023859566,tremor
284,7721682,2.037,0.033076712978806266,-0.17579452422083897,-1.039012177362684,-21.69367920061013,23.96508799041445,0.676682166076615,tremor
285,7721687,2.042,0.03572069611923118,-0.17359567956491112,-1.039135437399388,-20.686534376291796,22.147727852001797,1.1500761838716638,tremor
286,7721696,2.051,0.03824547841441984,-0.1714537471853354,-1.039427682230011,-19.658453709653426,20.382327806494654,1.6005940142950579,tremor
287,7721723,2.078,0.040660356334935414,-0.16937486325135426,-1.0398850523082617,-18.61349446613798,18.668589852349424,2.0280448532731072,tremor
288,7721737,2.092,0.04297336784389784,-0.16736480662567843,-1.040501691025151,-17.555771529238353,17.00650062702095,2.432318811869879,tremor
289,7721742,2.097,0.045191343904424475,-0.1654289318467692,-1.041269943332358,-16.48943415564641,15.396291735664711,2.813381921473873,tremor
290,7721757,2.112,0.047319975664200604,-0.1635721053317206,-1.0421805593763003,-15.418641558048837,13.838398081031865,3.171272488418365,tremor
291,7721761,2.116,0.04936389490260534,-0.1617986464296495,-1.0432229030032003,-14.347537430696761,12.333414903639698,3.5060988036730927,tremor
292,7721766,2.121,0.05132676555172046,-0.16011227499590447,-1.044385164586965,-13.280223582813944,10.882054172140146,3.8180380968584418,tremor
293,7721771,2.126,0.05321138430391533,-0.15851606705360208,-1.045654577095049,-12.220732888107868,9.485100943759027,4.1073365324884925,tremor
294,7721776,2.131,0.05501978841106812,-0.15701241988743256,-1.0470176337327517,-11.1730017997485,8.14337032263127,4.374309985915496,tremor
295,7721781,2.136,0.056753368743739444,-0.1556030276102761,-1.0484603049763,-10.140842721910895,6.857665656914988,4.619345303611541,tremor
296,7721786,2.141,0.05841298604092143,-0.15428886789104174,-1.0499682523819869,-9.127916570048633,5.628738619209085,4.842901739712211,tremor
297,7721790,2.145,0.05999908809524769,-0.15307020016367842,-1.0515270362839961,-8.137705888521271,4.457251802000429,5.045512262223516,tremor
298,7721795,2.15,0.0615118254432641,-0.1519465752779404,-1.0531223143892374,-7.173488921702175,3.3437444274588324,5.22778443515046,tremor
299,7721800,2.155,0.0629511630179766,-0.15091685622055478,-1.0547400283482038,-6.23831505000127,2.288601717255074,5.39040060614404,tremor
300,7721805,2.16,0.06431698521242991,-0.1499792492423655,-1.0563665756180776,-5.334982003340388,1.2920283918312248,5.5341171625193475,tremor
301,7721815,2.17,0.06560919192685946,-0.1491313444785393,-1.057988964320415,-4.466015250154688,0.3540266688503471,5.659762660492423,tremor
302,7721819,2.174,0.06682778344439218,-0.1483701649466449,-1.0595949493055656,-3.6336499290696205,-0.525620990812412,5.768234681257448,tremor
303,7721850,2.205,0.06797293240596029,-0.14769222265060816,-1.0611731482361069,-2.8398156433577197,-1.3473642780224262,5.8604953204666606,tremor
304,7721854,2.209,0.06904504172094474,-0.14709358040616172,-1.062713137146849,-2.0861243782378613,-2.1118926006240444,5.93756527177311,tremor
305,7721859,2.214,0.07004478791189453,-0.1465699179362364,-1.0642055255686242,-1.3738617349692628,-2.8201379754261118,6.0005165178963304,tremor
306,7721864,2.219,0.07097315007021292,-0.1461166007656947,-1.0656420118469694,-0.70398161228906,-3.4732734971843517,6.0504636931707365,tremor
307,7721869,2.224,0.07183142520528445,-0.14572875047577072,-1.0670154196885067,-0.07710441093357988,-4.072707686452861,6.08855422935257,tremor
308,7721874,2.229,0.07262123123996063,-0.14540131495628383,-1.0683197172080503,0.5064812090384502,-4.620075036796651,6.115957440359675,tremor
309,7721883,2.238,0.07334449922093192,-0.14512913740917124,-1.0695500198465697,1.0468130289561794,-5.117223085479742,6.13385274007142,tremor
310,7721888,2.243,0.07400345648240161,-0.1449070229984998,-1.070702578520913,1.5442464791490287,-5.566196333373299,6.143417220120838,tremor
311,7721893,2.248,0.07460060254547686,-0.14472980219832723,-1.0717747542893112,1.999442439103259,-5.96921734396458,6.1458128424540215,tremor
312,7721897,2.252,0.07513867947660838,-0.1445923900500728,-1.0727649807074582,2.4133517518703833,-6.328665358331966,6.142173524038169,tremor
313,7721902,2.257,0.07562063829101802,-0.1444898406963398,-1.0736727149388006,2.787196610544179,-6.647052772380398,6.133592407049385,tremor
314,7721907,2.262,0.07604960279782695,-0.14441739670135312,-1.0744983785925348,3.122449011714308,-6.926999834146194,6.121109615985467,tremor
315,7721917,2.272,0.07642883206906262,-0.14437053279469908,-1.0752432892077322,3.4208065095560563,-7.171207932416358,6.105700803063283,tremor
316,7721921,2.276,0.07676168249888736,-0.14434499378239904,-1.0759095832886887,3.684165544722976,-7.38243186340711,6.088266774741529,tremor
317,7721926,2.281,0.0770515702217344,-0.14433682645652673,-1.0765001318274292,3.914592664005279,-7.563451480092017,6.0696244745960675,tremor
318,7721931,2.286,0.07730193449233738,-0.14434240540162338,-1.0770184493240806,4.114293988850577,-7.717043148679578,6.050499570646549,tremor
319,7721940,2.295,0.077516202503775,-0.14435845264437838,-1.0774685974314042,4.285583331436568,-7.845951456944233,6.031520859843594,tremor
320,7721945,2.3,0.07769775603071191,-0.14438205112563268,-1.0778550844988901,4.430849392755839,-7.952861636653359,6.013216661752292,tremor
321,7721979,2.334,0.07784990022638888,-0.1444106519961961,-1.0781827624628082,4.552522504796713,-8.040373174770037,5.9960133300931595,tremor
322,7721984,2.339,0.07797583486259574,-0.14444207575811638,-1.0784567227051185,4.65304139793235,-8.110975094232591,5.980235965046303,tremor
323,7721989,2.344,0.07807862827160955,-0.14447450730101014,-1.078682192664874,4.734820488142943,-8.167023383363107,5.96611135945052,tremor
