sample,t_ms,t_s,ax,ay,az,gx,gy,gz,tremor
0,7440905,0.0,-0.10833411946720581,-0.24680428755257,-0.9892225204901193,0.43833130517488667,2.836596218464948,-3.1522219617982303,no_tremor
1,7440910,0.005,-0.10809222356923462,-0.2468007048942659,-0.9888649889866867,-0.012378057512187162,4.686263355123978,-3.1880770952152617,no_tremor
2,7440919,0.014,-0.10771087865869228,-0.24678015698598246,-0.9884115514562312,-0.4793592840589072,6.602762052739333,-3.2008551819475004,no_tremor
3,7440924,0.019,-0.10714996309429284,-0.24673118836809266,-0.9878824906467086,-0.9603197003107313,8.573686800707254,-3.1888602258350676,no_tremor
4,7440929,0.024,-0.1063867977818685,-0.24664225788137978,-0.9873256966279774,-1.452682364027264,10.585133554101391,-3.150509179234771,no_tremor
5,7440933,0.028,-0.10541425465764195,-0.24650365241859823,-0.9867994921950903,-1.9535849129449578,12.621700579475991,-3.0843559517471277,no_tremor
6,7440938,0.033,-0.1042348498192913,-0.24630796061037658,-0.9863598309930715,-2.459880410838022,14.66650132539261,-2.9891160433929267,no_tremor
7,7440943,0.038,-0.10285574522314166,-0.24604974928654869,-0.9860548388405359,-2.9681403125491124,16.70118999678417,-2.863691631378977,no_tremor
8,7440952,0.047,-0.10128583508413559,-0.245725041582384,-0.9859241013567458,-3.4746596636270106,18.70600045514176,-2.7071969244626906,no_tremor
9,7440957,0.052,-0.09953451611514814,-0.24533088361955138,-0.9859999408894445,-3.97546464237348,20.65979899893829,-2.5189835844522017,no_tremor
10,7440961,0.056,-0.09761143680700123,-0.24486506722630025,-0.9863090769783859,-4.466322541176571,22.540151499098368,-2.298666000448685,no_tremor
11,7440986,0.081,-0.09552669556421715,-0.2443259849021055,-0.9868740152662353,-4.942754270297145,24.323405271783596,-2.0461461877304887,no_tremor
12,7440991,0.086,-0.09329118643603562,-0.2437125739406727,-0.9877140117934646,-5.400049451007914,25.98478596540993,-1.7616380697443592,no_tremor
13,7440995,0.09,-0.09091695001211188,-0.24302431355194826,-0.9888456572779224,-5.83328414608448,27.498509621852296,-1.4456908891298323,no_tremor
14,7441001,0.096,-0.08841747429833549,-0.24226125051543307,-0.9902831760689225,-6.237341254394741,28.837909945015777,-1.0992114827021982,no_tremor
15,7441006,0.101,-0.08580793156342761,-0.24142403841175322,-0.9920385284686968,-6.6069335733487815,29.975580674663313,-0.7234851460662034,no_tremor
16,7441010,0.105,-0.08310535377665233,-0.24051398178737257,-0.9941213844171274,-6.936629508487066,30.88353281957541,-0.32019480598198485,no_tremor
17,7441015,0.11,-0.08032875433024068,-0.2395330803956738,-0.9965390164066245,-7.2208813831398,31.533366350887757,0.10856178714887581,no_tremor
18,7441020,0.115,-0.07749920399757868,-0.23848407080097087,-0.999296144012318,-7.4540562722968,31.8964557933834,0.5602571380536824,no_tremor
19,7441024,0.119,-0.07463986768540028,-0.23737046379256208,-1.0023947516375742,-7.630469253077974,31.944148980509272,1.031921649773438,no_tremor
20,7441029,0.124,-0.07177600684696864,-0.23619657665960497,-1.0058338939446794,-7.744418929451106,31.647978059895962,1.520134124565899,no_tremor
21,7441033,0.128,-0.06893495093687226,-0.23496755967793073,-1.0096094988723896,-7.790225051957318,30.979881652516937,2.021015414383093,no_tremor
22,7441038,0.133,-0.06614604014201939,-0.23368941630139475,-1.0137141752751233,-7.76226801575326,29.912436882637138,2.5302255090169568,no_tremor
23,7441043,0.138,-0.06344054080905263,-0.2323690166129832,-1.0181370304447854,-7.655029983766635,28.41909980943378,3.042964342705311,no_tremor
24,7441072,0.167,-0.060851534451215564,-0.23101410361794308,-1.0228635016882137,-7.463137346943259,26.474452606522707,3.553976588269537,no_tremor
25,7441077,0.172,-0.05841378089713902,-0.2296332919756094,-1.0278752054660367,-7.181404200496808,24.054455654999607,4.0575606916274864,no_tremor
26,7441106,0.201,-0.05616355598770996,-0.22823605878035413,-1.0331498071827274,-6.804876483779901,21.136702542545496,4.547582378912699,no_tremor
27,7441111,0.206,-0.05413846419437399,-0.2268327260217826,-1.038660914444896,-6.328876402481874,17.700675799615727,5.017492843081414,no_tremor
28,7441115,0.21,-0.052377226592572705,-0.22543443438437694,-1.0443779964060382,-5.749046726446152,13.728001056363302,5.460351786359301,no_tremor
29,7441120,0.215,-0.05091944475461402,-0.22405310809085224,-1.0502663316454408,-5.061394535431305,9.202697171670318,5.8688554594144,no_tremor
30,7441156,0.251,-0.04980534130861582,-0.22270141055407577,-1.0562869868566667,-4.2623339688802195,4.111419769791352,6.235369798477956,no_tremor
31,7441161,0.256,-0.0490754781285946,-0.22139269068008413,-1.0623968284282255,-3.3487275242321006,-1.55630447582614,6.551968718085539,no_tremor
32,7441166,0.261,-0.048770453362635184,-0.22014091975795957,-1.0685485687756577,-2.3179254422072306,-7.807855543107619,6.810477569262806,no_tremor
33,7441175,0.27,-0.048930578762527224,-0.21896061897823255,-1.0746908490266964,-1.1678027181692743,-14.647312520062652,7.002521720377347,no_tremor
34,7441180,0.275,-0.049595539044335134,-0.21786677773709823,-1.0807683593699724,0.10320671319875332,-22.075263606212754,7.119580160776533,no_tremor
35,7441189,0.284,-0.05080403528282235,-0.21687476300675718,-1.0867219980557787,1.4960790581091437,-30.088636419113616,7.153043966659338,no_tremor
36,7441194,0.289,-0.05259341462207851,-0.21600022018083603,-1.0924890696883756,3.011173427989016,-38.680551310879686,7.0942794053549045,no_tremor
37,7441199,0.294,-0.05499928886814268,-0.21525896593620855,-1.098003523076831,4.6482086849972575,-47.84020030329351,6.9346953887530995,no_tremor
38,7441229,0.324,-0.05805514481397022,-0.21466687378618043,-1.103196228518328,6.406244740383155,-57.552754110414504,6.665814918881409,no_tremor
39,7441233,0.328,-0.06179194942965589,-0.2142397531317934,-1.1079952939767241,8.283668647526541,-67.79929953018949,6.279350098229704,no_tremor
40,7441238,0.333,-0.06623775332952744,-0.21399322274390872,-1.1123264191933022,10.278185796766884,-78.55680924886981,5.7672802046339315,no_tremor
41,7441243,0.338,-0.07141729620231188,-0.21394257972404207,-1.1161132863312322,12.386816479870461,-89.79814581477393,5.121932256348135,no_tremor
42,7441248,0.343,-0.0773516181603745,-0.2141026650928959,-1.1192779853158294,14.605898048692463,-101.49210120364461,4.3360634187806575,no_tremor
43,7441257,0.352,-0.0840576812249741,-0.21448772724125276,-1.1217414715927987,16.931092844894124,-113.6034730183019,3.4029445318656073,no_tremor
44,7441262,0.357,-0.09154800540822244,-0.21511128455014167,-1.123424053587256,19.357402024539596,-126.09317794233151,2.3164439679888873,no_tremor
45,7441267,0.362,-0.09983032406780659,-0.21598598854868395,-1.1242459067080166,21.87918534210487,-138.91840260714096,1.0711109666214662,no_tremor
46,7441277,0.372,-0.10890726338525082,-0.21712348903086923,-1.1241276103063957,24.49018689176256,-152.03279154578877,-0.3377424648093231,no_tremor
47,7441282,0.377,-0.11877605094005661,-0.21853430259789616,-1.122990703570894,27.183566728421884,-165.3866714116819,-1.9139620415614285,no_tremor
48,7441287,0.382,-0.12942825840756014,-0.22022768613106994,-1.1207582559255411,29.951938206446247,-178.92731015467464,-3.660475076814172,no_tremor
49,7441292,0.387,-0.14084958338369188,-0.22221151673139503,-1.1173554471103455,32.78741078171819,-192.5992093918738,-5.579218755334183,no_tremor
50,7441297,0.392,-0.15301967521977186,-0.22449217968498042,-1.1127101517696791,35.6816379258036,-206.34442780116925,-7.671073823436696,no_tremor
51,7441301,0.396,-0.16591200952027313,-0.2270744660261866,-1.106753523071497,38.625869703193985,-220.10293300768726,-9.935804698874165,no_tremor
52,7441306,0.401,-0.179493815603438,-0.22996148126985513,-1.09942056963945,41.61100946892562,-233.81297912711193,-12.37200697072966,no_tremor
53,7441311,0.406,-0.1937260607382812,-0.23315456686552957,-1.0906507199129332,44.627674060436625,-247.41150687572176,-14.977063206198537,no_tremor
54,7441315,0.41,-0.2085634943432571,-0.2366532358848084,-1.0803883679680322,47.66625678977109,-260.8345629526628,-17.747107909185154,no_tremor
55,7441320,0.415,-0.22395475455541386,-0.24045512438157152,-1.068583394845092,50.71699249306822,-274.01773523513697,-20.677002386735882,no_tremor
56,7441325,0.42,-0.23984253865159744,-0.24455595975698835,-1.055191659544248,53.77002386423746,-286.89660018704825,-23.76032017559241,no_tremor
57,7441353,0.448,-0.2561638377300872,-0.24894954731007152,-1.0401754540734953,56.815468287934166,-299.4071787543711,-26.98934356520697,no_tremor
58,7441357,0.452,-0.2728502348670237,-0.25362777595417435,-1.0235039172626113,59.8434843916299,-311.4863969032635,-30.35507162966366,no_tremor
59,7441362,0.457,-0.2898282647142431,-0.25858064382784984,-1.0051534024746287,62.844337555399186,-323.07254686018905,-33.84724005551532,no_tremor
60,7441367,0.462,-0.30701983131728444,-0.263796304229477,-0.9851077948228161,65.8084636473815,-334.1057450549259,-37.45435293209121,no_tremor
61,7441372,0.467,-0.32434267992460375,-0.26926113197202656,-0.9633587739983608,68.72653028637173,-344.52838275398256,-41.163726557919915,no_tremor
62,7441377,0.472,-0.34171091780193935,-0.27495980990599056,-0.9399060193070021,71.58949496283641,-354.2855653891883,-44.96154520901696,no_tremor
63,7441382,0.477,-0.3590355785641814,-0.2808754350144794,-0.9147573539945144,74.38865937041851,-363.3255366126983,-48.83292870829165,no_tremor
64,7441386,0.481,-0.37622522425820815,-0.28698964316185255,-0.8879288264154942,77.11571931082587,-371.6000831362754,-52.76201152933988,no_tremor
65,7441391,0.486,-0.3931865793330514,-0.2932827512890795,-0.8594447260756057,79.76280953888457,-379.06491644620553,-56.73203306306511,no_tremor
66,7441396,0.491,-0.40982519067961765,-0.2997339156040611,-0.8293375330642554,82.32254291703099,-385.68002753986366,-60.72543857087292,no_tremor
67,7441401,0.496,-0.42604610807428156,-0.3063213041177495,-0.7976477999048096,84.78804325700573,-391.41001091941666,-64.72399024061772,no_tremor
68,7441406,0.501,-0.4417545795835699,-0.3130222817272215,-0.7644239653976366,87.1529712494919,-396.2243542133694,-68.70888764858874,no_tremor
69,7441411,0.506,-0.45685675674651705,-0.3198136059406098,-0.7297221006346466,89.41154292810153,-400.09768998949056,-72.66089681208032,no_tremor
70,7441416,0.511,-0.47126040461360574,-0.32667163126662874,-0.6936055880428049,91.5585401882839,-403.0100065878216,-76.56048689249378,no_tremor
71,7441421,0.516,-0.48487561195386886,-0.3335725202387244,-0.65614473509124,93.58931298767587,-404.94681515378585,-80.38797347730362,no_tremor
72,7441426,0.521,-0.49761549711338926,-0.34049245899211616,-0.6174163251955094,95.49977299627086,-405.89927049592904,-84.12366722900339,no_tremor
73,7441431,0.526,-0.509396905089853,-0.34740787524111577,-0.5775031093931389,97.2863786498642,-405.8642439256774,-87.74802654068593,no_tremor
74,7441436,0.531,-0.5201410913523213,-0.3542956563945015,-0.5364932435583298,98.9461117946181,-404.84434683861207,-91.24181268505252,no_tremor
75,7441446,0.541,-0.5297743877588381,-0.361133365380924,-0.4944796772700522,100.47644639192212,-402.8479044405099,-94.58624579378275,no_tremor
76,7441451,0.546,-0.5382288455859573,-0.36789945152144204,-0.4515595019287865,101.87531006905098,-399.8888796833784,-97.76315986759411,no_tremor
77,7441480,0.575,-0.5454428501702099,-0.3745734534783046,-0.4078332672867383,103.14103963520813,-395.9867481461625,-100.75515490617238,no_tremor
78,7441494,0.589,-0.5513617009784219,-0.3811361909434507,-0.3634042771117291,104.27233201106023,-391.16632527163125,-103.54574417582211,no_tremor
79,7441499,0.594,-0.5559381501223077,-0.38756994136061157,-0.31837787604725637,105.26819230577235,-385.45754805780336,-106.11949461920062,no_tremor
80,7441504,0.599,-0.5591328915268468,-0.3938585977017021,-0.27286074057204446,106.12788097173197,-378.8952139953737,-108.4621584729383,no_tremor
81,7441509,0.604,-0.5609149923100089,-0.3999878032575355,-0.22696018703563223,106.8508620399064,-371.5186807232017,-110.56079429639769,no_tremor
82,7441523,0.618,-0.561262257579643,-0.405945059629481,-0.18078350895677364,107.436754385467,-363.3715305054798,-112.40387580529496,no_tremor
83,7441528,0.623,-0.5601615198943303,-0.41171980462524077,-0.13443735423060515,107.88528781449396,-354.5012041673015,-113.98138711745653,no_tremor
84,7441533,0.628,-0.5576088451181643,-0.4173034575178124,-0.08802715082193599,108.19626552689392,-344.95860950636467,-115.2849032424093,no_tremor
85,7441538,0.633,-0.5536096473577312,-0.4226894300531842,-0.04165658715276195,108.36953422648045,-334.79770938524905,-116.30765488778742,no_tremor
86,7441543,0.638,-0.5481787071136012,-0.4278731026230683,0.004572849088752842,108.40496283554272,-324.0750946935797,-117.04457691711221,no_tremor
87,7441548,0.643,-0.5413400886719665,-0.43285176609622955,0.05056227243121475,108.30243043313592,-312.8495471878174,-117.49234006452096,no_tremor
88,7441557,0.652,-0.5331269550211658,-0.43762453087731035,0.09621574238700135,108.06182367321526,-301.1815969234383,-117.64936577577593,no_tremor
89,7441567,0.662,-0.5235812810960321,-0.4421922057947514,0.1414405505166773,107.68304355488073,-289.133078632915,-117.5158242902933,no_tremor
90,7441572,0.667,-0.5127534688150192,-0.44655715037465876,0.18614745649449874,107.16602102289438,-276.7666909928634,-117.09361630144245,no_tremor
91,7441599,0.694,-0.5007018700534569,-0.4507231049064473,0.2302508791810516,106.51074048890422,-264.14556227120164,-116.38633872945029,no_tremor
92,7441604,0.699,-0.48749222624147687,-0.45469500342040997,0.27366904957699767,105.71727001178986,-251.33282536147752,-115.39923531064093,no_tremor
93,7441609,0.704,-0.47319703550614367,-0.45847877523387953,0.31632413293164025,104.7857966059159,-238.3912047260063,-114.13913284708792,no_tremor
94,7441614,0.709,-0.4578948599944132,-0.46208114101790737,0.3581423272030359,103.71666500650943,-225.38261732422697,-112.61436407226468,no_tremor
95,7441619,0.714,-0.4416695870603431,-0.4655094093318871,0.39905394454434107,102.51041822583527,-212.36778923199628,-110.83467817356943,no_tremor
96,7441623,0.718,-0.42460965833535974,-0.46877127925219564,0.4389934816010647,101.16783834812352,-199.40588937224723,-108.81114007694613,no_tremor
97,7441629,0.724,-0.4068072804013303,-0.4718746541154663,0.4778996832568904,99.68998617982986,-186.5541815679523,-106.55601964902176,no_tremor
98,7441638,0.733,-0.3883576299846471,-0.47482747056948066,0.5157156031846429,98.0782385528478,-173.86769597716025,-104.0826720154424,no_tremor
99,7441643,0.738,-0.3693580654169452,-0.4776375461466045,0.5523886632595979,96.33432225194083,-161.39892085917631,-101.40541023713818,no_tremor
100,7441653,0.748,-0.34990735468177525,-0.4803124475234163,0.5878707126755737,94.46034369714475,-149.1975155334545,-98.5393716329904,no_tremor
101,7441658,0.753,-0.3301049287968709,-0.48285938058859373,0.6221180865556518,92.45881365655339,-137.31004531313306,-95.500379086167,no_tremor
102,7441662,0.757,-0.31005016767680704,-0.4852851024919496,0.6550916630344247,90.33266639816159,-125.77973911426328,-92.30479871527115,no_tremor
103,7441668,0.763,-0.28984172408213477,-0.4875958550607225,0.686756917241288,88.08527281709114,-114.64627036005265,-88.96939532247407,no_tremor
104,7441672,0.767,-0.269576889870895,-0.4897973183887492,0.7170839703292144,85.72044720249538,-103.9455617261345,-85.51118704517734,no_tremor
105,7441682,0.777,-0.24935100757976053,-0.49189458304125333,0.7460476316299401,83.242447441206,-93.70961422141403,-81.9473006368844,no_tremor
106,7441687,0.782,-0.22925692939608058,-0.49389213915458524,0.7736274321107978,80.65596859505338,-83.966361078411,-78.2948287902134,no_tremor
107,7441692,0.787,-0.20938452483146328,-0.49579388070717373,0.7998076474880823,77.96612993548827,-74.73954693345917,-74.5706908925826,no_tremor
108,7441697,0.792,-0.1898202378420597,-0.49760312334294715,0.8245773095468911,75.17845566989794,-66.04863279412812,-70.79149857467291,no_tremor
109,7441724,0.819,-0.17064669371603453,-0.4993226342842419,0.8479302043681435,72.29884974414493,-57.90872729776635,-66.97342737600475,no_tremor
110,7441729,0.824,-0.15194235571668518,-0.5009546730236321,0.8698648562280367,69.33356524760917,-50.330544739429655,-63.13209581200037,no_tremor
111,7441734,0.829,-0.13378123118651933,-0.5025010415883712,0.8903844958988865,66.28916906666886,-43.32039026280526,-59.282453076313594,no_tremor
112,7441739,0.834,-0.11623262655083952,-0.5039631431986246,0.9094970119613335,63.172502513050304,-36.880172438596155,-55.43867653768276,no_tremor
113,7441743,0.838,-0.09936095039602007,-0.5053420480889523,0.9272148835796515,59.9906386864978,-31.00744320231643,-51.61408008283032,no_tremor
114,7441753,0.848,-0.08322556354599159,-0.506638565157544,0.9435550930448593,56.75083732520616,-25.695464826170774,-47.82103421874588,no_tremor
115,7441758,0.853,-0.0678806748377488,-0.5078533179895621,0.9585390162984458,53.46049786918552,-20.933303308777575,-44.070898688880256,no_tremor
116,7441763,0.858,-0.05337528111057633,-0.5089868237054511,0.9721922896484555,50.12711142253501,-16.705947315800568,-40.37396818659635,no_tremor
117,7441768,0.863,-0.03975314976305705,-0.5100395730367931,0.9845446510087237,46.75821225345039,-12.99445160596474,-36.739431570883404,no_tremor
118,7441773,0.868,-0.0270528420724947,-0.5110121100446172,0.9956297542497045,43.36132941584071,-9.776103729512542,-33.175344809135,no_tremor
119,7441777,0.872,-0.015307775287409942,-0.5119051099690161,1.0054849556457943,39.94393901516444,-7.024612682305242,-29.68861769628926,no_tremor
120,7441782,0.877,-0.004546321276007612,-0.5127194538235613,1.0141510719206805,36.513417576594094,-4.710318127879559,-26.285014234678545,no_tremor
121,7441787,0.882,0.005208060768667179,-0.5134562985049973,1.0216721099980977,33.07699690960689,-2.8004187514692562,-22.969166406838916,no_tremor
122,7441792,0.887,0.01393666040417173,-0.514117141357976,1.0280949692238863,29.64172080295107,-1.2592182754558825,-19.7446009326479,no_tremor
123,7441797,0.892,0.02162532401634018,-0.5147038782982885,1.033469117497684,26.2144038298233,-0.04838763759953241,-16.613778469604036,no_tremor
124,7441802,0.897,0.028264238530573527,-0.5152188547424825,1.0378462434010671,22.801592496042222,0.8727581938233179,-13.578144589430154,no_tremor
125,7441807,0.902,0.033847694793764364,-0.5156649087082065,1.0412798869991793,19.409528924703046,1.5469703233446834,-10.638191745908394,no_tremor
126,7441812,0.907,0.03837383503250386,-0.5160454055341351,1.0438250524949564,16.044117239842766,2.018764537630161,-7.793531339152586,no_tremor
127,7441817,0.912,0.0418443890933518,-0.5163642637213125,1.0455378063031961,12.71089278916942,2.3341100413552733,-5.042974881602088,no_tremor
128,7441821,0.916,0.04426440437547415,-0.5166259714233014,1.0464748643664152,9.414994331541159,2.540109971527785,-2.384623181835029,no_tremor
129,7441847,0.942,0.04564197445348531,-0.5168355931180875,1.0466931726492972,6.1611393077296075,2.6846753699259973,0.18403761552997663,no_tremor
130,7441852,0.947,0.04598797134404885,-0.5169987659916366,1.0462494847346493,2.9536023103490763,2.816194316365572,2.666034361856517,no_tremor
131,7441856,0.951,0.04531578618694862,-0.5171216855686203,1.0451999403267955,-0.2038031354961214,2.9831979428466275,5.064800891494498,no_tremor
132,7441861,0.956,0.043641082794076726,-0.5172110801624986,1.0435996482822854,-3.30773938288353,3.2340250594902025,7.384068990946656,no_tremor
133,7441866,0.961,0.04098156808558255,-0.5172741738048827,1.04150227756907,-6.355355992848177,3.6164871276357933,9.627757709791402,no_tremor
134,7441871,0.966,0.037356782910623394,-0.5173186374612313,1.0389596593361636,-9.344297544136888,4.177535314544593,11.799862391439543,no_tremor
135,7441875,0.97,0.03278791617506304,-0.5173525285412787,1.0360214030791797,-12.272707916304,4.962931358716014,13.904344804060953,no_tremor
136,7441880,0.975,0.027297644601286267,-0.517384218955219,1.0327345297252764,-15.139231066760054,6.016923964956536,15.94502573713035,no_tremor
137,7441890,0.985,0.020909999849913135,-0.5174223122356814,1.0291431243368223,-17.94300834455605,7.381932433898138,17.92548139757633,no_tremor
138,7441895,0.99,0.013650264155752958,-0.5174755505257718,1.0252880110406726,-20.683672402975958,9.098239212221852,19.84894489304236,no_tremor
139,7441900,0.995,0.005544895079739971,-0.5175527125087267,1.0212064527141695,-23.361337790868788,11.203693029059862,21.718214030563725,no_tremor
140,7441905,1.0,-0.0033785205430809408,-0.5176625036079412,1.016931877876462,-25.976588319078342,13.73342426322132,23.53556658947792,no_tremor
141,7441909,1.004,-0.013091283875530263,-0.5178134400020493,1.0124936371187045,-28.530461312422613,16.71957416671522,25.302684149181246,no_tremor
142,7441914,1.009,-0.023563573462913344,-0.5180137281685394,1.0079167912390574,-31.024428868207757,20.191039552391416,27.020585465295,no_tremor
143,7441919,1.014,-0.03476440808684777,-0.5182711417875532,1.0032219330178835,-33.46037624874242,24.173234535069856,28.689570290389323,no_tremor
144,7441924,1.019,-0.04666158490154873,-0.5185928979057658,0.9984250442735866,-35.840577539377314,28.687870892369126,30.309174426070104,no_tremor
145,7441929,1.024,-0.05922159511888429,-0.5189855342813177,0.9935373894850323,-38.16766870815326,33.75275857909803,31.878136671756415,no_tremor
146,7441938,1.033,-0.07240951995864241,-0.5194547898084191,0.9885654468626912,-40.444618209172816,39.381627883550415,33.394378203389856,no_tremor
147,7441943,1.038,-0.08618891002492558,-0.5200054898587906,0.9835108773126858,-42.67469527720632,45.58397465261538,34.85499477515697,no_tremor
148,7441969,1.064,-0.10052165170212378,-0.5206414382810896,0.978370531285633,-44.861436063565094,52.36492993432302,36.25626199163821,no_tremor
149,7441974,1.069,-0.11536782457419725,-0.5213653176735544,0.9731364930587362,-47.008607763511094,59.72515529327157,37.593653749120755,no_tremor
150,7441979,1.074,-0.13068555424376782,-0.5221785993945778,0.9677961615882786,-49.12017088658556,67.66076495270525,38.86187379629963,no_tremor
151,7441984,1.079,-0.1464308652434366,-0.5230814646070476,0.9623323667087074,-51.20023982644634,76.1632758153557,40.05490021965516,no_tremor
152,7441989,1.084,-0.16255753897196995,-0.5240727374715876,0.9567235191524488,-53.25304189653807,85.21958631682703,41.1660425186682,no_tremor
153,7441994,1.089,-0.1790169817394376,-0.5251498314166774,0.9509437926197042,-55.282875009116154,94.81198496375812,42.18801079870934,no_tremor
154,7441998,1.093,-0.1957581080621852,-0.5263087092236659,0.944963335931503,-57.294064183702844,104.91818929241329,43.11299647228174,no_tremor
155,7442003,1.098,-0.21272724430967513,-0.5275438574740793,0.9387485131429193,-59.290917074590844,115.51141584223187,43.93276372196325,no_tremor
156,7442008,1.103,-0.22986805767179067,-0.528848275716736,0.9322621693697755,-61.27767870525646,126.56048156857716,44.63875084257663,no_tremor
157,7442013,1.108,-0.2471215151888073,-0.5302134805238544,0.925463919987997,-63.25848559136175,138.0299369182613,45.22218044767415,no_tremor
158,7442018,1.113,-0.2644258772686159,-0.5316295244193301,0.9183104607996228,-65.2373194245343,149.8802305616571,45.6741773973124,no_tremor
159,7442023,1.118,-0.2817167297089237,-0.5330850294795936,0.9107558967249473,-67.21796047738445,162.0679055203557,45.985893180598545,no_tremor
160,7442033,1.128,-0.2989270577491657,-0.5345672352294293,0.9027520865792331,-69.20394087783012,174.54582615557212,46.14863536820978,no_tremor
161,7442037,1.132,-0.31598736510369274,-0.5360620602842948,0.8942490015282745,-71.19849789046744,187.26343519645653,46.154000638763364,no_tremor
162,7442042,1.137,-0.3328258402858514,-0.5375541770311975,0.8851950948929165,-73.20452733768568,200.167039695715,45.994009781374125,no_tremor
163,7442047,1.142,-0.3493685718394071,-0.5390270984978355,0.8755376810903824,-75.22453729568036,213.20012450884911,45.661242988145176,no_tremor
164,7442052,1.147,-0.36553981336918523,-0.5404632764402564,0.8652233216602117,-77.26060221080294,226.30369160568839,45.14897367720792,no_tremor
165,7442094,1.189,-0.3812622985227802,-0.5418442095864944,0.8541982165226321,-79.31431759992961,239.4166232363069,44.45129903073611,no_tremor
166,7442099,1.194,-0.39645760533002683,-0.5431505609105018,0.8424085988489778,-81.38675552976873,252.47606669075228,43.56326539510264,no_tremor
167,7442109,1.204,-0.411046568564618,-0.5443622827834664,0.8298011321656433,-83.47842112836416,265.4178381365567,42.480986677235514,no_tremor
168,7442113,1.208,-0.4249497380605774,-0.5454587488690513,0.8163233085291297,-85.58921048409789,278.17684282587675,41.20175389035466,no_tremor
169,7442118,1.213,-0.4380878802000024,-0.546418891703578,0.8019238467647608,-87.71837043620705,290.68750885052117,39.72413405970384,no_tremor
170,7442123,1.218,-0.45038251908629284,-0.5472213450286605,0.7865530898403411,-89.86446093854174,302.884231564113,38.048056794566925,no_tremor
171,7442128,1.223,-0.4617565132235642,-0.5478445901069092,0.7701634004560727,-92.02532085810476,314.70182574571834,36.174886961980405,no_tremor
172,7442133,1.228,-0.47213466283355876,-0.5482671054302363,0.7527095538911168,-94.19803822949639,326.07598252218236,34.10748205483823,no_tremor
173,7442142,1.237,-0.4814443422556559,-0.5484675194049734,0.7341491270704609,-96.3789261103575,336.94372799059323,31.850233029260405,no_tremor
174,7442147,1.242,-0.48961615119870544,-0.5484247657505126,0.7144428827106696,-98.56350525978516,347.24388039102655,29.4090875916208,no_tremor
175,7442152,1.247,-0.4965845779574074,-0.5481182414607605,0.6935551472678161,-100.74649488349652,356.9175025795169,26.791555142832312,no_tremor
176,7442157,1.252,-0.5022886670899728,-0.5475279672318986,0.6714541812364722,-102.92181265307052,365.90834644990247,24.00669283297615,no_tremor
177,7442162,1.257,-0.5066726835010672,-0.5466347502393121,0.6481125401276127,-105.08258511396079,374.16328585775886,21.06507243788823,no_tremor
178,7442166,1.261,-0.5096867644069486,-0.54542034904185,0.6235074241889704,-107.22116945417169,381.6327345140881,17.978728034969397,no_tremor
179,7442171,1.266,-0.5112875502959672,-0.5438676402034988,0.5976210146391977,-109.32918741952037,388.27104524220897,14.761084723359149,no_tremor
180,7442176,1.271,-0.5114387857494274,-0.5419607859599775,0.5704407938882886,-111.3975719372564,394.0368869290431,11.426868901020747,no_tremor
181,7442181,1.276,-0.5101118808632529,-0.5396854019343343,0.5419598469318959,-113.41662674989978,398.8935954529232,7.992000878070082,no_tremor
182,7442186,1.281,-0.5072864240156426,-0.5370287235378524,0.5121771408546766,-115.37609906707938,402.8094948381101,4.473470874022327,no_tremor
183,7442191,1.286,-0.5029506368642194,-0.533979769299375,0.4810977791728264,-117.26526491754132,405.75818487935237,0.8891997206005142,no_tremor
184,7442219,1.314,-0.4971017627312505,-0.5305294989696485,0.44873322759979917,-119.07302653108387,407.7187915086047,-2.7421141247795315,no_tremor
185,7442223,1.318,-0.48974637995070086,-0.5266709638755637,0.41510150773669374,-120.78802070922845,408.6761762560215,-6.401159358247894,no_tremor
186,7442228,1.323,-0.4809006323116683,-0.5223994466901425,0.3802273551652542,-122.39873676766314,408.6211013181756,-10.068186217416873,no_tremor
187,7442238,1.333,-0.470590369446177,-0.5177125875821492,0.34414233844487013,-123.89364227031517,407.55034702773196,-13.723188030593844,no_tremor
188,7442252,1.347,-0.45885119087955495,-0.5126104936488469,0.30688493557738283,-125.26131443964195,405.46677894085167,-17.346087256736787,no_tremor
189,7442262,1.357,-0.44572838848825724,-0.5070958286235706,0.2685005646104899,-126.49057483425143,402.37936229999906,-20.91692317009022,no_tremor
190,7442267,1.362,-0.4312767832937513,-0.5011738800648937,0.22904156521575703,-127.57062465661151,398.3031222443828,-24.416038226356324,no_tremor
191,7442272,1.367,-0.41556045387009455,-0.4948526015422723,0.1885671283088794,-128.49117792582643,393.259048790851,-27.82426011602784,no_tremor
192,7442277,1.372,-0.3986523551684397,-0.48814262770487166,0.14714317107805136,-129.2425897512259,387.27394627974974,-31.123076597462802,no_tremor
193,7442281,1.376,-0.3806338282664584,-0.48105726053985265,0.10484215515363765,-129.81597707044367,380.38022767267745,-34.294800416989546,no_tremor
194,7442286,1.381,-0.3615940034208728,-0.47361242559090205,0.06174284610156166,-130.2033294437618,372.6156548070329,-37.322721942427904,no_tremor
195,7442291,1.386,-0.34162910080897985,-0.46582659742215266,0.01793001297407669,-130.3976077957967,364.02302646164446,-40.19124751995097,no_tremor
196,7442296,1.391,-0.3208416354538922,-0.4577206941829729,-0.02650593267514891,-130.392829350197,354.6498168744335,-42.88602197565252,no_tremor
197,7442301,1.396,-0.29933953499714133,-0.44931794175811374,-0.07146935809423467,-130.18413740614108,344.54776818266794,-45.394034097519906,no_tremor
198,7442305,1.4,-0.2772351811669681,-0.440643708672182,-0.11685988978009916,-129.7678550493091,333.77244113432147,-47.70370433780741,no_tremor
199,7442310,1.405,-0.2546443879442578,-0.4317253136473839,-0.16257295078821354,-129.14152236128265,322.38272935052976,-49.80495436684048,no_tremor
200,7442344,1.439,-0.2316853314974359,-0.42259180847057615,-0.20850035137587158,-128.3039171718946,310.4403434024398,-51.689258487955854,no_tremor
201,7442349,1.444,-0.2084774488590833,-0.4132737395751087,-0.2545309280949309,-127.25505986615931,298.0092719584629,-53.349677285941084,no_tremor
202,7442354,1.449,-0.18514032389390786,-0.4038028924200789,-0.3005512250770201,-125.99620318051424,285.15522812415213,-54.78087421169044,no_tremor
203,7442359,1.454,-0.1617925801274436,-0.39421202326308824,-0.34644621000638,-124.52980826793483,271.9450896253186,-55.979116077675954,no_tremor
204,7442364,1.459,-0.13855080025046346,-0.38453458319309586,-0.3921000162923518,-122.85950855760667,258.4463415250341,-56.942258633222536,no_tremor
205,7442369,1.464,-0.11552849150239032,-0.3748044392954923,-0.43739670229672384,-120.99006308709787,244.726529737927,-57.669718506764056,no_tremor
206,7442374,1.469,-0.09283511473843604,-0.3650555976013237,-0.48222101811497653,-118.92730106065025,230.85273284799416,-58.16243285895133,no_tremor
207,7442379,1.474,-0.07057519294480381,-0.3553219320923721,-0.526459170294463,-116.67805939507488,216.89105877806233,-58.4228080987048,no_tremor
208,7442383,1.478,-0.04884751242870088,-0.3456369235536462,-0.5699995749489766,-114.25011495009319,202.90617177995168,-58.45465898053278,no_tremor
209,7442388,1.483,-0.027744426999878613,-0.3360334115291541,-0.61273358997581,-111.65211299555116,188.96085407402524,-58.263139330374266,no_tremor
210,7442393,1.488,-0.007351272294438438,-0.3265433620761089,-0.6545562174978788,-108.89349324776352,175.11560532509404,-57.85466554680781,no_tremor
211,7442398,1.493,0.012254105907037014,-0.31719765344694056,-0.6953667682529558,-105.98441453274387,161.42828205649445,-57.23683390735713,no_tremor
212,7442403,1.498,0.03100170880844058,-0.30802588127034336,-0.7350694804476526,-102.93567883864232,147.95377812416143,-56.41833259145394,no_tremor
213,7442407,1.502,0.0488296297546575,-0.29905618426104463,-0.773574086583625,-99.75865523787547,134.74374653253483,-55.408849227294276,no_tremor
214,7442412,1.507,0.06568419283178627,-0.29031509097180597,-0.810796322924283,-96.4652039195276,121.8463621939562,-54.21897469045167,no_tremor
215,7442417,1.512,0.08151999272229998,-0.2818273876213777,-0.8466583775610641,-93.0676003949046,109.30612471883204,-52.86010383398847,no_tremor
216,7442422,1.517,0.09629984546387664,-0.27361600660282714,-0.8810892744064286,-89.57845983621131,97.16369996993751,-51.344333813912534,no_tremor
217,7442427,1.522,0.109994660951607,-0.26570193491458144,-0.914025191826195,-86.01066148464055,85.45579890543935,-49.68436068457907,no_tremor
218,7442432,1.527,0.1225832485153387,-0.25810414147951416,-0.9454097159621979,-82.37727311434024,74.21509214562569,-47.893374964230695,no_tremor
219,7442437,1.532,0.13405206668778993,-0.2508395221422295,-0.975194030021482,-78.69147564718868,63.470158692831674,-45.98495689728711,no_tremor
220,7442465,1.56,0.1443949273960931,-0.24392286107385963,-1.0033370418568002,-74.96648815716958,53.24546727338273,-43.97297215635027,no_tremor
221,7442470,1.565,0.1536126633737707,-0.23736680736867288,-1.0298054529809426,-71.21549365436832,43.561388813979654,-41.87146872766392,no_tremor
222,7442475,1.57,0.16171276582568056,-0.23118186576743432,-1.0545737727083477,-67.45156616304511,34.434238569714694,-39.69457570725092,no_tremor
223,7442479,1.574,0.16870899761237507,-0.225376400642855,-1.0776242813924688,-63.687599672273784,25.876346350875696,-37.45640470179883,no_tremor
224,7442484,1.579,0.17462098577690632,-0.21995665257570304,-1.0989469467499222,-59.936239528081856,17.896153147062503,-35.1709544824941,no_tremor
225,7442489,1.584,0.17947379630036045,-0.21492676699314933,-1.1185392970856005,-56.209816770887244,10.498332257049148,-32.85201948859989,no_tremor
226,7442494,1.589,0.18329749354797448,-0.21028883441639393,-1.1364062549267484,-52.52028583460341,3.683932852052776,-30.513102727616353,no_tremor
227,7442499,1.594,0.18612668685215764,-0.2060429418748929,-1.1525599342093003,-48.87916593991778,-2.5494562390561217,-28.16733357361567,no_tremor
228,7442504,1.599,0.1880000669366188,-0.2021872350011765,-1.1670194037960948,-45.29748644573259,-8.207524823009564,-25.82739092416607,no_tremor
229,7442509,1.604,0.18895993528369093,-0.1987179902389736,-1.179810419786088,-41.78573637203271,-13.299044057012205,-23.505432136465192,no_tremor
230,7442513,1.608,0.18905172996578146,-0.19562969649566359,-1.1909651288217813,-38.35381827187427,-17.835655932932273,-21.21302812168723,no_tremor
231,7442518,1.613,0.1883235518068863,-0.19291514546513688,-1.2005217444315157,-35.011006605086685,-21.831651853588927,-18.96110493008996,no_tremor
232,7442523,1.618,0.1868256949468638,-0.19056552975346522,-1.2085241983579833,-31.765910747768583,-25.303742577262216,-16.759892105712503,no_tremor
233,7442528,1.623,0.18461018591538952,-0.18857054786785266,-1.2150217688214213,-28.626442757375894,-28.270821744545234,-14.618878027590615,no_tremor
234,7442533,1.628,0.18173033517665454,-0.1869185150853005,-1.220068687736642,-25.599790000607744,-30.75372512923383,-12.54677238605265,no_tremor
235,7442538,1.633,0.17824030479585665,-0.18559647920336675,-1.2237237290334144,-22.69239273640272,-32.77498767536169,-10.551475872131746,no_tremor
236,7442543,1.638,0.1741946954402394,-0.18459034018985299,-1.2260497804018222,-19.909926725054095,-34.35860029748754,-8.640057090167048,no_tremor
237,7442548,1.643,0.16964815540904232,-0.18388497278672244,-1.2271134009774254,-17.257290904880225,-35.529768332038486,-6.81873664092955,no_tremor
238,7442552,1.647,0.16465501383672645,-0.18346435117923296,-1.2269843676740169,-14.73860014127463,-36.31467343447739,-5.092878264872854,no_tremor
239,7442557,1.652,0.15926893967245867,-0.183311674905961,-1.2257352130446797,-12.35718301285301,-36.74024061923347,-3.4669868804650017,no_tremor
240,7442562,1.657,0.15354262753801812,-0.18340949525061942,-1.2234407576882316,-10.115584560544475,-36.83391203350827,-1.9447132994074046,no_tremor
241,7442587,1.682,0.1475275111316702,-0.18373984141466784,-1.2201776403059132,-8.015573892323115,-36.62342893800825,-0.5288653488233868,no_tremor
242,7442592,1.687,0.14127350449307804,-0.18428434581481432,-1.2160238485443489,-6.058156510982167,-36.13662323421005,0.7785749186619849,no_tremor
243,7442597,1.692,0.1348287711737855,-0.18502436787841692,-1.2110582537307413,-4.243591213062622,-35.401219728866636,1.9764282914789617,no_tremor
244,7442611,1.706,0.1282395211511473,-0.18594111572261143,-1.2053601525144362,-2.5714113887624754,-34.44465016606892,3.0642901480335967,no_tremor
245,7442616,1.711,0.12154983515279376,-0.1870157651030903,-1.19900881828273,-1.0404505305970946,-33.29387989243936,4.042497330326101,no_tremor
246,7442621,1.716,0.11480151589876315,-0.1882295750117794,-1.1920830650352314,0.3511282691315536,-31.97524785960421,4.912090616217667,no_tremor
247,7442626,1.721,0.1080339656056369,-0.1895639992962502,-1.184660826202646,1.605799084599536,-30.514320514763543,5.674773290802219,no_tremor
248,7442631,1.726,0.10128408892976774,-0.1910007936736431,-1.1768187507019008,2.726636474313746,-28.935759985205262,6.332866338612793,no_tremor
249,7442640,1.735,0.09458622036196324,-0.1925221175215864,-1.1686318183412951,3.717275673407501,-27.26320682301462,6.889260793444518,no_tremor
250,7442645,1.74,0.08797207493417415,-0.19411062984885905,-1.1601729765297437,4.5818700147690725,-25.51917743879619,7.3473677897858325,no_tremor
251,7442650,1.745,0.08147072096852631,-0.19574957887900724,-1.1515128000993717,5.32504595918978,-23.724976216728397,7.711066858199806,no_tremor
252,7442655,1.75,0.07510857349446216,-0.1974228847205092,-1.1427191759121573,5.951856133800537,-21.900622168876573,7.984652996765814,no_tremor
253,7442665,1.76,0.0689094068802725,-0.19911521464727203,-1.1338570137785176,6.46773079057581,-20.064789857204556,8.172783033212962,no_tremor
254,7442670,1.765,0.0628943851673297,-0.20081205057284354,-1.1249879850594484,6.878428103308503,-18.23476419084432,8.280421769437703,no_tremor
255,7442674,1.769,0.05708210855404902,-0.20249974836989895,-1.1161702901477952,7.18998372276103,-16.42640859804997,8.312788373485983,no_tremor
256,7442680,1.775,0.051488674447786376,-0.2041655887621595,-1.1074584558254772,7.408660006161586,-14.654145980570231,8.275303455497781,no_tremor
257,7442684,1.779,0.046127751484891996,-0.2057978195973875,-1.0989031632726796,7.540895329757379,-12.930951784556562,8.173537234955209,no_tremor
258,7442710,1.805,0.04101066491380301,-0.20738568939542687,-1.0905511072666874,7.593253882825025,-11.26835846543465,8.013159177321162,no_tremor
259,7442715,1.81,0.03614649174751317,-0.20891947215190343,-1.0824448868582606,7.572376328779387,-9.676470582040654,7.7998894482544,no_tremor
260,7442719,1.814,0.03154216412417486,-0.21039048346338,-1.0746229275564623,7.484931703623251,-8.163989726350495,7.539452502134117,no_tremor
261,7442724,1.819,0.027202579370225643,-0.2117910881207271,-1.067119434789836,7.3375709039304,-6.738248478999822,7.237533087945004,no_tremor
262,7442729,1.824,0.023130715338832764,-0.21311469939198904,-1.059964378144128,7.136882096258707,-5.405252576608683,6.89973491966688,no_tremor
263,7442738,1.833,0.019327749694753198,-0.2143557702829839,-1.0531835056094438,6.8893483576672105,-4.169730482087702,6.531542221409912,no_tremor
264,7442743,1.838,0.015793181930345342,-0.2155097771234864,-1.0467983868112067,6.601307832662513,-3.0351895596781127,6.138284321592892,no_tremor
265,7442748,1.843,0.01252495702037532,-0.21657319588034288,-1.0408264839579255,6.278916664785983,-2.003978067914606,5.725103436365868,no_tremor
266,7442753,1.848,0.009519589748038158,-0.21754347164800025,-1.0352812490206307,5.92811493048337,-1.0773521916382953,5.296925749182643,no_tremor
267,7442758,1.853,0.00677228885367114,-0.21841898181332092,-1.030172245467326,5.5545957685035106,-0.2555473360760841,4.858435859330735,no_tremor
268,7442768,1.863,0.004277080264848451,-0.21919899343620225,-1.025505292712649,5.163777860004186,0.4621470976922982,4.414054636849757,no_tremor
269,7442773,1.868,0.0020269287578081234,-0.21988361543057994,-1.021282631308401,4.760781373471755,1.0773102430277288,3.96792048537815,no_tremor
270,7442782,1.877,1.3857472700029658e-05,-0.22047374617121007,-1.0175031067939266,4.350407445587228,1.5923103962780931,3.5238739797006757,no_tremor
271,7442787,1.882,-0.0017709352425505634,-0.22097101718872547,-1.014162370044583,3.937121225875659,2.0102245354817327,3.085445813791339,no_tremor
272,7442802,1.897,-0.0033369621513691414,-0.22137773364645916,-1.0112530918994163,3.5250384716886987,2.334757508705587,2.6558479706119065,no_tremor
273,7442807,1.902,-0.004694337080423111,-0.2216968123139296,-1.0087651898132406,3.117915643785461,2.570161641366634,2.2379680070453625,no_tremor
274,7442831,1.926,-0.005853668951204827,-0.22193171775919063,-1.006686064261887,2.719143423932359,2.7211574611338682,1.834366333639948,no_tremor
275,7442836,1.931,-0.006825960299374942,-0.22208639747105854,-1.0050008426319936,2.3317435546107803,2.7928561704041486,1.4472763568425606,no_tremor
276,7442841,1.936,-0.007622510625546059,-0.2221652165907375,-1.0036926283492993,1.9583688842578513,2.7906844180287753,1.0786073401901188,no_tremor
277,7442846,1.941,-0.008254824833767525,-0.22217289288339015,-1.0027427530437865,1.6013064854699426,2.720311843248819,0.7299498302346591,no_tremor
278,7442856,1.951,-0.008734526916710502,-0.22211443252040303,-1.0021310296172146,1.2624836959475352,2.58758179108018,0.4025834826061842,no_tremor
279,7442860,1.955,-0.009073278955021953,-0.22199506717993453,-1.0018360041673742,0.9434769132974608,2.398445530064428,0.09748711389068382,no_tremor
280,7442870,1.965,-0.009282705423307136,-0.22182019291272778,-1.0018352048303478,0.645522957388898,2.1589002394013046,-0.18464920330658294,no_tremor
281,7442875,1.97,-0.009374322741199845,-0.22159531116598824,-1.002105385722578,0.369532799368188,1.8749309742653464,-0.44341019131699655,no_tremor
282,7442880,1.975,-0.009359473974914339,-0.2213259723123483,-1.0026227642938816,0.11610744455063994,1.5524567689504418,-0.6786397593724598,no_tremor
283,7442885,1.98,-0.009249268579860574,-0.22101772199375103,-1.0033632505361654,-0.11444425405360158,1.1972810002128784,-0.890423938318073,no_tremor
284,7442890,1.985,-0.009054527074652586,-0.22067605056009998,-1.0043026666264867,-0.3220860850866076,0.8150461075895388,-1.0790725683760791,no_tremor
285,7442895,1.99,-0.008785730547633454,-0.22030634585738723,-1.0054169557143224,-0.5070335150111032,0.41119274995468336,-1.2450999593668677,no_tremor
286,7442899,1.994,-0.00845297491593212,-0.21991384959713922,-1.0066823786897565,-0.6697315252016953,-0.009076536843141627,-1.3892047498506837,no_tremor
287,7442904,1.999,-0.008065929881349134,-0.2195036175161501,-1.0080756978916325,-0.8108315130582954,-0.44082913214828184,-1.5122491944875835,no_tremor
288,7442909,2.004,-0.007633802554086566,-0.21908048351091525,-1.009574346833545,-0.9311675270565132,-0.8794295438668001,-1.6152381067172639,no_tremor
289,7442914,2.009,-0.007165305741099708,-0.21864902790376284,-1.0111565851429087,-1.031732109039145,-1.320562042117471,-1.6992976771451984,no_tremor
290,7442919,2.014,-0.006668630917022353,-0.21821354996667433,-1.0128016380267455,-1.113652015765911,-1.7602487471058674,-1.7656543781208645,no_tremor
291,7442923,2.018,-0.0061514259087867874,-0.2177780447938094,-1.014489819699985,-1.1781640851461117,-2.194863244354233,-1.8156141534365038,no_tremor
292,7442928,2.023,-0.0056207773275220585,-0.21734618457478613,-1.0162026403405855,-1.226591500981173,-2.6211398400801005,-1.8505420798900347,no_tremor
293,7442953,2.048,-0.005083197771488351,-0.2169213042781048,-1.0179228962728308,-1.2603206944039709,-3.036178607034772,-1.8718426748033188,no_tremor
294,7442958,2.053,-0.00454461780158205,-0.2165063917084676,-1.0196347432268906,-1.2807791018608465,-3.437446405554646,-1.8809410101075879,no_tremor
295,7442963,2.058,-0.004010382657948512,-0.21610408185445365,-1.0213237526786014,-1.2894139798117374,-3.8227740957772878,-1.8792647791175061,no_tremor
296,7442967,2.062,-0.0034852536455999453,-0.21571665539597715,-1.0229769514356901,-1.2876724560231148,-4.190350184799205,-1.8682274469560645,no_tremor
297,7442972,2.067,-0.0029734140723146536,-0.2153460411961937,-1.0245828448005057,-1.2769829761001132,-4.538711176713132,-1.84921260046755,no_tremor
298,7442982,2.077,-0.002478479576505066,-0.21499382256142116,-1.0261314237986232,-1.2587382811681254,-4.866728913641522,-1.8235595989950595,no_tremor
299,7442986,2.081,-0.002003512638070105,-0.21466124701569886,-1.0276141571114874,-1.234280028528699,-5.173595211976786,-1.7925506138228398,no_tremor
300,7442996,2.091,-0.0015510410225630714,-0.21434923930366753,-1.0290239684848794,-1.2048851427757605,-5.458804110164679,-1.7573991311635422,no_tremor
301,7443001,2.096,-0.0011230798691072008,-0.2140584173062152,-1.0303552005005234,-1.1717539615970334,-5.7221320525533255,-1.7192399807721208,no_tremor
302,7443006,2.101,-0.0007211570962378026,-0.21378911052775604,-1.0316035656945493,-1.1360002191744636,-5.96361633784653,-1.679120939019639,no_tremor
303,7443011,2.106,-0.0003463417681915214,-0.21354138079252705,-1.032766086084627,-1.098642891086599,-6.183532160470878,-1.6379959412176144,no_tremor
304,7443016,2.111,7.24962110521313e-07,-0.21331504477073987,-1.0338410222297432,-1.0605999077832937,-6.382368569427822,-1.5967199230011129,no_tremor
305,7443020,2.115,0.00031979673772928956,-0.2131096979447393,-1.0348277929959457,-1.0226837280870453,-6.560803663490323,-1.5560452945751133,no_tremor
306,7443035,2.13,0.0006109871296316324,-0.2129247396211298,-1.0357268872413166,-0.9855987479920777,-6.719679335388297,-1.5166200346941594,no_tremor
307,7443040,2.135,0.0008747334463515447,-0.21275939859729157,-1.0365397686668762,-0.9499405018603949,-6.85997587124872,-1.4789873737902035,no_tremor
308,7443050,2.145,0.0011117596595443752,-0.21261275909953098,-1.0372687751096596,-0.9161965931124313,-6.982786703485403,-1.4435870184209607,no_tremor
309,7443080,2.175,0.0013230388887199933,-0.21248378662478287,-1.0379170135813458,-0.884749271140869,-7.089293602389883,-1.4107578530593647,no_tremor
310,7443085,2.18,0.001509755889703327,-0.2123713533377789,-1.0384882523803887,-0.8558795519560514,-7.18074257113907,-1.3807420406326576,no_tremor
311,7443090,2.185,0.0016732699844742495,-0.21227426270051541,-1.0389868116243843,-0.8297727628603474,-7.25842068175165,-1.3536904295644612,no_tremor
312,7443095,2.19,0.0018150788493290185,-0.21219127304032995,-1.0394174535569154,-0.8065253763941451,-7.323634061101908,-1.3296691609816285,no_tremor
313,7443100,2.195,0.0019367835409784962,-0.21212111979629222,-1.039785273974321,-0.7861529852618528,-7.377687212672278,-1.308667354005942,no_tremor
314,7443104,2.199,0.002040055089307031,-0.21206253621977672,-1.0400955960911684,-0.7685992566745422,-7.421863843847536,-1.290605729500333,no_tremor
315,7443109,2.204,0.00212660292861789,-0.212014272342452,-1.0403538681206626,-0.7537456904702992,-7.457409358474978,-1.2753460143148783,no_tremor
