sample,t_ms,t_s,ax,ay,az,gx,gy,gz,tremor
0,7614743,0.0,-0.3674293834661871,-0.261826487376534,-0.9548029483042682,-3.491177984339486,20.894626517626186,-3.812381687357892,tremor
1,7614748,0.005,-0.3660701408188027,-0.261831424995706,-0.9556837107103225,-3.3717386725373486,21.21389799711926,-3.9485364158647296,tremor
2,7614753,0.01,-0.3641746611470584,-0.2618353171327402,-0.9569146520242491,-3.218679372214682,21.333943128938067,-4.072633432484709,tremor
3,7614762,0.019,-0.36169143098574785,-0.2618368497082908,-0.9585294943668147,-3.0302852364023996,21.23880149943401,-4.183844512568834,tremor
4,7614777,0.034,-0.3586669664571786,-0.2618349029325364,-0.960497088864276,-2.804990648233372,20.913141089286107,-4.281425683808684,tremor
5,7614782,0.039,-0.3552031981496725,-0.2618290785181246,-0.9627487839383789,-2.5414001153902226,20.342414026378584,-4.364727349935977,tremor
6,7614786,0.043,-0.3514159895606712,-0.2618198599036802,-0.9652055036029819,-2.238308654412779,19.513013265775363,-4.433204103968625,tremor
7,7614811,0.068,-0.3474121810881937,-0.26180854337355836,-0.9677929497149909,-1.8947214288448877,18.412428733663877,-4.486424127093062,tremor
8,7614816,0.073,-0.3432818393863525,-0.26179709927684314,-0.97044690509361,-1.5098724020729724,17.02940137754465,-4.5240780584601605,tremor
9,7614826,0.083,-0.3390986360337061,-0.2617880445830331,-0.9731131819018355,-1.0832417642732732,15.354073485414151,-4.545987212444337,tremor
10,7614840,0.097,-0.33492321994404745,-0.26178434889092644,-0.9757455605796754,-0.6145718940350747,13.378133581847328,-4.5521110153565,tremor
11,7614859,0.116,-0.33080696521574476,-0.2617893700627308,-0.9783034438364215,-0.10388162029500597,11.094954184747872,-4.542553533865862,tremor
12,7614864,0.121,-0.32679509958702513,-0.26180680928731986,-0.9807498916703431,0.4485214397798169,8.499720711983896,-4.5175689710992515,tremor
13,7614869,0.126,-0.32292900595982177,-0.26184067653789367,-0.9830501847017014,1.0420306766710123,5.589549855280547,-4.477566011712634,tremor
14,7614874,0.131,-0.31924779037811657,-0.2618952601987136,-0.9851708619238299,1.6757326102406238,2.3635957813874198,-4.423110903163702,tremor
15,7614878,0.135,-0.31578928522207067,-0.26197509707833483,-0.9870791264551851,2.3484015106127654,-1.1768574277939918,-4.354929166721065,tremor
16,7614883,0.14,-0.31259064568835554,-0.2620849407204864,-0.9887425178290316,3.058496672209211,-5.028318625094467,-4.273905838783588,tremor
17,7614888,0.145,-0.3096886632140629,-0.26222972699058755,-0.9901287706574745,3.8041624746729035,-9.185029198698663,-4.1810841516634225,tremor
18,7614893,0.15,-0.30711988508567156,-0.2624145365572831,-0.9912058013106001,4.5832313422144955,-13.638920805619872,-4.07766257352744,tremor
19,7614903,0.16,-0.3049206020054627,-0.26264455426560274,-0.9919417817917342,5.393229687970067,-18.379592530789417,-3.9649901388328948,tremor
20,7614937,0.194,-0.303126745450596,-0.26292502561836023,-0.9923052727522221,6.231386902291673,-23.39430866562187,-3.8445600115464083,tremor
21,7614942,0.199,-0.30177372289285903,-0.2632612107106119,-0.992265396394072,7.094647415287992,-28.668018193908292,-3.7180012325093434,tremor
22,7614947,0.204,-0.30089620971505976,-0.2636583360366968,-0.9917920358929776,7.979685838097667,-34.183396961373816,-3.5870686101235236,tremor
23,7614952,0.209,-0.30052791058536166,-0.26412154463215476,-0.9908560518277244,8.882925168067896,-39.92091338555087,-3.4536307223212477,tremor
24,7614957,0.214,-0.30070129911038285,-0.26465584503521267,-0.9894295085927544,9.800558030933656,-45.85891842600232,-3.319656010425852,tremor
25,7614962,0.219,-0.3014473420691042,-0.26526605956055965,-0.9874859053659432,10.728570924981693,-51.97376036898572,-3.1871969647386473,tremor
26,7614967,0.224,-0.30279521295461825,-0.2659567723753816,-0.9850004072170949,11.662771423149787,-58.239924774284056,-3.0583724291648715,tremor
27,7614972,0.229,-0.30477199860545284,-0.26673227785699916,-0.981950072581237,12.598818275157742,-64.63019967843806,-2.935348087194974,tremor
28,7614977,0.234,-0.3074024021882386,-0.2675965296959215,-0.9783140737205331,13.53225433080717,-71.11586584589479,-2.8203152312277027,tremor
29,7614981,0.238,-0.310708445565999,-0.26855309119096105,-0.9740739070490589,14.458542176291385,-77.66691150903324,-2.71546795879606,tremor
30,7614986,0.243,-0.31470917406393917,-0.269605087167856,-0.969213590354761,15.373102337108469,-84.25227064303668,-2.6229789815443825,tremor
31,7614991,0.248,-0.3194203667678876,-0.270755157943295,-0.9637198440617186,16.27135385414094,-90.84008338612911,-2.54497427568353,tremor
32,7614996,0.253,-0.3248542557162011,-0.272005415755358,-0.9575822537596594,17.148756984993817,-97.39797674372286,-2.4835068461889054,tremor
33,7615001,0.258,-0.33101925763875417,-0.2733574040907948,-0.9507934113046984,18.000857722886558,-103.89336321093121,-2.4405299210465348,tremor
34,7615006,0.263,-0.33791972222460076,-0.2748120603590901,-0.9433490318784087,18.823333762045188,-110.29375441825705,-2.417869935871444,tremor
35,7615010,0.267,-0.3455557012322619,-0.2763696823911735,-0.9352480444911764,19.612041472524854,-116.56708636108426,-2.4171997123610316,tremor
36,7615015,0.272,-0.35392274306378513,-0.278029899273969,-0.9264926535379044,20.36306337932301,-122.6820522309175,-2.440012275099197,tremor
37,7615020,0.277,-0.3630117176777376,-0.27979164706690823,-0.9170883691661128,21.07275557163146,-128.60843834383454,-2.4875957885202107,tremor
38,7615025,0.282,-0.3728086768909781,-0.28165314997868846,-0.907044004404985,21.73779439985978,-134.3174581773589,-2.561010127222691,tremor
39,7615030,0.287,-0.3832947551897712,-0.2836119076074174,-0.8963716372365512,22.355221752947028,-139.78207909651886,-2.6610656157546564,tremor
40,7615056,0.313,-0.39444611611286917,-0.28566468886040597,-0.8850865360766593,22.922488149851038,-144.97733598905143,-2.7883044853314445,tremor
41,7615061,0.318,-0.4062339490533489,-0.287807533166557,-0.8732070474878193,23.437492833220443,-149.88062576988034,-2.9429855894455224,tremor
42,7615066,0.323,-0.418624520912588,-0.2900357595685247,-0.8607544453905083,23.898620031269857,-154.47197662480198,-3.1250728884958465,tremor
43,7615071,0.328,-0.431579286381116,-0.2923439842257418,-0.8477527416026931,24.30477056888752,-158.73428603454602,-3.3342281442055226,tremor
44,7615076,0.333,-0.44505505968002246,-0.29472614676539843,-0.8342284582427179,24.655388066408012,-162.65352210193396,-3.5698081536642543,tremor
45,7615081,0.338,-0.4590042493672847,-0.29717554578230354,-0.8202103633828156,24.95047905636809,-166.21888345927567,-3.830866708567327,tremor
46,7615100,0.357,-0.47337515632336286,-0.2996848836105444,-0.8057291723211101,25.190626461006282,-169.4229139766149,-4.116161302169815,tremor
47,7615105,0.362,-0.48811233332968296,-0.3022463202735102,-0.7908172179110315,25.376995998116556,-172.26156955984953,-4.424164437849459,tremor
48,7615114,0.371,-0.5031570028120895,-0.30485153627006595,-0.7755080944874233,25.51133522125102,-174.73423549280346,-4.753079231499499,tremor
49,7615119,0.376,-0.5184475274354282,-0.3074918035820061,-0.7598362809696598,25.595965056361965,-176.84369401991674,-5.100858859773164,tremor
50,7615124,0.381,-0.5339199264253627,-0.31015806400308105,-0.7438367496000924,25.63376386904388,-178.59604314912463,-5.465229299898073,tremor
51,7615134,0.391,-0.5495084288841947,-0.3128410136072844,-0.7275445674001121,25.628144273998217,-180.00056891741733,-5.843714738440564,tremor
52,7615139,0.396,-0.565146054064887,-0.3155311919096905,-0.7109944977406877,25.583023067414327,-181.0695745351851,-6.233664992489847,tremor
53,7615143,0.4,-0.5807652076487801,-0.318219074043805,-0.6942206094124862,25.502784813066146,-181.8181708413544,-6.63228428276557,tremor
54,7615148,0.405,-0.5962982825902611,-0.32089516410273505,-0.6772559002527598,25.392239737360768,-182.26403329490063,-7.036660722832268,tremor
55,7615153,0.41,-0.6116782530765309,-0.32355008768392923,-0.6601319417691801,25.256576682796073,-182.42713125400445,-7.443795942035311,tremor
56,7615185,0.442,-0.6268392506077822,-0.3261746816511105,-0.6428785503364944,25.101311930462607,-182.32943553913208,-7.850634340449921,tremor
57,7615195,0.452,-0.6417171121225981,-0.3287600791906705,-0.6255234894864871,24.932234727194245,-181.99461023923803,-8.254091578429007,tremor
58,7615200,0.457,-0.6562498914738274,-0.33129778840068896,-0.608092206636458,24.75535033390147,-181.44769437874103,-8.651082024214794,tremor
59,7615205,0.462,-0.6703783274034916,-0.33377976291373773,-0.5906076063945689,24.5768213376305,-180.7147783984636,-9.03854500646259,tremor
60,7615210,0.467,-0.6840462634219773,-0.3361984634120967,-0.5730898614410137,24.402907838918576,-179.82267947561078,-9.41346982424243,tremor
61,7615214,0.471,-0.6972010175203327,-0.3385469093190284,-0.5555562610019653,24.2399069539855,-178.7986186705817,-9.772919537943071,tremor
62,7615224,0.481,-0.7097937022143894,-0.3408187204024782,-0.5380210961713041,24.09409188622046,-177.66990191557915,-10.11405359400662,tremor
63,7615238,0.495,-0.7217794977995534,-0.34300814846716116,-0.5204955808278208,23.971650652520193,-176.4636060761166,-10.43414932692537,tremor
64,7615243,0.5,-0.7331178836544131,-0.34511009969863626,-0.5029878066598797,23.87862442675305,-175.2062708076205,-10.730622339017984,tremor
65,7615248,0.505,-0.7437728337305347,-0.3471201485162348,-0.4855027308500405,23.82084541693237,-173.92359677339851,-11.001045689893262,tremor
66,7615253,0.51,-0.7537129827813263,-0.3490345439449493,-0.4680421952743913,23.80387424989652,-172.64015103873876,-11.243167744526625,tremor
67,7615258,0.515,-0.7629117692888288,-0.3508502094943655,-0.4506049765926534,23.832937000997806,-171.3790810887165,-11.454928444674552,tremor
68,7615267,0.524,-0.7713475594784384,-0.3525647373253765,-0.4331868672751289,23.91286225734529,-170.16183983741186,-11.63447369418831,tremor
69,7615272,0.529,-0.7790037544383238,-0.35417637710830124,-0.41578078834178617,24.048018915052392,-169.0079250738813,-11.780167493827587,tremor
70,7615277,0.534,-0.7858688794148301,-0.3556840194599165,-0.3983769352729885,24.24225576329375,-167.93463790255365,-11.890601435229918,tremor
71,7615305,0.562,-0.7919366510879317,-0.35708717323203903,-0.3809629590701939,24.498844283263722,-166.95686576763958,-11.964601176004491,tremor
72,7615310,0.567,-0.7972060153386094,-0.3583859352703407,-0.36352418465659153,24.820426451412565,-166.0868964628405,-12.001229572611944,tremor
73,7615315,0.572,-0.8016811451261844,-0.35958095067006735,-0.3460438685451892,25.208969603413173,-165.33426991861333,-11.99978624645445,tremor
74,7615320,0.577,-0.805371386158081,-0.3606733611702111,-0.32850349680565893,25.6657304857779,-164.7056743079057,-11.959803510229307,tremor
75,7615330,0.587,-0.8082911375727135,-0.36166473929217735,-0.31088312277243707,26.191230444346882,-164.2048920187581,-11.881038799376133,tremor
76,7615334,0.591,-0.81045965609226,-0.3625570062187434,-0.2931617417837398,26.785243311330444,-163.83279942673767,-11.76346403031764,tremor
77,7615339,0.596,-0.8119007749112322,-0.36335233221033714,-0.2753176978239569,27.44679703403921,-163.58742241193121,-11.607252590849951,tremor
78,7615344,0.601,-0.8126425326355302,-0.36405301948980734,-0.25732911462404523,28.174189499028238,-163.46404744197298,-11.412764872587196,tremor
79,7615349,0.606,-0.8127167124665682,-0.3646613688784629,-0.23917434187317616,28.965018390179644,-163.45538596443436,-11.180533313426919,tremor
80,7615354,0.611,-0.8121582970923704,-0.3651795328955448,-0.22083240591704925,29.816224331171114,-163.55178796245443,-10.911247824747297,tremor
81,7615358,0.615,-0.8110048499386747,-0.3656093593888757,-0.20228345374759066,30.72414605312658,-163.74149893490315,-10.605742283163746,tremor
82,7615363,0.62,-0.8092958381097157,-0.3659522309047553,-0.18350917920687257,31.68458592535819,-164.0109533235872,-10.264982532960547,tremor
83,7615368,0.625,-0.8070719161511292,-0.3662089058216797,-0.16449322104952424,32.692883894534496,-164.34509653441225,-9.890056119883448,tremor
84,7615373,0.63,-0.8043741924414443,-0.36637936770024143,-0.14522152371075897,33.74399768747424,-164.72772717248182,-9.482163787629933,tremor
85,7615378,0.635,-0.8012435014105611,-0.3664626893173631,-0.12568265317385263,34.832587037583416,-165.14185091353252,-9.042612629050431,tremor
86,7615383,0.64,-0.7977197048335299,-0.36645691746887077,-0.10586806208123617,35.95309969095439,-165.57003754098577,-8.572810697743689,tremor
87,7615387,0.644,-0.7938410441850231,-0.366358983881683,-0.08577230005358162,37.09985703101599,-165.99477304738323,-8.074262845991832,tremor
88,7615392,0.649,-0.7896435635757355,-0.36616464654022923,-0.06539316695155485,38.267137319148105,-166.39879927217748,-7.548567550364685,tremor
89,7615397,0.654,-0.7851606193093457,-0.36586846448240706,-0.04473180843758265,39.44925476415287,-166.76543426533155,-6.997414505656691,tremor
90,7615402,0.659,-0.7804224878378493,-0.3654638077482327,-0.023792754605517122,40.64063288623469,-167.0788673827617,-6.422582802551029,tremor
91,7615434,0.691,-0.7754560791403167,-0.36494290275867,-0.0025839036202787193,41.83587091588242,-167.32442400334375,-5.825939547102798,tremor
92,7615438,0.695,-0.7702847576449002,-0.3642969120483013,0.01888354674423113,43.029802251311004,-167.48879567826665,-5.209438820684324,tremor
93,7615443,0.7,-0.7649282681751061,-0.36351604606078286,0.04059521604221475,44.21754427213904,-167.56023244777887,-4.575120901704101,tremor
94,7615448,0.705,-0.7594027604952682,-0.36258970372821486,0.06253370239284169,45.394539050591966,-167.5286949567608,-3.925111658537161,tremor
95,7615453,0.71,-0.7537209032124099,-0.36150663785694354,0.0846787834620194,46.55658470069159,-167.38596485868936,-3.2616219722191797,tremor
96,7615457,0.714,-0.7478920761391338,-0.3602551409398606,0.10700765238674873,47.699857261448194,-167.1257128339581,-2.5869469724643626,tremor
97,7615462,0.719,-0.741922629541943,-0.35882324686431677,0.12949518367549193,48.820923132815764,-166.7435243905466,-1.9034647965155493,tremor
98,7615467,0.724,-0.7358161986893761,-0.3571989440212616,0.15211422399182833,49.916742184559666,-166.23688448047932,-1.2136345280501726,tremor
99,7615477,0.734,-0.7295740624988575,-0.3553703954874103,0.17483590261103818,50.984661747996164,-165.60512285558804,-0.519992954240384,tremor
100,7615486,0.743,-0.723195535648797,-0.35332616220222124,0.19762995621812673,52.02240179038241,-164.8493229869374,0.1748502029981321,tremor
101,7615496,0.753,-0.7166783841146505,-0.35105542535638773,0.2204650625974255,53.02803167697018,-163.97219825438,0.8682188729880342,tremor
102,7615501,0.758,-0.7100192545877357,-0.34854820451133,0.24330917767506693,53.99993906053793,-162.97793992809594,1.5573792533882078,tremor
103,7615505,0.762,-0.7032141085743332,-0.34579556824407476,0.26612987035986707,54.93679160532382,-161.87204214910193,2.2395505845593116,tremor
104,7615510,0.767,-0.6962586521417842,-0.3427898343307458,0.2888946497303025,55.83749244187413,-160.66110960869648,2.9119181212354777,tremor
105,7615515,0.772,-0.6891487523310598,-0.3395247566321745,0.3115712793637721,56.70113045276962,-159.35265389227763,3.571648258042951,tremor
106,7615520,0.777,-0.6818808312849386,-0.33599569593239825,0.33412807400701283,57.5269267060048,-157.95488448944258,4.2159056780215325,tremor
107,7615525,0.782,-0.6744522292542061,-0.33219977202369044,0.3565341743411965,58.31417857521421,-156.47650029106933,4.841872300298399,tremor
108,7615551,0.808,-0.6668615279468351,-0.32813599435660856,0.37875979630107276,59.06220328350273,-154.92648699423458,5.446767713991513,tremor
109,7615556,0.813,-0.6591088262864486,-0.3238053686164835,0.4007764522653225,59.77028273345672,-153.3139251994568,6.027870715733739,tremor
110,7615560,0.817,-0.6511959616728917,-0.31921097670388227,0.42255714243487125,60.4376114938374,-151.64781309215113,6.5825415299963215,tremor
111,7615565,0.822,-0.6431266714138858,-0.3143580278581521,0.4440765158175932,61.063249674267816,-149.93690646270133,7.108244288279253,tremor
112,7615570,0.827,-0.6349066911719194,-0.30925387913139635,0.46531100136236014,61.646082135288246,-148.1895775171571,7.602569370514308,tremor
113,7615580,0.837,-0.6265437899486924,-0.3039080241096444,0.48623891082475634,62.184785087611395,-146.41369260976552,8.063255260327033,tremor
114,7615585,0.842,-0.6180477440738432,-0.29833204964828697,0.5068405157899771,62.677800681868824,-144.61650785418703,8.48820962539382,tremor
115,7615589,0.846,-0.6094302555590437,-0.29253956136415316,0.5270981018328843,63.123319730259595,-142.8045806875976,8.87552939581968,tremor
116,7615594,0.851,-0.6007048226874584,-0.2865460796169248,0.546996002996754,63.51927228467835,-140.98369498236264,9.223519666285583,tremor
117,7615599,0.856,-0.5918865725301671,-0.2803689086282132,0.5665206195913309,63.86332546514448,-139.15879727203063,9.530711278597025,tremor
118,7615624,0.881,-0.5829920659926136,-0.27402698214657284,0.5856604217589727,64.1528877129797,-137.3339420426556,9.795876939523815,tremor
119,7615629,0.886,-0.5740390858768494,-0.2675406895974732,0.6044059403966789,64.38511854370097,-135.51224473054833,10.018045692591771,tremor
120,7615634,0.891,-0.5650464173051094,-0.26093168688731805,0.6227497459772817,64.55694289529006,-133.6958419267497,10.196515502462628,tremor
121,7615644,0.901,-0.5560336278475517,-0.25422269590359026,0.6406864147705186,64.66506929982717,-131.88585916830343,10.330863646860378,tremor
122,7615648,0.905,-0.547020852153314,-0.24743729626850483,0.6582124811193599,64.7060113246477,-130.08238745498232,10.420954563212357,tremor
123,7615685,0.942,-0.5380285832349364,-0.24059971215333462,0.6753263739168711,64.67611198982485,-128.28447014960273,10.466944776277916,tremor
124,7615690,0.947,-0.5290774702760359,-0.23373459612451425,0.6920283353121471,64.5715711188194,-126.4901020988226,10.469284544864902,tremor
125,7615695,0.952,-0.5201881213625678,-0.22686681129367356,0.7083203199492097,64.38847576011153,-124.69624255839719,10.428715919934152,tremor
126,7615700,0.957,-0.5113809092021584,-0.22002121268345762,0.7242058736664546,64.1228338764645,-122.89884279015408,10.346267015825,tremor
127,7615710,0.967,-0.5026757787807721,-0.2132224288053573,0.7396899914707838,63.770611416540085,-121.09288812233787,10.223242463145782,tremor
128,7615715,0.972,-0.4940920577850828,-0.20649464494055175,0.7547789556291447,63.32777269318049,-119.27245307799589,10.061210215414125,tremor
129,7615720,0.977,-0.48564827300921765,-0.19986139037356426,0.7694801557562674,62.7903237528165,-117.4307671634509,9.861985082537222,tremor
130,7615730,0.987,-0.47736197829246424,-0.19334533266867845,0.7838018936982728,62.15435818301734,-115.5602882748195,9.627609521034524,tremor
131,7615734,0.991,-0.46924960129969917,-0.18696808283837507,0.797753176724651,61.41610460786179,-113.65278050380584,9.360332294607572,tremor
132,7615739,0.996,-0.46132631731314505,-0.18075001580183717,0.8113435029903185,60.571974993919056,-111.69939337971631,9.062585620297897,tremor
133,7615744,1.001,-0.4536059579709638,-0.17471011076576862,0.8245826433966995,59.61861285229928,-109.69074018170909,8.736961345934878,tremor
134,7615754,1.011,-0.4461009615442879,-0.16886581600703912,0.8374804238830813,58.5529404728003,-107.61697376638541,8.386186589961953,tremor
135,7615759,1.016,-0.438822369040254,-0.16323294197401358,0.8500465118667833,57.372204442801106,-105.46785924235459,8.013099147979712,tremor
136,7615764,1.021,-0.43177986746437946,-0.1578255856820804,0.8622902100983338,56.07401885463995,-103.23284365880852,7.620622860388428,tremor
137,7615769,1.026,-0.4249818783767026,-0.15265608813202466,0.8742202606920564,54.656405759097126,-100.90112356377833,7.211743058873603,tremor
138,7615774,1.031,-0.4184356868394278,-0.147735025029983,0.8858446616113134,53.117832553727446,-98.46171177977483,6.78948216840427,tremor
139,7615800,1.057,-0.41214760331099654,-0.1430712295604021,0.8971704974854914,51.45724608928928,-95.90350503748313,6.356875528636923,tremor
140,7615805,1.062,-0.40612314922365583,-0.13867184450261985,0.9082037863351423,49.674103336951596,-93.21535422198383,5.91694750460877,tremor
141,7615810,1.067,-0.4003672560287142,-0.13454239974035362,0.9189493435699707,47.76839849858992,-90.38613893077945,5.4726879728058275,tremor
142,7615815,1.072,-0.3948844674480427,-0.1306869103275212,0.9294106644561352,45.740686482146955,-87.40484781875955,5.027029286642197,tremor
143,7615819,1.076,-0.3896791354488807,-0.1271079898161627,0.9395898260618765,43.59210271530716,-84.26066583217987,4.582823838281265,tremor
144,7615824,1.081,-0.3847556018579792,-0.12380697350049061,0.9494874094290775,41.32437933067726,-80.94306896600803,4.142822340334057,tremor
145,7615829,1.086,-0.38011835928892135,-0.120784046489823,0.9591024423541367,38.9398578121593,-77.44192668050097,3.709652955009333,tremor
146,7615834,1.091,-0.37577218693022535,-0.11803837198081099,0.9684323626945622,36.44149823268631,-73.74761162778844,3.285801403100826,tremor
147,7615844,1.101,-0.371722258550381,-0.1155682156700148,0.9774730015726725,33.83288522887656,-69.85111588954345,2.873592190213894,tremor
148,7615849,1.106,-0.3679742217044282,-0.11337106288003024,0.9862185852708207,31.11823084337427,-65.74417252558875,2.4751710895436534,tremor
149,7615854,1.111,-0.3645342485094939,-0.11144372564114093,0.9946617540708399,28.302374320346676,-61.41938089283902,2.092489016493621,tremor
150,7615859,1.116,-0.36140905945699525,-0.10978243766695778,1.0027935958677638,25.390778869338632,-56.870333925879315,1.7272874202341089,tremor
151,7615869,1.126,-0.3586059225278661,-0.10838293588323528,1.0106036921665231,22.38952532927063,-52.0917453826599,1.381085302656608,tremor
152,7615874,1.131,-0.35613263037174503,-0.10724052790568095,1.018080174103782,19.305302584303977,-47.07957495429272,1.0551679570575423,tremor
153,7615879,1.136,-0.35399745851497955,-0.10635014559387675,1.025209786434646,16.145394523651348,-41.831149115302416,0.7505774959214686,tremor
154,7615883,1.14,-0.35220910750075013,-0.10570638549824699,1.0319779579542454,12.917663310438884,-36.3452756419398,0.46810520764904434,tremor
155,7615893,1.15,-0.35077663157267785,-0.10530353761981015,1.0383688775252626,9.6305287335675,-30.62234983277839,0.20828574744720063,tremor
156,7615898,1.155,-0.34970935603995656,-0.10513560437174543,1.044365575667715,6.292943455324474,-24.66445059845501,-0.028606866746536754,tremor
157,7615924,1.181,-0.34901678487780957,-0.105196311926595,1.0499500124294998,2.9143640265568265,-18.475424711750893,-0.2425615098724183,tremor
158,7615929,1.186,-0.34870849952071586,-0.10547911622718929,1.0551031728768616,-0.4952823887454144,-12.06095759495519,-0.4338305290026835,tremor
159,7615933,1.19,-0.34879404932367597,-0.10597720583825851,1.0598051719107158,-3.925635566410133,-5.428629052542901,-0.6029287198925392,tremor
160,7615939,1.196,-0.3492828339280534,-0.10668350356436736,1.0640353701485175,-7.365943978372119,1.4120476600061758,-0.7506307630849828,tremor
161,7615943,1.2,-0.350183977852862,-0.10759066842907972,1.0677725022973767,-10.805110634869644,8.449605077684199,-0.8779671613920665,tremor
162,7615948,1.205,-0.35150619802583777,-0.10869109926804407,1.0709948188458254,-14.231742870220934,15.670620743820145,-0.9862186961109255,tremor
163,7615953,1.21,-0.3532576655735398,-0.10997694088121622,1.0736802411379016,-17.634205918323953,23.059738041535848,-1.0769093949611532,tremor
164,7615958,1.215,-0.3554458638774312,-0.11144009343938,1.075806529092321,-21.00068012050487,30.599710181630236,-1.151797983332211,tremor
165,7615963,1.22,-0.3580774455585493,-0.11307222565242366,1.0773514600944933,-24.319221608523566,38.27146872335691,-1.2128677746449505,tremor
166,7615968,1.225,-0.361158091589245,-0.11486479207485363,1.0782930169877138,-27.57782630568348,46.05421776414029,-1.2623149480349558,tremor
167,7615972,1.229,-0.3646923760833006,-0.11680905483488496,1.0786095826588156,-30.764497085581514,53.92555462029438,-1.3025351634121194,tremor
168,7615977,1.234,-0.36868364044479063,-0.1188961100118233,1.078280138465043,-33.86731391714513,61.86161743760123,-1.3361084741697788,tremor
169,7615982,1.239,-0.37313388044323853,-0.12111691883681307,1.077284463674974,-36.874506801494334,69.83725972725202,-1.3657825139053668,tremor
170,7615987,1.244,-0.3780436494315869,-0.12346234383987509,1.075603333172276,-39.774531266762324,77.82625133090932,-1.3944539537127856,tremor
171,7615992,1.249,-0.38341198035719226,-0.12592318999889637,1.0732187108586133,-42.55614613025375,85.80150478966273,-1.4251482510697804,tremor
172,7615997,1.254,-0.3892363284737481,-0.12849025085381316,1.0701139364434231,-45.20849316552545,93.73532553492534,-1.4609977414884288,tremor
173,7616002,1.259,-0.39551253579545076,-0.13115435942486395,1.0662739035730915,-47.72117822898979,101.59968374344041,-1.5052181614357514,tremor
174,7616006,1.263,-0.40223481740223915,-0.13390644361493934,1.061685227485551,-50.08435331040602,109.36650511077703,-1.5610837363794774,tremor
175,7616011,1.268,-0.4093957687647541,-0.13673758558516266,1.0563364005456006,-52.28879887815129,117.00797720286354,-1.6319010207030469,tremor
176,7616021,1.278,-0.41698639236258156,-0.13963908437718742,1.0502179341030589,-54.32600579766887,124.49686744736078,-1.7209817346684646,tremor
177,7616047,1.304,-0.42499614106620953,-0.14260252082721603,1.0433224851170735,-56.18825601407195,131.80684823527744,-1.831614904161162,tremor
178,7616052,1.309,-0.43341297508753995,-0.14561982359330494,1.035644965918602,-57.868701110973596,138.91282404114924,-1.9670386666106534,tremor
179,7616056,1.313,-0.4422234288234362,-0.14868333492433686,1.0271826353705023,-59.36143778849429,145.79125497738826,-2.130412154738935,tremor
180,7616061,1.318,-0.4514126836605413,-0.15178587466348953,1.017935169576941,-60.661579240798396,152.42047081787558,-2.3247879026226035,tremor
181,7616066,1.323,-0.4609646427841052,-0.1549208009172916,1.0079047102380234,-61.76532134958236,158.78096927638646,-2.5530852333458487,tremor
182,7616071,1.328,-0.4708620042020069,-0.1580820658281894,0.9970958887731273,-62.670002537073756,164.8556921937702,-2.8180650854276075,tremor
183,7616085,1.342,-0.48108632849544736,-0.16126426494153656,0.9855158244584974,-63.37415603988367,170.63027325362293,-3.1223067183614863,tremor
184,7616090,1.347,-0.4916180981840606,-0.16446267873130957,0.9731740950391328,-63.877553284963135,176.09325091621682,-3.4681867062330003,tremor
185,7616095,1.352,-0.5024367660166661,-0.16767330492509877,0.9600826785745225,-64.18123699416378,181.23624048344018,-3.8578605798856103,tremor
186,7616100,1.357,-0.5135207899699483,-0.17089288034386418,0.9462558656526833,-64.28754264178944,186.0540596542842,-4.293247408973839,tremor
187,7616105,1.362,-0.5248476532733792,-0.17411889105535616,0.9317101415467839,-64.20010695847863,190.54480264462646,-4.776017525484837,tremor
188,7616109,1.366,-0.536393868397974,-0.1773495697523014,0.9164640383847479,-63.92386231784126,194.70985891196196,-5.307583486299502,tremor
189,7616114,1.371,-0.5481349646587508,-0.18058387943179907,0.9005379579497403,-63.465016053455365,198.55387369519468,-5.889094263964122,tremor
190,7616119,1.376,-0.5600454598855051,-0.18382148269254964,0.8839539663273726,-62.8310140270214,202.0846489075503,-6.521432549850344,tremor
191,7616124,1.381,-0.5720988175030054,-0.1870626962966549,0.8667355622655983,-62.030488099560706,205.31298438152044,-7.205214954920493,tremor
192,7616129,1.386,-0.5842673913098528,-0.1903084310700151,0.8489074218190673,-61.07318754195632,208.25246104045866,-7.940794798147448,tremor
193,7616133,1.39,-0.5965223612269662,-0.19356011773861898,0.8304951226149233,-59.96989485147359,210.91916923974807,-8.728267076957549,tremor
194,7616138,1.395,-0.6088336642671583,-0.19681961990678423,0.8115248519038272,-58.73232690504453,213.33138724661356,-9.567475115835414,tremor
195,7616143,1.4,-0.6211699259146837,-0.20008913605673465,0.7920231034454616,-57.37302286019713,215.509216559049,-10.458018292362324,tremor
196,7616171,1.428,-0.6334983979450267,-0.20337109315269775,0.7720163692065661,-55.90522068628265,217.4741824233863,-11.399260155760183,tremor
197,7616176,1.433,-0.645784909382062,-0.2066680351107106,0.7515308327733992,-54.34272463575485,219.24880936562917,-12.39033620008417,tremor
198,7616181,1.438,-0.6579938376582906,-0.20998250995595197,0.7305920721869117,-52.69976629163076,220.85618258496058,-13.430160555706932,tremor
199,7616185,1.442,-0.6700881069586015,-0.2133169598126714,0.7092247804201641,-50.990861991255635,222.31950642037725,-14.517430936857481,tremor
200,7616190,1.447,-0.6820292200729504,-0.21667361785625888,0.6874525117606598,-49.23066940245882,223.66167068932916,-15.65063133021858,tremor
201,7616195,1.452,-0.6937773288562267,-0.2200544159739768,0.6652974618588899,-47.43384584844908,224.90483465032293,-16.828032111043814,tremor
202,7616200,1.457,-0.7052913467056582,-0.22346090618055012,0.6427802881993042,-45.61491070157244,226.07003692698237,-18.047687503550396,tremor
203,7616210,1.467,-0.7165291044805537,-0.2268941979076865,0.6199199763457778,-43.78811383614067,227.17683816813778,-19.307430541024345,tremor
204,7616219,1.476,-0.7274475491728293,-0.2303549122297456,0.5967337556273423,-41.96731176548188,228.24300163084652,-20.60486591123356,tremor
205,7616224,1.481,-0.7380029825557206,-0.23384315299926067,0.5732370660796581,-40.16585270056604,229.2842153392598,-21.93736127515773,tremor
206,7616229,1.486,-0.7481513351660032,-0.237358493849269,0.5494435765721337,-38.39647137762055,230.31385806631778,-23.302037801022287,tremor
207,7616234,1.491,-0.7578484694742659,-0.24089997917337244,0.5253652522686392,-36.671194139005095,231.34281017952935,-24.69576074582048,tremor
208,7616239,1.496,-0.7670505050776555,-0.24446613659011185,0.5010124680213789,-35.00125444349757,232.37930944006132,-26.115130937548873,tremor
209,7616248,1.505,-0.7757141582450315,-0.24805499806484746,0.47639416308121657,-33.39701875035657,233.42885117420263,-27.55647796700801,tremor
210,7616263,1.52,-0.7837970881390868,-0.2516641267974797,0.45151803168278776,-31.867922584498377,234.49413185833555,-29.015855800306824,tremor
211,7616268,1.525,-0.7912582425087469,-0.2552906471757058,0.42639074365202867,-30.42241657028486,235.57503506857554,-30.489041395338024,tremor
212,7616296,1.553,-0.7980581965770168,-0.25893127553009493,0.4010181891685128,-29.067922338688696,236.66865891042053,-31.97153677961418,tremor
213,7616301,1.558,-0.8041594802157948,-0.2625823500850683,0.37540574211307043,-27.81079845664945,237.7693843572133,-33.4585749477674,tremor
214,7616306,1.563,-0.8095268901743082,-0.2662398593085019,0.34955853688003186,-26.656316828504167,238.8689841720212,-34.945129862490155,tremor
215,7616320,1.577,-0.8141277858418551,-0.26989946869113624,0.3234817539182819,-25.60865026103839,239.95677199162662,-36.425930765829705,tremor
216,7616330,1.587,-0.8179323684263566,-0.2735565466792914,0.297180909405519,-24.670871963531415,241.0197905526841,-37.895480904919836,tremor
217,7616339,1.596,-0.8209139442076938,-0.27720619091559223,0.27066214429692026,-23.84496763068928,242.04303700066365,-39.34808065108594,tremor
218,7616344,1.601,-0.8230491725007004,-0.2808432560462611,0.2439325076035076,-23.131860441895345,243.00972195120022,-40.777854870201,tremor
219,7616349,1.606,-0.8243182981392062,-0.28446238412293484,0.21700022831608626,-22.531448846425622,243.90155769366325,-42.17878430968077,tremor
220,7616354,1.611,-0.824705366868707,-0.28805803811050557,0.18987497008570323,-22.04265645212186,244.6990698224653,-43.544740706310826,tremor
221,7616359,1.616,-0.8241984203509488,-0.29162453830318186,0.1625680627501146,-21.663492765374546,245.38192578992727,-44.86952527126567,tremor
222,7616364,1.621,-0.822789665904566,-0.2951561006639785,0.13509270513382138,-21.391123011399774,245.9292734661804,-46.1469101533424,tremor
223,7616373,1.63,-0.8204756149370308,-0.2986468753586357,0.10746413424563994,-21.221944856848427,246.32008277213313,-47.37068241166098,tremor
224,7616378,1.635,-0.8172571834938874,-0.3020909831732382,0.07969975698596884,-21.15166961676701,246.53348379623029,-48.53468995738381,tremor
225,7616387,1.644,-0.8131397486358216,-0.3054825471979055,0.051819241635437996,-21.17540550134724,246.54909548804713,-49.632888877653265,tremor
226,7616392,1.649,-0.8081331555754206,-0.3088157172197741,0.023844567568579163,-21.287740671265027,246.34734000222934,-50.65939156146494,tremor
227,7616420,1.677,-0.8022516726918055,-0.31208468475228823,-0.004199967342571942,-21.48282430999741,245.90973895322202,-51.608515111535304,tremor
228,7616425,1.682,-0.7955138945421929,-0.31528368752058056,-0.03228778141230663,-21.754444517910926,245.21918905908862,-52.474829615278345,tremor
229,7616430,1.687,-0.787942596397537,-0.3184070034036853,-0.06039008520435128,-22.096102467078403,244.26021565492073,-53.25320590253175,tremor
230,7616435,1.692,-0.7795645470127894,-0.32144893507835753,-0.088475997946023,-22.501082795842382,243.01920311708295,-53.93886239141978,tremor
231,7616439,1.696,-0.7704102886602235,-0.3244037876673097,-0.11651270294830876,-22.962520578919882,241.48460129249395,-54.52741051947646,tremor
232,7616444,1.701,-0.7605138945228683,-0.32726584240057466,-0.1444656402478105,-23.473465364778978,239.647106710807,-55.01489812313926,tremor
233,7616449,1.706,-0.7499127133198109,-0.3300293296074307,-0.17229873408675744,-24.026942756704962,237.4998168995998,-55.39785001909729,tremor
234,7616454,1.711,-0.7386471096954035,-0.33268840430414015,-0.19997465211997623,-24.61601386449215,235.03835570196864,-55.67330498324005,tremor
235,7616459,1.716,-0.726760206721206,-0.3352371272969849,-0.2274550924506516,-25.23383270335828,232.26096721130224,-55.83884831709687,tremor
236,7616463,1.72,-0.7142976341389702,-0.3376694541555404,-0.254701093826116,-25.873701303743914,229.16857584741228,-55.892639225639996,tremor
237,7616473,1.73,-0.7013072830387419,-0.3399792337022511,-0.2816733636430516,-26.529121968042784,225.7648102449507,-55.83343229400801,tremor
238,7616478,1.735,-0.6878390648470001,-0.34216021688179704,-0.3083326178825958,-27.193845823526047,222.0559890429502,-55.66059244490266,tremor
239,7616482,1.739,-0.6739446701218132,-0.344206076085241,-0.3346399267761472,-27.861916633130868,218.0510673710585,-55.374102895882366,tremor
240,7616487,1.744,-0.6596773210193438,-0.3461104342756629,-0.3605570599363945,-28.527708785652766,213.76154380626247,-54.974565829781575,tremor
241,7616492,1.749,-0.6450915106383497,-0.3478669026534771,-0.3860468248931882,-29.185958510444998,209.20132875641062,-54.463195739364224,tremor
242,7616497,1.754,-0.6302427228644389,-0.34946912515550704,-0.41107339342847016,-29.83178762242934,204.38657650904096,-53.84180568565446,tremor
243,7616502,1.759,-0.6151871277777913,-0.35091082782871996,-0.43560261075017015,-30.460719448626065,199.3354844556436,-53.11278698493576,tremor
244,7616507,1.764,-0.5999812499996104,-0.352185871067626,-0.45960228330444763,-31.068686966701847,194.06806416895745,-52.27908308246632,tremor
245,7616512,1.769,-0.5846816103021419,-0.35328830284768326,-0.48304244181880734,-31.65203356223536,188.60589000140754,-51.34415856096996,tremor
246,7616517,1.774,-0.5693443441157044,-0.3542124114012793,-0.505895576921634,-32.20750715794825,182.97183162969313,-50.31196435774481,tremor
247,7616545,1.802,-0.5540248039274196,-0.35495277622638527,-0.5281368453355176,-32.732248763455594,177.189777444411,-49.1869003221645,tremor
248,7616550,1.807,-0.5387771556365305,-0.35550431683271716,-0.5497442451535783,-33.223776718417795,171.28435581811092,-47.973776234640255,tremor
249,7616555,1.812,-0.5236539812888463,-0.3558623391382615,-0.5706987590768607,-33.6799680349218,165.28066101063015,-46.677772325467465,tremor
250,7616559,1.816,-0.5087059017911127,-0.35602257983869345,-0.5909844647559575,-34.099038268507,159.20398973758952,-45.30440017393892,tremor
251,7616564,1.821,-0.4939812328839312,-0.3559812493083054,-0.6105886116067523,-34.479521257355536,153.0795932773175,-43.85946464243925,tremor
252,7616569,1.826,-0.47952568585311683,-0.35573507362810014,-0.6295016637191881,-34.82024988121463,146.93244857766922,-42.349027231744415,tremor
253,7616574,1.831,-0.4653821215318514,-0.3552813362004676,-0.6477173087855177,-35.120338729778666,140.78705034504537,-40.77937096480574,tremor
254,7616579,1.836,-0.4515903625590037,-0.354617919150059,-0.665232433353701,-35.37916925449318,134.66722470923563,-39.156966644397755,tremor
255,7616584,1.841,-0.43818706503874894,-0.3537433443764663,-0.6820470651607782,-35.596377624665486,128.59596385417962,-37.48844010516158,tremor
256,7616589,1.846,-0.42520564703248565,-0.35265681375766034,-0.6981642838082646,-35.771845140088146,122.5952800449015,-35.780539908295474,tremor
257,7616593,1.85,-0.4126762679728927,-0.35135824763934564,-0.7135901015865577,-35.90569069796654,116.68607680789869,-34.040104820226325,tremor
258,7616598,1.855,-0.4006258503367219,-0.3498483204170722,-0.7283333168110757,-35.99826450510389,110.88803466924362,-32.274030385728594,tremor
259,7616603,1.86,-0.38907813292782656,-0.34812849175681787,-0.7424053425684968,-36.05014199673361,105.2195088392096,-30.489233959717374,tremor
260,7616608,1.865,-0.378053744055696,-0.3462010318357471,-0.7558200142557697,-36.06211679323641,99.69743654669045,-28.692617704550347,tremor
261,7616613,1.87,-0.3675702828526308,-0.34406903894362073,-0.7685933796998136,-36.035191510154256,94.33725233181099,-26.891029286036638,tremor
262,7616623,1.88,-0.3576423979907152,-0.34173644788695473,-0.7807434759510743,-35.97056534420191,89.15281043083068,-25.091220292338548,tremor
263,7616628,1.885,-0.348281855096697,-0.3392080278976761,-0.7922900970367048,-35.86961758887405,84.15631433882464,-23.299802722459344,tremor
264,7616632,1.889,-0.33949758710592887,-0.33648936917646577,-0.8032545570340235,-35.733886575354425,79.3582546045621,-21.523204204413,tremor
265,7616637,1.894,-0.33129572546054414,-0.33358685780151703,-0.8136594527823381,-35.565043960888474,74.76735679773977,-19.767622869878082,tremor
266,7616665,1.922,-0.3236796141681548,-0.3305076394927093,-0.8235284303930289,-35.36486476022625,70.3905423163102,-18.038983006622065,tremor
267,7616670,1.927,-0.3166498128922676,-0.3272595735914044,-0.8328859594409996,-35.13519399082748,66.23290520527671,-16.34289271795424,tremor
268,7616675,1.932,-0.31020409886499467,-0.3238511794944224,-0.841757118309374,-34.87791122098523,62.29770833528042,-14.684604827352375,tremor
269,7616680,1.937,-0.3043374798037921,-0.3202915785139567,-0.8501673935861623,-34.5948946034036,58.58640201167852,-13.068982165980586,tremor
270,7616685,1.942,-0.2990422306314052,-0.3165904345730238,-0.8581424956579955,-34.287986093341345,55.09866730592651,-11.500468180838418,tremor
271,7616690,1.947,-0.2943079655184045,-0.3127578972083995,-0.8657081917285294,-33.95895948290063,51.83248522688094,-9.983063539081176,tremor
272,7616699,1.956,-0.29012175389755934,-0.3088045500461655,-0.8728901564673001,-33.60949266124139,48.78423146895003,-8.52030912407713,tremor
273,7616704,1.961,-0.28646828515804856,-0.30474136729581824,-0.8797138394586017,-33.24114517267626,45.94879504959441,-7.1152755488112245,tremor
274,7616709,1.966,-0.28333008226613604,-0.30057967994924234,-0.8862043476728979,-32.85534172502267,43.319717797651016,-5.770559061870788,tremor
275,7616714,1.971,-0.28068776009982355,-0.2963311523476483,-0.8923863404259277,-32.45336183664578,40.88935048333056,-4.488283494697495,tremor
276,7616719,1.976,-0.2785203202810252,-0.2920077686754189,-0.8982839338005719,-32.03633534852887,38.649020496441466,-3.2701077046279856,tremor
277,7616724,1.981,-0.2768054710686541,-0.28762182784029916,-0.903920611321712,-31.605243118605042,36.58920546891575,-2.1172378197165638,tremor
278,7616729,1.986,-0.2755199586312285,-0.28318594418804166,-0.9093191377935301,-31.160921905755526,34.6997071537114,-1.0304435004436374,tremor
279,7616733,1.99,-0.27463989484152573,-0.27871305065578955,-0.914501473605412,-30.7040722699268,32.96982021760643,-0.010077405537961479,tremor
280,7616743,2.0,-0.2741410666674945,-0.27421640036793066,-0.9194886874475656,-30.235268268514833,31.388491327085706,0.9439029175410173,tremor
281,7616748,2.005,-0.2739992132800018,-0.2697095623921208,-0.9243008662023968,-29.754967803951324,29.944464911334062,1.8319114095270848,tremor
282,7616753,2.01,-0.27419025913404677,-0.2652064074604816,-0.9289570217347206,-29.26352265227053,28.62641316732065,2.654708706142449,tremor
283,7616758,2.015,-0.274690494426892,-0.26072107995408966,-0.9334749953273941,-28.76118745577122,27.42304912293758,3.413376582203455,tremor
284,7616763,2.02,-0.27547669833122773,-0.2562679533404892,-0.9378713615317129,-28.24812727247098,26.32322279525848,4.109291880264437,tremor
285,7616795,2.052,-0.2765262049827758,-0.2518615674912917,-0.9421613341594963,-27.724423618250317,25.316001582772742,4.744100026740222,tremor
286,7616800,2.057,-0.27781691698716454,-0.24751654778835477,-0.9463586779639503,-27.190079288956795,24.390736925966884,5.319688132047407,tremor
287,7616804,2.061,-0.2793272756395565,-0.24324750749260063,-0.9504756301338858,-26.64502256848167,23.537119855198608,5.838157626287807,tremor
288,7616809,2.066,-0.2810362004126934,-0.23906893628854284,-0.9545228359230421,-26.089111654894033,22.74522821573082,6.3017964136416005,tremor
289,7616814,2.071,-0.28292301196174613,-0.23499507902692623,-0.9585093024457914,-25.522140217975917,22.005568099670835,6.713050625003972,tremor
290,7616819,2.076,-0.2849673527310543,-0.23103980934813872,-0.962442373892221,-24.94384492625244,21.30911143854667,7.074496168189152,tremor
291,7616823,2.08,-0.28714911749829103,-0.2272165030650585,-0.9663277302632953,-24.35391557698964,20.647330995492876,7.388810373590463,tremor
292,7616828,2.085,-0.28944840335619604,-0.2235379159645873,-0.9701694103669171,-23.752008170100186,20.012233281183086,7.658744087592414,tremor
293,7616833,2.09,-0.2918454852227269,-0.22001607012105662,-0.9739698584097536,-23.13776092834578,19.396389279723465,7.887094574929525,tremor
294,7616838,2.095,-0.29432081942787314,-0.2166621519737803,-0.9777299922038244,-22.51081292360901,18.792962355104926,8.076679562400349,tremor
295,7616843,2.1,-0.296855074610288,-0.21348642438040918,-0.9814492898916388,-21.87082466417635,18.195732351532367,8.230312701092057,tremor
296,7616848,2.105,-0.29942918635288035,-0.21049815369932887,-0.9851258912663577,-21.217499768542655,17.59911473286031,8.350780656837989,tremor
297,7616853,2.11,-0.30202442990087164,-0.20770555176827357,-0.988756709289965,-20.550606723522026,16.99817364574232,8.440821973175737,tremor
298,7616868,2.125,-0.3046225040721817,-0.20511573153139673,-0.9923375473390823,-19.869999706458326,16.388628028096207,8.503107795658114,tremor
299,7616873,2.13,-0.307205619152775,-0.202734674133798,-0.9958632180582699,-19.175637532306105,15.766850271816836,8.5402245007381,tremor
300,7616878,2.135,-0.30975658216174495,-0.20056720467445247,-0.999327660462229,-18.467599943864734,15.129857410811923,8.554658232674862,tremor
301,7616882,2.139,-0.31225887427818877,-0.19861697360246677,-1.002724053037479,-17.746100671140248,14.475295260015995,8.548781317417353,tremor
302,7616887,2.144,-0.3146967172504474,-0.19688644102296876,-1.0060449219311762,-17.011496918545863,13.80141630972225,8.524840498609604,tremor
303,7616914,2.171,-0.3170551279784603,-0.19537686192443715,-1.0092822447184737,-16.264295176896876,13.107052440342205,8.484946935663967,tremor
304,7616919,2.176,-0.31931996282979896,-0.1940882714345432,-1.0124275515250174,-15.50515348513307,12.39158364866881,8.431067921779205,tremor
305,7616924,2.181,-0.3214779552250409,-0.19301947046945353,-1.015472026245333,-14.734880461158069,11.654903966702644,8.365020316797521,tremor
306,7616928,2.185,-0.3235167512112773,-0.19216801333421635,-1.0184066110421977,-13.9544315492166,10.897385620281801,8.288465731888255,tremor
307,7616933,2.19,-0.32542494787395226,-0.1915301997530861,-1.0212221171110247,-13.164902971712873,10.11984225010072,8.202907531595011,tremor
308,7616938,2.195,-0.3271921385270257,-0.19110107433897536,-1.0239093438667444,-12.367523837295991,9.323491754416477,8.109689720182514,tremor
309,7616948,2.205,-0.32880896693203154,-0.19087443662982256,-1.026459207417471,-11.563646778238416,8.50991906343985,8.009997750814547,tremor
310,7616952,2.209,-0.3302671907071096,-0.19084286456742036,-1.0288628776518947,-10.754737401764201,7.681038956911645,7.904861245026102,tremor
311,7616957,2.214,-0.3315597519768061,-0.19099775373969075,-1.0311119217084828,-9.942362764745585,6.839058909635832,7.795158548517511,tremor
312,7616962,2.219,-0.3326808515060081,-0.19132937393423588,-1.0331984502122749,-9.128179033118872,5.986441903373184,7.681622990254561,tremor
313,7616967,2.224,-0.3336260212888447,-0.19182694365190567,-1.0351152616161863,-8.313918471376196,5.125869171177915,7.564850664716034,tremor
314,7616972,2.229,-0.3343921899407366,-0.19247872229646376,-1.0368559793656882,-7.501375917400165,4.260202920904225,7.445309526076334,tremor
315,7616976,2.233,-0.3349777352745905,-0.19327211887273815,-1.0384151764547762,-6.6923949195323775,3.3924491905861456,7.323349566774,tremor
316,7616982,2.239,-0.3353825190618194,-0.19419381525713553,-1.0397884822490606,-5.888853730964232,2.5257210940864825,7.199213845893937,tremor
317,7616986,2.243,-0.33560790007495395,-0.19522990149808325,-1.0409726671826696,-5.092651361226084,1.663202800469611,7.073050129070373,tremor
318,7617001,2.258,-0.33565672294346055,-0.1963660201873899,-1.0419657020323105,-4.305693872682493,0.8081146401961299,6.944922898713535,tremor
319,7617006,2.263,-0.3355332819645582,-0.19758751672524527,-1.0427667898530875,-3.529881083376638,-0.03632026496790883,6.814825494615065,tremor
320,7617011,2.268,-0.33524326060525894,-0.19887959227097962,-1.04337637021339,-2.7670937990302407,-0.8669075018631937,6.682692158165651,tremor
321,7617041,2.298,-0.3347936488062123,-0.20022745629987018,-1.043796096944926,-2.019181648043446,-1.6805107573867417,6.54840978521209,tremor
322,7617046,2.303,-0.334192641180222,-0.20161647593090465,-1.0440287920659257,-1.2879515369673944,-2.474079015595421,6.411829241260941,tremor
323,7617051,2.308,-0.3334495197033228,-0.20303231950393197,-1.044078379679847,-0.5751566890684342,-3.2446716314414643,6.2727761455367945,tremor
324,7617056,2.313,-0.33257452454841546,-0.20446109222347497,-1.0439498043631454,0.1175138110595027,-3.989481461880622,6.131061070851583,tremor
325,7617060,2.317,-0.33157871642444847,-0.2058894620195579,-1.0436489387669994,0.7884450583475214,-4.705856267628092,5.986489126039217,tremor
326,7617065,2.322,-0.33047383331513247,-0.20730477408880496,-1.0431824849084683,1.4361060345048424,-5.391318562573946,5.838868890865726,tremor
327,7617070,2.327,-0.3292721440093647,-0.20869515287093246,-1.0425578730426408,2.0590590345516464,-6.0435840133607455,5.688020669545438,tremor
328,7617075,2.332,-0.32798630038748694,-0.21004959049182428,-1.041783161239115,2.655968828259464,-6.660578406247016,5.533784025797694,tremor
329,7617080,2.337,-0.32662919012944014,-0.211358020970279,-1.0408669379598903,3.2256115317443417,-7.240453117369479,5.376024562766542,tremor
330,7617085,2.342,-0.32521379135772244,-0.2126113797450783,-1.0398182291421985,3.7668831254940254,-7.781598952419946,5.214639914762184,tremor
331,7617089,2.346,-0.3237530307038941,-0.21380164833383367,-1.0386464105901432,4.2788075214491785,-8.28265816527376,5.049564922796843,tremor
332,7617094,2.351,-0.3222596463534291,-0.21492188418424973,-1.0373611259119035,4.760544056565873,-8.742534424885195,4.880775970629204,tremor
333,7617099,2.356,-0.3207460577278865,-0.21596623601868964,-1.035972209825509,5.211394275469,-9.160400479912072,4.708294462046984,tremor
334,7617104,2.361,-0.31922424355342455,-0.2169299451990695,-1.034489616400309,5.630807860538127,-9.535703275253791,4.532189424116236,tremor
335,7617109,2.366,-0.3177056300983231,-0.21780933384515816,-1.0329233516927891,6.018387572871601,-9.868166306225696,4.352579226431206,tremor
336,7617119,2.376,-0.3162009913083606,-0.21860178061950236,-1.031283410252488,6.373893080777066,-10.157789053916652,4.169632414168667,tremor
337,7617124,2.381,-0.3147203624045489,-0.21930568524128288,-1.0295797150885175,6.697243573126865,-10.404843426586782,3.9835676635709736,tremor
338,7617128,2.385,-0.3132729682169399,-0.21992042290513425,-1.027822060869069,6.988519082555515,-10.609867232597798,3.7946528826782755,tremor
339,7617159,2.416,-0.3118671671056405,-0.2204462898565075,-1.0260200603433258,7.2479604764352175,-10.773654824360406,3.603203497727744,tremor
340,7617164,2.421,-0.31051041078099834,-0.2208844414129554,-1.0241830941941046,7.475968108208261,-10.897245168979328,3.409579985174663,tremor
341,7617173,2.43,-0.3092092197288289,-0.22123682372638,-1.0223202647149072,7.67309915217322,-10.98190769972172,3.2141847270148776,tremor
342,7617178,2.435,-0.3079691733584397,-0.22150610056508752,-1.0204403538219462,7.8400636650255615,-11.029126358948751,3.017458278473764,tremor
343,7617188,2.445,-0.3067949135137708,-0.22169557636732065,-1.0185517859352533,7.9777194242069145,-11.040582244078719,2.819875139907798,tremor
344,7617192,2.449,-0.30569015968325663,-0.22180911678642737,-1.0166625961893023,8.087065588325906,-11.018135220728546,2.6219391203402145,tremor
345,7617197,2.454,-0.3046577341266862,-0.2218510679127014,-1.014780404279631,8.169235214330056,-10.96380479301324,2.4241783718119834,tremor
346,7617207,2.464,-0.3036995951853842,-0.22182617531481177,-1.0129123940454399,8.22548665651236,-10.879750441566031,2.2271401645902253,tremor
347,7617212,2.469,-0.30281687721430794,-0.22173950398988898,-1.0110652986581812,8.257193868895634,-10.76825156915634,2.031385464985224,tremor
348,7617217,2.474,-0.30200993582176494,-0.2215963602415914,-1.0092453910594308,8.265835636930246,-10.631687139474382,1.8374833712579086,tremor
349,7617222,2.479,-0.30127839737369155,-0.22140221641735452,-1.007458479091094,8.252983776171732,-10.472515060779797,1.6460054595530904,tremor
350,7617227,2.484,-0.3006212119709139,-0.22116263932944752,-1.0057099046053726,8.220290353318775,-10.29325135336795,1.4575200905913857,tremor
351,7617231,2.488,-0.30003670930999704,-0.2208832230619497,-1.0040045457424815,8.169474007201147,-10.096449144839307,1.2725867275857308,tremor
352,7617236,2.493,-0.2995226569774927,-0.22056952673181274,-1.0023468215258182,8.102305472086352,-9.884677554044735,1.0917503153395671,tremor
353,7617241,2.498,-0.2990763208017015,-0.22022701763222172,-1.0007406979473028,8.020592430740935,-9.660500547897119,0.9155357698865891,tremor
354,7617246,2.503,-0.29869452690060455,-0.21986102004610986,-0.9991896947968473,7.926163848011415,-9.426455881943472,0.7444426285894841,tremor
355,7617250,2.507,-0.2983737250289931,-0.21947666988243456,-0.9976968926235692,7.820853956012354,-9.185034264787411,0.5789399135447851,tremor
356,7617255,2.512,-0.2981100527548091,-0.21907887516300764,-0.9962649393938534,7.706486078929454,-8.938658918041272,0.4194612664658616,tremor
357,7617281,2.538,-0.2978993998994599,-0.21867228227801733,-0.9948960566209419,7.5848564991443475,-8.68966573671656,0.2664004192588078,tremor
358,7617285,2.542,-0.29773747257675165,-0.21826124783766662,-0.9935920449661394,7.457718576817952,-8.440284287098148,0.1201070687237765,tremor
359,7617291,2.548,-0.2976198560802344,-0.21784981587828212,-0.99235428952935,7.326767341131075,-8.192619904876935,-0.019116775618413878,tremor
360,7617295,2.552,-0.2975420758200783,-0.2174417001350983,-0.9911837652266348,7.193624771312926,-7.9486371696014455,-0.15101990495018144,tremor
361,7617300,2.557,-0.29749965551271146,-0.21704027106956164,-0.9900810427686725,7.0598259786928255,-7.710145029515405,-0.2754044266660025,tremor
362,7617305,2.562,-0.29748817188050597,-0.21664854733239475,-0.9890462957963237,6.926806488749798,-7.478783835517899,-0.39212763118640437,tremor
363,7617310,2.567,-0.29750330521329404,-0.2162691913490548,-0.9880793097055791,6.795890807057243,-7.256014518039151,-0.5011031688173269,tremor
364,7617315,2.572,-0.2975408852617823,-0.2159045087260709,-0.9871794926208508,6.668282436739968,-7.043110107993246,-0.6023015058021974,tremor
365,7617319,2.576,-0.2975969320596951,-0.21555645119088684,-0.9863458888705046,6.5450554976135855,-6.841149762488742,-0.6957496401357876,tremor
366,7617324,2.581,-0.2976676913950232,-0.21522662279153582,-0.9855771951969614,6.427148078127849,-6.651015407372214,-0.7815300703912318,tremor
367,7617329,2.586,-0.29774966476314907,-0.21491628909415417,-0.9848717798079729,6.3153574306757925,-6.473391053172083,-0.8597790247992386,tremor
368,7617334,2.591,-0.2978396337316564,-0.2146263891253537,-0.9842277042553509,6.210337098802837,-6.308764781475397,-0.9306839726185744,tremor
369,7617339,2.596,-0.29793467872753876,-0.2143575498128417,-0.9836427480195274,6.112596040371275,-6.157433338812973,-0.9944804543852641,tremor
370,7617343,2.6,-0.2980321923240818,-0.2141101026818482,-0.9831144355877228,6.022499782391658,-6.019509218423761,-1.051448280672372,tremor
371,7617348,2.605,-0.2981298871598776,-0.2138841025675229,-0.9826400657431519,5.940273610925361,-5.894930060717082,-1.1019071596144443,tremor
372,7617353,2.61,-0.29822579866935045,-0.21367934810522174,-0.9822167427337104,5.866007764977916,-5.783470164691307,-1.1462118214059132,tremor
373,7617358,2.615,-0.29831828284546574,-0.2134954037622837,-0.9818414089601993,5.799664568894891,-5.684753877235467,-1.1847467136966205,tremor
374,7617362,2.619,-0.2984060092929908,-0.2133316231772894,-0.9815108788137603,5.741087404524148,-5.5982706143697705,-1.2179203461211405,tremor
375,7617367,2.624,-0.29848794986630856,-0.21318717357662412,-0.9812218732955148,5.690011392021367,-5.523391264680757,-1.246159366064661,tremor
376,7617377,2.634,-0.2985633632206021,-0.2130610610439763,-0.9809710550626752,5.646075615796547,-5.459385726426702,-1.2699024518792335,tremor
377,7617403,2.66,-0.29863177564040344,-0.21295215642620585,-0.9807550635580331,5.608836699167098,-5.40544133366556,-1.2895941140721294,tremor
378,7617408,2.665,-0.29869295854600214,-0.21285922166768398,-0.9805705498873322,5.5777834981793974,-5.360681933326378,-1.3056784985467202,tremor
