sample,t_ms,t_s,ax,ay,az,gx,gy,gz,tremor
0,7564119,0.0,-0.044896429883821136,-0.08971066832651427,-1.0506172609265485,-0.39864885446889425,3.091762402920778,-0.8067300029308144,no_tremor
1,7564123,0.004,-0.04515362942759422,-0.08959869316245467,-1.0508666654911676,-0.242447910172131,2.5985813625655108,-0.7436191141748275,no_tremor
2,7564128,0.009,-0.045504142954265796,-0.08945132847346995,-1.0511972664816966,-0.08720854424076344,2.08771032634207,-0.6813290143689648,no_tremor
3,7564133,0.014,-0.04595320769584414,-0.08927009549014035,-1.0516064700637933,0.06615812095215742,1.5612964064457309,-0.6203463368877304,no_tremor
4,7564143,0.024,-0.04648853202987659,-0.08906424460218913,-1.0520737313857196,0.2166918731811171,1.0217501566574447,-0.5611582394291289,no_tremor
5,7564147,0.028,-0.047089296713791,-0.08884614583687309,-1.0525705916012373,0.36338613402318026,0.47174619427683867,-0.5042473023452374,no_tremor
6,7564152,0.033,-0.047734019163026095,-0.08862766230246097,-1.0530688540263127,0.5051913018079829,-0.08577805991863006,-0.4500863738820811,no_tremor
7,7564157,0.038,-0.04840449128314618,-0.0884185195350427,-1.0535444290332265,0.6410187473680692,-0.647625664414344,-0.39913342395830953,no_tremor
8,7564162,0.043,-0.04908679625945269,-0.08822602758887303,-1.0539781490736928,0.7697454868557441,-1.2103456046059515,-0.3518264636896738,no_tremor
9,7564167,0.048,-0.049770890522335874,-0.08805540541723765,-1.0543551870439973,0.890219546102849,-1.770240547940942,-0.3085785802562854,no_tremor
10,7564171,0.052,-0.05044973614980865,-0.08791025115501841,-1.054664101030712,1.0012660209450275,-2.3233770480413996,-0.2697731263907084,no_tremor
11,7564176,0.057,-0.05111844787230911,-0.0877929619197922,-1.0548959600636296,1.1016938278557975,-2.865598336604191,-0.2357590924761377,no_tremor
12,7564181,0.062,-0.0517736089897408,-0.0877050496365663,-1.0550436845351856,1.190303129533605,-3.39253983751135,-0.20684667976049584,no_tremor
13,7564186,0.067,-0.05241277093969667,-0.08764735851823355,-1.0551015980510647,1.2658934114757694,-3.899647531387529,-0.18330308719491864,no_tremor
14,7564226,0.107,-0.05303410380529987,-0.08762020680305756,-1.0550651455662232,1.3272721789775694,-4.382199290768214,-0.1653485213043344,no_tremor
15,7564231,0.112,-0.053636157449750525,-0.08762347550356517,-1.05493072974762,1.3732642400854593,-4.835329296165744,-0.15315243692955438,no_tremor
16,7564236,0.117,-0.05421769902944099,-0.08765666213186799,-1.0546956267402117,1.4027215388398695,-5.254055631623485,-0.14683001631465428,no_tremor
17,7564240,0.121,-0.05477760142048567,-0.08771891222539017,-1.054357953217529,1.4145335040357805,-5.633311144583451,-0.1464388954687678,no_tremor
18,7564245,0.126,-0.05531476483227132,-0.08780903736887716,-1.0539166654158671,1.4076378807688816,-5.9679776384679055,-0.15197615049285526,no_tremor
19,7564250,0.131,-0.055828059736656534,-0.08792552544233063,-1.0533715772641636,1.381032014467766,-6.252923446269989,-0.16337556265195025,no_tremor
20,7564260,0.141,-0.05631628337719108,-0.08806654680600626,-1.0527233891090209,1.3337845596161582,-6.483044408272504,-0.18050518926104267,no_tremor
21,7564265,0.146,-0.05677812494498461,-0.08822995879999772,-1.0519737214340685,1.2650475878868273,-6.653308245317662,-0.2031652775424806,no_tremor
22,7564270,0.151,-0.057212136402074926,-0.08841331006985853,-1.0511251498481553,1.1740690729893146,-6.758802280047055,-0.23108656957491702,no_tremor
23,7564275,0.156,-0.05761670719755362,-0.08861384567364575,-1.0501812388106437,1.0602057322734664,-6.794784412856527,-0.2639290571974811,no_tremor
24,7564279,0.16,-0.05799004196763096,-0.08882851357215606,-1.0491465723116302,0.9229362075891702,-6.756737208881779,-0.301281255481024,no_tremor
25,7564284,0.165,-0.05833014088118781,-0.0890539728815743,-1.0480267801890943,0.7618745681205998,-6.640424899227061,-0.3426600714023008,no_tremor
26,7564289,0.17,-0.058634782681040325,-0.08928660412960081,-1.0468285590483977,0.5767841125181566,-6.441953045096814,-0.3875113494202983,no_tremor
27,7564294,0.175,-0.05890151073829927,-0.08952252167235955,-1.0455596869205603,0.3675914338513809,-6.157830557773378,-0.4352111761927323,no_tremor
28,7564299,0.18,-0.059127622620361885,-0.08975758838120287,-1.0442290308987698,0.13440068865871016,-5.785033710388798,-0.4850680218801463,no_tremor
29,7564304,0.185,-0.05931016379493286,-0.08998743268454087,-1.0428465470564396,-0.12249201686133078,-5.321071719020985,-0.5363257862067785,no_tremor
30,7564314,0.195,-0.05944592616659213,-0.09020746804331518,-1.0414232719933338,-0.4025842420495931,-4.764053410802721,-0.5881678056182548,no_tremor
31,7564319,0.2,-0.059531452177090965,-0.09041291494558018,-1.0399713053904194,-0.7051529801246748,-4.112754436201077,-0.6397218649828272,no_tremor
32,7564324,0.205,-0.05956304520085152,-0.09059882552286051,-1.03850378298592,-1.029240764151497,-3.3666844234803497,-0.6900662436428083,no_tremor
33,7564354,0.235,-0.05953678693592722,-0.09076011091562294,-1.037034839417762,-1.3736423241397655,-2.5261534183231347,-0.7382368111867542,no_tremor
34,7564363,0.244,-0.05944856242935862,-0.09089157154333619,-1.0355795604121132,-1.736892031468198,-1.5923369022209224,-0.7832351736807076,no_tremor
35,7564373,0.254,-0.059294093285122716,-0.09098793045981066,-1.0341539238340192,-2.117252383054149,-0.567338639148565,-0.8240378574229433,no_tremor
36,7564378,0.259,-0.0590689794837733,-0.09104386998828094,-1.032774729155061,-2.5127037886713044,0.5457494398647657,-0.8596065053954228,no_tremor
37,7564383,0.264,-0.058768750098715065,-0.09105407182538271,-1.0314595149374413,-2.9209359309122687,1.7427911398032678,-0.8888990513929176,no_tremor
38,7564388,0.269,-0.058388923031642684,-0.09101326077569549,-1.0302264639888208,-3.339340967312685,3.0185545450461375,-0.910881827422132,no_tremor
39,7564393,0.274,-0.05792507371771803,-0.0909162522308439,-1.0290942959126663,-3.7650088367096943,4.3666660703496545,-0.9245425501955705,no_tremor
40,7564398,0.279,-0.05737291257694761,-0.09075800344365909,-1.0280821468684214,-4.194724916871819,5.7795708857211565,-0.9289041216043693,no_tremor
41,7564402,0.283,-0.05672837081620227,-0.09053366857272697,-1.0272094364662439,-4.624970259010172,7.248500564508548,-0.9230391658588769,no_tremor
42,7564407,0.288,-0.05598769401780766,-0.09023865738878206,-1.0264957218526394,-5.051924598524515,8.763448772655599,-0.9060852128095929,no_tremor
43,7564412,0.293,-0.05514754278547071,-0.0898686974440136,-1.025960539195205,-5.471472311501245,10.313155773893838,-0.8772604229646426,no_tremor
44,7564417,0.298,-0.05420509955605927,-0.0894198994102885,-1.0256232329450041,-5.879211454092636,11.885102474038794,-0.8358797350893079,no_tremor
45,7564421,0.302,-0.05315818052677653,-0.08888882519444206,-1.0255027734410174,-6.2704659880864755,13.465514671117795,-0.7813713027729388,no_tremor
46,7564426,0.307,-0.05200535149342759,-0.08827255834023263,-1.0256175636190143,-6.640301261940192,15.039378119550431,-0.7132930734345044,no_tremor
47,7564436,0.317,-0.05074604625040418,-0.08756877612968043,-1.025985235792702,-6.983542783290746,16.590464957350388,-0.6313493532711523,no_tremor
48,7564441,0.322,-0.04938068607214643,-0.08677582270401496,-1.0266224396829013,-7.294798286804475,18.101371984914433,-0.5354071948609611,no_tremor
49,7564445,0.326,-0.047910798686144555,-0.0858927824393075,-1.0275446230748067,-7.568483069732531,19.553571220019105,-0.4255124394944409,no_tremor
50,7564471,0.352,-0.04633913506644683,-0.08491955273696485,-1.0287658066775107,-7.798848535641589,20.92747308214357,-0.3019052425712887,no_tremor
51,7564476,0.357,-0.04466978232936695,-0.08385691532654911,-1.030298354938244,-7.980013853391664,22.202502476022094,-0.165034906949264,no_tremor
52,7564486,0.367,-0.042908270999309585,-0.08270660512793093,-1.0321527447229148,-8.106000602881007,23.35718794679783,-0.015573845899906829,no_tremor
53,7564506,0.387,-0.041061674925456336,-0.0814713756798968,-1.034337333914678,-8.170770241361948,24.369263967261038,0.14556950555065915,no_tremor
54,7564511,0.392,-0.03913870215947608,-0.08015506011120165,-1.0368581321059522,-8.16826418472357,25.215786294004378,0.3172390141379838,no_tremor
55,7564515,0.396,-0.03714977514324744,-0.0787626266076531,-1.0397185756700411,-8.092446257760395,25.87326019765429,0.4980205907168202,no_tremor
56,7564525,0.406,-0.035107098602818104,-0.07730022731729602,-1.042919309598558,-7.937347226926673,26.317781234982622,0.6862335357696352,no_tremor
57,7564530,0.411,-0.033024713604177,-0.07577523963804052,-1.0464579785801,-7.6971110891850145,26.52518808772665,0.8799236737324769,no_tremor
58,7564535,0.416,-0.03091853630224918,-0.07419629885006668,-1.0503290298710444,-7.3660427518211105,26.471226843860816,1.0768584634225264,no_tremor
59,7564540,0.421,-0.028806380009137614,-0.07257332108947376,-1.054523530566077,-6.938656700823495,26.131725942562984,1.274524270580592,no_tremor
60,7564544,0.425,-0.026707959320871458,-0.07091751570941904,-1.0590290019085744,-6.409726220228128,25.482780846013007,1.4701259824601294,no_tremor
61,7564549,0.43,-0.024644875171957525,-0.06924138613960566,-1.0638292732842076,-5.774332693162464,24.500947341785324,1.6605891345630568,no_tremor
62,7564554,0.435,-0.022640579831299308,-0.06755871843369576,-1.0689043585111433,-5.027914489108298,23.163442221605493,1.8425647077936151,no_tremor
63,7564559,0.44,-0.020720321008989476,-0.06588455678656219,-1.0742303569739926,-4.166314922301276,21.448349928164774,2.0124367410430497,no_tremor
64,7564564,0.445,-0.018911064409023067,-0.06423516540905964,-1.0797793820440271,-3.1858287531407834,19.334833613300976,2.166332889580967,no_tremor
65,7564569,0.45,-0.017241394236584176,-0.06262797626722363,-1.0855195190836715,-2.0832466974361608,16.803348909167806,2.3001380437979875,no_tremor
66,7564594,0.475,-0.015741391348998577,-0.061081522325549295,-1.0914148151482437,-0.8558974067016131,13.835858579958863,2.409511105660681,no_tremor
67,7564599,0.48,-0.014442488925510043,-0.059615356079909004,-1.097425302273029,0.49831361428308585,10.416046097202436,2.4899050008507166,no_tremor
68,7564604,0.485,-0.013377305721547366,-0.05824995332327061,-1.1035070559722195,1.980868679769204,6.529526070293067,2.5365899814749127,no_tremor
69,7564609,0.49,-0.012579457167621873,-0.05700660225373242,-1.109612290283817,3.5926067022571777,2.164049370751518,2.5446802456563358,no_tremor
70,7564614,0.495,-0.012083344772738747,-0.05590727820575381,-1.1156894903778474,5.333696581228328,-2.6902992822082674,2.5091638652205503,no_tremor
71,7564618,0.499,-0.011923924500603556,-0.05497450445863731,-1.121683583408393,7.203615683357243,-8.040913554095592,2.424935971789853,no_tremor
72,7564623,0.504,-0.012136455008201675,-0.05423119974939264,-1.1275361479338801,9.201133868132146,-13.892489847093618,2.286835106755905,no_tremor
73,7564628,0.509,-0.012756226873834011,-0.0537005132891164,-1.1331856618537366,11.324303477120004,-20.24686606961862,2.0896825934120065,no_tremor
74,7564633,0.514,-0.013818274196683536,-0.05340564825228115,-1.1385677884115761,13.570455661786532,-27.102877090336065,1.8283247408312178,no_tremor
75,7564638,0.519,-0.01535707022145096,-0.05336967487610927,-1.1436156993946327,15.93620337313104,-34.456229082200345,1.4976776393858764,no_tremor
76,7564643,0.524,-0.01740620892638671,-0.05361533447161584,-1.1482604342161706,18.41745127535551,-42.29939486846043,1.0927742576609742,no_tremor
77,7564647,0.528,-0.019998074806204726,-0.05416483580785301,-1.1524312931031042,21.00941277500175,-50.621532254442904,0.6088135006361597,no_tremor
78,7564652,0.533,-0.023163503376575856,-0.05503964548508218,-1.1560562621275632,23.70663427705091,-59.40842716446845,0.041210840295878876,no_tremor
79,7564657,0.538,-0.026931435217001226,-0.05626027405958675,-1.159062467322485,26.503026691043676,-68.6424632010485,-0.6143499169855087,no_tremor
80,7564662,0.543,-0.03132856664641907,-0.057846059821140064,-1.1613766546124107,29.391904113279224,-78.3026190021653,-1.3618642066695987,no_tremor
81,7564667,0.548,-0.03637900038381993,-0.05981495225236468,-1.1629256917773334,32.366029504935405,-88.3644944904551,-2.204954149139259,no_tremor
82,7564672,0.553,-0.042103899778217296,-0.062183297315962505,-1.1636370881565041,35.41766707014351,-98.80036678450925,-3.14681642381418,no_tremor
83,7564681,0.562,-0.04852115039330064,-0.06496562681939458,-1.163439527298666,38.53864091347223,-109.57927617825942,-4.190171176606099,no_tremor
84,7564686,0.567,-0.055645032897377024,-0.06817445419474893,-1.1622634072852784,41.720399425440995,-120.66714219417423,-5.3372125965004376,no_tremor
85,7564691,0.572,-0.06348591133424074,-0.07182007910098921,-1.1600413830073564,44.95408471130515,-132.0269092887901,-6.589561822795509,no_tremor
86,7564722,0.603,-0.07204994093036123,-0.07591040330224694,-1.156708904282789,48.230606246048524,-143.6187213475656,-7.948222858890712,no_tremor
87,7564727,0.608,-0.08133879962207717,-0.08045076029453259,-1.152204743384014,51.540717811653565,-155.40012367028848,-9.413542168609585,no_tremor
88,7564732,0.613,-0.09134944745511724,-0.08544376113973674,-1.1464715053387557,54.87509666109688,-167.32629075601173,-10.98517261510233,no_tremor
89,7564736,0.617,-0.10207391790749348,-0.09088915891646814,-1.1394561143085866,58.224423773123846,-179.3502778968506,-12.662042368980309,no_tremor
90,7564742,0.623,-0.11349914500578474,-0.09678373410934282,-1.131110269473126,61.579464024515254,-191.4232944072339,-14.442329360983951,no_tremor
91,7564747,0.628,-0.12560682983790042,-0.10312120312939614,-1.1213908641597055,64.9311451097722,-203.49499622391195,-16.323441787217433,no_tremor
92,7564756,0.637,-0.13837334971110077,-0.1098921519858584,-1.1102603624418772,68.27063406937181,-215.51379556111897,-18.302005096029124,no_tremor
93,7564761,0.642,-0.15176971276436063,-0.11708399691111909,-1.0976871280548293,71.58941033577095,-227.42718525852422,-20.37385579918766,no_tremor
94,7564766,0.647,-0.1657615603242656,-0.12468097347472873,-1.0836457012085692,74.87933426541761,-239.1820754071615,-22.53404235945081,no_tremor
95,7564771,0.652,-0.18030921870257413,-0.13266415540943044,-1.0681170196877505,78.13271019214781,-250.72513978495599,-24.776833315277916,no_tremor
96,7564776,0.657,-0.19536780148408575,-0.14101150401623802,-1.0510885814794857,81.34234310937936,-262.0031695841721,-27.0957327145488,no_tremor
97,7564780,0.661,-0.21088736266049865,-0.14969794862326702,-1.0325545470418958,84.5015881618028,-272.9634318673412,-29.483502844529212,no_tremor
98,7564785,0.666,-0.2268131002458241,-0.15869549815363942,-1.012515780197374,87.6043921987965,-283.55403014011745,-31.932194164816362,no_tremor
99,7564790,0.671,-0.24308560927958942,-0.16797338342277743,-0.9909798274906664,90.64532670991662,-293.7242643731986,-34.43318227258097,no_tremor
100,7564804,0.685,-0.25964118240668277,-0.17749822934881157,-0.967960836680634,93.61961152635287,-303.4249877369144,-36.97721165423877,no_tremor
101,7564814,0.695,-0.2764121555461754,-0.1872342558394076,-0.9434794158272517,96.52312872933882,-312.6089572273109,-39.5544459037149,no_tremor
102,7564848,0.729,-0.29332729556860854,-0.19714350573668796,-0.9175624351869004,99.35242625581492,-321.23117525814854,-42.154524012857124,no_tremor
103,7564853,0.734,-0.31031222644612205,-0.20718609788462763,-0.8902427748342878,102.1047107379555,-329.2492191741317,-44.76662226396718,no_tremor
104,7564858,0.739,-0.32728989006681386,-0.21732050314999796,-0.861559021579369,104.77782917487914,-336.62355553096234,-47.379521184499445,no_tremor
105,7564863,0.744,-0.34418103782034515,-0.22750384107998892,-0.8315551193314356,107.37023914169272,-343.31783592856874,-49.98167697364035,no_tremor
106,7564867,0.748,-0.36090474912417525,-0.23769219479488327,-0.8002799775759832,109.88096741517565,-349.2991712099599,-52.561296790158046,no_tremor
107,7564872,0.753,-0.37737897319520863,-0.24784094165457685,-0.7677870430831334,112.30955713329787,-354.5383809561619,-55.106417296292385,no_tremor
108,7564877,0.758,-0.3935210905025849,-0.25790509716362126,-0.7341338403793518,114.6560038825112,-359.01021540094973,-57.604985866485244,no_tremor
109,7564887,0.768,-0.4092484904027913,-0.26783966946007814,-0.6993814869042358,116.92068139630832,-362.693547138199,-60.04494387425214,no_tremor
110,7564892,0.773,-0.4244791614205433,-0.2776000215514318,-0.66359418914604,119.10425783556987,-365.57153028788485,-62.41431145492402,no_tremor
111,7564896,0.777,-0.43913229048330893,-0.28714223821293816,-0.6268387263947672,121.20760389902085,-367.6317251185557,-64.70127310522227,no_tremor
112,7564911,0.792,-0.4531288671504162,-0.2964234941605901,-0.5891839290531317,123.2316942766491,-368.86618649235476,-66.89426342878826,no_tremor
113,7564916,0.797,-0.46639228852502945,-0.30540241977486526,-0.5507001586835016,125.1775042046499,-369.27151490396886,-68.98205227991863,no_tremor
114,7564920,0.801,-0.4788489601414244,-0.31403946031521446,-0.5114587971186482,127.0459030980951,-368.84886933210225,-70.95382850643978,no_tremor
115,7564925,0.806,-0.49042888773339394,-0.3222972242674524,-0.471531751992926,128.83754741532775,-367.60394161931316,-72.79928145467224,no_tremor
116,7564930,0.811,-0.5010662544591448,-0.33014081624189234,-0.4309909859238442,130.5527750364827,-365.5468926466783,-74.50867937782178,no_tremor
117,7564935,0.816,-0.5106999779086714,-0.33753814971084856,-0.38990807627205376,132.19150351324177,-362.69225116480465,-76.07294388369066,no_tremor
118,7564968,0.849,-0.5192742410518907,-0.34446023484802085,-0.3483538119318752,133.75313456672043,-359.0587767618158,-77.48371956871769,no_tremor
119,7564973,0.854,-0.5267389911897917,-0.3508814368155297,-0.3063978329594063,135.23646717125789,-354.6692890596758,-78.73343801633034,no_tremor
120,7564982,0.863,-0.5330504009453104,-0.3567797000571856,-0.26410831800904777,136.63962145316293,-349.55046577939925,-79.81537539345864,no_tremor
121,7564988,0.869,-0.5381712853955836,-0.3621367345362148,-0.22155172346913976,137.95997544412748,-343.7326127357778,-80.72370296153811,no_tremor
122,7564993,0.874,-0.5420714696404916,-0.3669381604350549,-0.1787925768284003,139.1941164626213,-337.24940906744035,-81.4535299197026,no_tremor
123,7565002,0.883,-0.5447281014636473,-0.37117360861329074,-0.13589332520948466,140.33780857368495,-330.1376310831313,-82.00093810219494,no_tremor
124,7565007,0.888,-0.5461259042972618,-0.3748367750565223,-0.09291423829579676,141.38597721963245,-322.43685804980305,-82.36300814713873,no_tremor
125,7565012,0.893,-0.546257366457218,-0.37792542858120454,-0.04991336320241553,142.3327117354017,-314.1891631017033,-82.53783684191447,no_tremor
126,7565022,0.903,-0.5451228635550985,-0.3804413721234941,-0.006946527333895003,143.17128607676656,-305.4387922384695,-82.5245454433542,no_tremor
127,7565026,0.907,-0.5427307120891165,-0.38239035897656176,0.03593261597079493,143.89419771103724,-296.23183412908094,-82.32327887619647,no_tremor
128,7565031,0.912,-0.5390971534205734,-0.3837819663021976,0.07867250511848052,144.493224252856,-286.6158831780201,-81.93519582781241,no_tremor
129,7565036,0.917,-0.5342462685992404,-0.38462942908852704,0.12122355792788006,144.95949707104612,-276.63969806969436,-81.36244987474944,no_tremor
130,7565041,0.922,-0.528209825747468,-0.3849494384269218,0.16353803611914502,145.28359074900965,-266.35285780655335,-80.60816189437855,no_tremor
131,7565051,0.932,-0.5210270628921752,-0.3847619085239247,0.20556989328628306,145.45562695854503,-255.8054171046644,-79.67638413325302,no_tremor
132,7565056,0.937,-0.5127444102011994,-0.38408971724826935,0.2472746125155597,145.46539101492044,-245.04756291092707,-78.57205642249627,no_tremor
133,7565083,0.964,-0.5034151564982213,-0.3829584252436492,0.2886090390524607,145.30245913417147,-234.12927375881736,-77.30095514664144,no_tremor
134,7565098,0.979,-0.4930990656567585,-0.38139597871538977,0.3295312124752696,144.9563342314376,-223.09998368217327,-75.86963567969335,no_tremor
135,7565108,0.989,-0.48186194895434586,-0.379432400918315,0.3700002018318397,144.4165879960755,-212.00825244984574,-74.28536909248137,no_tremor
136,7565113,0.994,-0.46977519964752146,-0.3770994771319868,0.4099759463126574,143.67300695283976,-200.90144394547346,-72.55607400080329,no_tremor
137,7565117,0.998,-0.45691529588652813,-0.3744304375262871,0.4494191034347007,142.7157402494764,-189.8254145628148,-70.69024446072308,no_tremor
138,7565122,1.003,-0.4433632776739134,-0.37145964184101343,0.48829090647298123,141.53544697539294,-178.82421349084058,-68.69687482790607,no_tremor
139,7565127,1.008,-0.42920420298974843,-0.3682222692880649,0.5265530329562613,140.1234408965989,-167.93979672008007,-66.58538248805051,no_tremor
140,7565132,1.013,-0.4145265875764457,-0.3647540165857461,0.5641674863235538,138.47183058279472,-157.21175652943788,-64.36552934154287,no_tremor
141,7565137,1.018,-0.3994218322911678,-0.3610908065837806,0.6010964931932757,136.573653003853,-146.67706813206877,-62.04734289239801,no_tremor
142,7565142,1.023,-0.38398364145142083,-0.35726850954932377,0.6373024190265625,134.42299878637166,-136.3698550832391,-59.64103775311628,no_tremor
143,7565147,1.028,-0.3683074352471361,-0.3533226788611406,0.6727477051984194,132.01512744664802,-126.32117498667766,-57.15693833610379,no_tremor
144,7565151,1.032,-0.35248975907393065,-0.34928830259512084,0.7073948305768513,129.3465710542603,-116.55882697638957,-54.60540346094397,no_tremor
145,7565156,1.037,-0.33662769254301217,-0.3451995722670916,0.7412063006204431,126.41522493166225,-107.10718239061481,-51.996753566674315,no_tremor
146,7565161,1.042,-0.32081826091792576,-0.34108966981254835,0.7741446667220115,123.22042416230367,-97.98703998230671,-49.34120117938689,no_tremor
147,7565166,1.047,-0.30515785178747795,-0.3369905737107059,0.8061725780428945,119.76300486476123,-89.21550691509434,-46.64878524578172,no_tremor
148,7565171,1.052,-0.28974163987984,-0.3329328849869462,0.837252867400105,116.04534939276932,-80.80590666886994,-43.92930989968149,no_tremor
149,7565176,1.057,-0.2746630230326433,-0.328945673641237,0.8673486718950427,112.07141483784186,-72.76771482558914,-41.19228817939215,no_tremor
150,7565180,1.061,-0.26001307244256183,-0.32505634584270376,0.8964235879237857,107.84674443802963,-65.10652352919129,-38.4468911600427,no_tremor
151,7565208,1.089,-0.24588000041652533,-0.32129053200001695,0.9244418590117042,103.37846172897615,-57.824035219795185,-35.70190290882218,no_tremor
152,7565213,1.094,-0.23234864892881513,-0.3176719955690844,0.9513685936167122,98.6752475068551,-50.918086033500906,-32.9656816134528,no_tremor
153,7565223,1.104,-0.21950000234287423,-0.31422256221006256,0.9771700087337754,93.7472998984834,-44.38269903043972,-30.246127173066718,no_tremor
154,7565227,1.108,-0.20741072766385268,-0.3109620686809503,1.0018136939402629,88.60627803987906,-38.20816715754472,-27.550655471109902,no_tremor
155,7565232,1.113,-0.19615274562356183,-0.30790833068036894,1.025268889582154,83.26523004131573,-32.38116556958372,-24.88617946946711,no_tremor
156,7565237,1.118,-0.1857928357457558,-0.30507712873933945,1.047506772192351,77.73850606300806,-26.88489263691802,-22.25909717479424,no_tremor
157,7565242,1.123,-0.176392278291227,-0.30248221120567326,1.0685007399540798,72.04165744623344,-21.699238681107012,-19.67528643847927,no_tremor
158,7565252,1.133,-0.16800653564478382,-0.30013531334922927,1.0882266910251555,66.19132294834606,-16.80098121335866,-17.140106466375062,no_tremor
159,7565257,1.138,-0.16068497529121045,-0.2980461916225555,1.10666328776295,60.205103225226964,-12.16400521079451,-14.65840583663433,no_tremor
160,7565261,1.142,-0.1544706360476817,-0.2962226721195591,1.1237922002865146,54.10142479626614,-7.759546752114106,-12.234536754016679,no_tremor
161,7565266,1.147,-0.14940003868893964,-0.2946707122660346,1.1395983233468088,47.89939481525106,-3.5564581471722154,-9.872375204793657,no_tremor
162,7565271,1.152,-0.14550304153344945,-0.2933944747352902,1.1540699611206446,41.6186480541931,0.4785074661677686,-7.5753466148880015,no_tremor
163,7565276,1.157,-0.1428027409705784,-0.2923964125015034,1.1671989752714167,35.279187586266616,4.380394220281006,-5.346456553206394,no_tremor
164,7565281,1.162,-0.14131541631758862,-0.29167736382098636,1.1789808924038132,28.901220729967147,8.185726584466005,-3.1883259616772186,no_tremor
165,7565286,1.167,-0.14105051781475086,-0.2912366557696195,1.1894149678599402,22.50499189097172,11.932179760497455,-1.1032303339049028,no_tremor
166,7565291,1.172,-0.14201069600607563,-0.29107221476820294,1.1985042036485967,16.110614013106826,15.658239832211258,0.9068577924246224,no_tremor
167,7565331,1.212,-0.14419187021727975,-0.29118068230381605,1.2062553191639032,9.737900426604524,19.40285613856984,2.840223715768827,no_tremor
168,7565345,1.226,-0.14758333334003762,-0.29155753381756083,1.2126786742358422,3.4061989566438444,23.2050883648965,4.69536355523099,no_tremor
169,7565350,1.231,-0.1521678896856361,-0.29219719850181275,1.2177881449666954,-2.8657697864739085,27.10375085275653,6.470936110626636,no_tremor
170,7565364,1.245,-0.15792202232425373,-0.29309317757025627,1.2216009537397388,-9.06006799563745,31.137056612592428,8.165714402940763,no_tremor
171,7565374,1.255,-0.16481608612192689,-0.2942381584689409,1.2241374557175226,-15.15968823282099,35.342263482155055,9.778537724063888,no_tremor
172,7565379,1.26,-0.17281452264406785,-0.29562412250769177,1.2254208850319344,-21.148691167692387,39.75532481052526,11.308265035792948,no_tremor
173,7565389,1.27,-0.1818760931982497,-0.29724244350992673,1.2254770646519433,-27.012331824044782,44.41054697199602,12.753730556332739,no_tremor
174,7565394,1.275,-0.19195412651080346,-0.2990839752963445,1.2243340845528217,-32.73717284027463,49.34025593993986,14.113702360059913,no_tremor
175,7565399,1.28,-0.2029967778457937,-0.30113912612320937,1.222021953283126,-38.311183443669876,54.57447508908892,15.386844792818048,no_tremor
176,7565404,1.285,-0.21494729676478433,-0.3033979185775497,1.2185722283385743,-43.72382304687478,60.14061635013449,16.571685467613424,no_tremor
177,7565408,1.289,-0.2277443011811473,-0.30585003387542076,1.2140176309273518,-48.96610859120807,66.06318681123153,17.666587552604803,no_tremor
178,7565413,1.294,-0.2413220558735405,-0.3084848399979278,1.2083916507785766,-54.03066497863814,72.36351284009028,18.66972799616922,no_tremor
179,7565418,1.299,-0.25561075417732587,-0.31129140361313457,1.2017281466344025,-58.91175814647677,79.05948378012631,19.579082255447673,no_tremor
180,7565423,1.304,-0.2705368021564485,-0.314258486250446,1.194060948001986,-63.60531054237985,86.165317249146,20.392416007400357,no_tremor
181,7565453,1.334,-0.28602310515706986,-0.31737452569904245,1.1854234636424916,-68.1088989502038,93.69134803523556,21.10728422640495,no_tremor
182,7565458,1.339,-0.3019893572389143,-0.32062760407470536,1.175848302146579,-72.42173479997038,101.64384253588034,21.721037910501032,no_tremor
183,7565463,1.344,-0.3183523345399009,-0.324005404417157,1.1653669097754962,-76.5446272699015,110.02484061378306,22.23083862936809,no_tremor
184,7565468,1.349,-0.33502619410894,-0.32749515801607454,1.154009230499638,-80.47992965774709,118.8320266383312,22.63368095073456,no_tremor
185,7565473,1.354,-0.35192278009282746,-0.3310835848966656,1.1418033928067315,-84.23146966256954,128.05863134402261,22.92642267941821,no_tremor
186,7565478,1.359,-0.3689519393544793,-0.33475683001990203,1.1287754273698705,-87.80446437369014,137.6933659730267,23.105822717774878,no_tremor
187,7565482,1.363,-0.3860218486256657,-0.33850039778014773,1.1149490190840705,-91.2054209068926,147.7203899881718,23.16858623125601,no_tremor
188,7565487,1.368,-0.4030393551728323,-0.3422990873339072,1.1003452963380553,-94.44202375754277,158.1193134535666,23.11141667981863,no_tremor
189,7565492,1.373,-0.4199103327052056,-0.34613693118716127,1.084982659724369,-97.52301005641532,168.86523498876988,22.931074155922413,no_tremor
190,7565497,1.378,-0.43654005391008965,-0.34999713932113374,1.0688766517369919,-100.45803401704936,179.9288160112691,22.624439354312084,no_tremor
191,7565502,1.383,-0.45283358059241735,-0.3538620509599081,1.0520398683853511,-103.25752195223615,191.27639178918736,22.18858239052073,no_tremor
192,7565507,1.388,-0.468696171955784,-0.3577130958880501,1.0344819130842435,-105.93251931027059,202.87011962760604,21.620835586948775,no_tremor
193,7565512,1.393,-0.4840337111201019,-0.36153076702009096,1.0162093926724225,-108.49453123963853,214.6681643038372,20.91886925909072,no_tremor
194,7565517,1.398,-0.4987531495500267,-0.365294605711991,0.9972259549755952,-110.95535823770746,226.62492064568394,20.080769460604575,no_tremor
195,7565522,1.403,-0.5127629686801252,-0.368983201090742,0.9775323669660998,-113.32692847983948,238.69127290681809,19.105116585174944,no_tremor
196,7565526,1.407,-0.5259736576653357,-0.37257420446322054,0.9571266322826943,-115.6211284644418,250.814890325492,17.991063675565858,no_tremor
197,7565546,1.427,-0.5382982058434107,-0.3760443596492063,0.9360041466578085,-117.84963364946114,262.9405579413408,16.738413252624,no_tremor
198,7565551,1.432,-0.5496526081390213,-0.37936954986582383,0.914157889648563,-120.02374079789818,275.0105413692753,15.347691441856526,no_tremor
199,7565578,1.459,-0.5599563812157063,-0.3825248615718865,0.8915786509623183,-122.15420379442581,286.96498377077745,13.820218134374294,no_tremor
200,7565583,1.464,-0.5691330876289595,-0.3854846654616719,0.8682552895724652,-124.25107474031181,298.7423327200719,12.158171869727243,no_tremor
201,7565593,1.474,-0.5771108645155866,-0.38822271457874574,0.8441750236913439,-126.3235521713815,310.2797940683548,10.364648078177058,no_tremor
202,7565598,1.479,-0.583822952504221,-0.39071225929980113,0.8193237494663875,-128.37983825933617,321.51380932561153,8.443709285827477,no_tremor
203,7565607,1.488,-0.5892082196505715,-0.39292617871368896,0.7936863859760942,-130.42700683925915,332.38055256387264,6.400425884935949,no_tremor
204,7565612,1.493,-0.5932116744125668,-0.3948371276924883,0.7672472437337114,-132.47088405678375,342.81644242089595,4.240906114217888,no_tremor
205,7565617,1.498,-0.5957849610876633,-0.3964176987264961,0.7399904134856509,-134.51594335753023,352.758664444902,1.972313982973593,no_tremor
206,7565622,1.503,-0.5968868307976529,-0.39764059738636187,0.711900171649885,-136.56521645665748,362.1456987611067,-0.39712599436362567,no_tremor
207,7565632,1.513,-0.5964835810381078,-0.398478830097498,0.6829613983069006,-138.62022182470434,370.9178478535233,-2.8581382171433742,no_tremor
208,7565637,1.518,-0.5945494569802557,-0.3989059027725004,0.6531600032629372,-140.68091209634994,379.0177591336838,-5.400420336675275,no_tremor
209,7565642,1.523,-0.5910670080681669,-0.3988960287438766,0.6224833553845983,-142.74564164039506,386.39093690942383,-8.012683056948301,no_tremor
210,7565647,1.528,-0.5860273939353688,-0.3984243443607144,0.5909207101860917,-144.81115531609737,392.9862383786393,-10.682705691935439,no_tremor
211,7565652,1.533,-0.5794306342220741,-0.39746713054707894,0.5584636305601567,-146.87259918157693,398.75634835831073,-13.397407492881964,no_tremor
212,7565661,1.542,-0.5712857974683264,-0.3960020385581494,0.5251063955979534,-148.92355361545074,403.65822760650127,-16.142934445711436,no_tremor
213,7565666,1.547,-0.5616111248634205,-0.3940083181028391,0.49084639264913205,-150.95608896435712,407.65352978694386,-18.904760896366394,no_tremor
214,7565676,1.557,-0.5504340852342393,-0.3914670459136867,0.45568448812741946,-152.960843436551,410.7089823549244,-21.667804996635084,no_tremor
215,7565703,1.584,-0.5377913582513956,-0.3883613527167814,0.41962537305297526,-154.9271225256593,412.79672691407234,-24.416556582644617,no_tremor
216,7565713,1.594,-0.5237287434265785,-0.3846766463689488,0.3826778799055269,-156.84301877522637,413.8946149139637,-27.13521571561251,no_tremor
217,7565717,1.598,-0.5083009930764196,-0.38040082867776975,0.34485526797830257,-158.6955502024659,413.98645493558604,-29.807839752595925,no_tremor
218,7565732,1.613,-0.49157156804882096,-0.3755245031090361,0.30617547498241393,-160.47081522077787,413.06220825453283,-32.41849650530756,no_tremor
219,7565736,1.617,-0.4736123156594643,-0.3700411702432779,0.2666613330713278,-162.15416147493755,411.1181298833757,-34.95142081840688,no_tremor
220,7565741,1.622,-0.4545030699825509,-0.3639474075160638,0.22634074769886395,-163.73036567220737,408.15685286301573,-37.39117178142858,no_tremor
221,7565746,1.627,-0.4343311753941684,-0.35724302952605314,0.1852468378107478,-165.1838212929841,404.1874141763504,-39.722787802267504,no_tremor
222,7565751,1.632,-0.41319093509026916,-0.34993122507613617,0.14341803585148577,-166.49873100983467,399.22522128023576,-41.931936917529455,no_tremor
223,7565755,1.636,-0.39118298720105876,-0.3420186671631964,0.10089814600708435,-167.65930071608054,393.2919588894578,-44.00505996517279,no_tremor
224,7565760,1.641,-0.36841361210120777,-0.33351559236547357,0.05773635905768745,-168.6499322301677,386.41543630293717,-45.929504546921684,no_tremor
225,7565765,1.646,-0.34499397556606937,-0.3244358464915809,0.013987222228828228,-169.45541197044633,378.62937624366333,-47.69364802017009,no_tremor
226,7565770,1.651,-0.3210393135369729,-0.31479689394006954,-0.030289437461865056,-170.06109316542464,369.97314689584476,-49.28700806061248,no_tremor
227,7565775,1.656,-0.2966680654167796,-0.30461978895230396,-0.07502863764333001,-170.45306945824052,360.4914395695727,-50.700339621039646,no_tremor
228,7565784,1.665,-0.2720009639977788,-0.29392910779405645,-0.120160413748196,-170.61833806520767,350.2338952027509,-51.92571737781992,no_tremor
229,7565789,1.67,-0.24716009129682598,-0.2827528418309769,-0.1656100413470517,-170.54495094675684,339.25468370697513,-52.956603005507105,no_tremor
230,7565794,1.675,-0.22226791069164806,-0.27112225241384985,-0.2112983075276771,-170.2221527381298,327.612040947626,-53.787896853597545,no_tremor
231,7565799,1.68,-0.197446286756724,-0.2590716893933133,-0.25714183049874184,-169.64050446052426,315.3677688815922,-54.41597382020589,no_tremor
232,7565828,1.709,-0.17281550502509943,-0.24663837587533954,-0.30305342583143396,-168.79199228688378,302.586705030547,-54.83870342709588,no_tremor
233,7565832,1.713,-0.148493304498309,-0.2338621624627598,-0.34894251693016626,-167.67012086862738,289.3361680181847,-55.05545429740969,no_tremor
234,7565837,1.718,-0.12459393602008963,-0.22078525468114638,-0.3947155864876285,-166.26999093619114,275.68538629478996,-55.06708341479745,no_tremor
235,7565842,1.723,-0.10122725952111694,-0.20745191755275375,-0.4402766649068166,-164.58836105796928,261.70491733894795,-54.87591069181227,no_tremor
236,7565847,1.728,-0.07849789254672829,-0.1939081613728925,-0.4855278510473466,-162.62369357184437,247.46606453488204,-54.48567949448649,no_tremor
237,7565852,1.733,-0.056504421398721916,-0.18020141269682474,-0.5303698602214009,-160.37618479407706,233.04029863220762,-53.90150386880153,no_tremor
238,7565857,1.738,-0.035338684755454236,-0.16638017441454708,-0.5747025941229801,-157.8477796732995,218.49869029912313,-53.129803308461476,no_tremor
239,7565861,1.742,-0.015085137925399946,-0.15249367862251997,-0.6184257272970554,-155.04217110524579,203.91135984298725,-52.178226000980594,no_tremor
240,7565866,1.747,0.004179695927413029,-0.13859153582438988,-0.661439304818848,-151.96478416723593,189.34694970753552,-51.05556158920367,no_tremor
241,7565871,1.752,0.022387683064290235,-0.12472338381847264,-0.7036443460395366,-148.62274557917868,174.87212485531194,-49.77164458082588,no_tremor
242,7565876,1.757,0.03947944217046618,-0.11093853945824457,-0.7449434495448719,-145.02483875679988,160.55110560126556,-48.33724962272873,no_tremor
243,7565881,1.762,0.05540461187096514,-0.09728565629800509,-0.7852413948443865,-141.18144489721269,146.4452368836172,-46.76397992677926,no_tremor
244,7565890,1.771,0.07012202296604379,-0.08381239095318108,-0.8244457367316873,-137.1044706285714,132.61259735267814,-45.06415018797926,no_tremor
245,7565895,1.776,0.08359977678725267,-0.07056508080951016,-0.8624673886944317,-132.80726286270945,119.107651038061,-43.25066537299029,no_tremor
246,7565900,1.781,0.09581523207416345,-0.057588435507247356,-0.8992211921627239,-128.30451160568555,105.98094372557907,-41.33689677441511,no_tremor
247,7565904,1.785,0.10675490359844467,-0.04492524441003258,-0.9346264687186648,-123.61214159561428,93.27884554010653,-39.33655672168178,no_tremor
248,7565914,1.795,0.11641427646243152,-0.03261610205268212,-0.968607552601436,-118.74719374089956,81.04334059462882,-37.26357331391508,no_tremor
249,7565919,1.8,0.12479754063025592,-0.020699153360075443,-1.0010943008973607,-113.72769742075563,69.31186393673451,-35.131966497112195,no_tremor
250,7565923,1.804,0.13191725086887043,-0.009209860249867254,-1.0320225786891675,-108.57253478246813,58.117185409673354,-32.95572674909152,no_tremor
251,7565950,1.831,0.13779391793298593,0.001819208923373835,-1.0613347161640607,-103.30129822572698,47.48733945258547,-30.748697560334126,no_tremor
252,7565955,1.836,0.1424555375448125,0.012358565763889603,-1.088979934283845,-97.93414230573859,37.44559930761088,-28.524462807650107,no_tremor
253,7565960,1.841,0.1459370644704005,0.022381962891415464,-1.1149147351695905,-92.49163132045669,28.010493610327423,-26.2962400151548,no_tremor
254,7565964,1.845,0.14827983969971678,0.03186652864129828,-1.1391032529367067,-86.99458388163589,19.195862952424452,-24.076780389255568,no_tremor
255,7565969,1.85,0.14953097929698897,0.04079287458518556,-1.1615175604103416,-81.46391581043967,11.010953743053829,-21.87827640574136,no_tremor
256,7565973,1.854,0.14974273382802605,0.049145175269661924,-1.1821379269851873,-75.92048274830421,3.460546546844043,-19.712277621191884,no_tremor
257,7565992,1.873,0.1489718273663584,0.05691121979244924,-1.2009530228522884,-70.38492393186894,-3.4548839903099466,-17.589615280967394,no_tremor
258,7566006,1.887,0.14727878493754346,0.0640824350354591,-1.2179600648761124,-64.87750864136798,-9.738980535749777,-15.520336202923916,no_tremor
259,7566011,1.892,0.14472725690096117,0.07065388053956739,-1.2331648995799638,-59.4179868806126,-15.399288693643005,-13.513646325461039,no_tremor
260,7566016,1.897,0.14138334821787768,0.07662421514518787,-1.2465820190443324,-54.02544586221434,-20.44701977443257,-11.577864211253555,no_tremor
261,7566025,1.906,0.13731495985332529,0.08199563565850475,-1.2582345061120894,-48.71817383749392,-24.896793657347217,-9.7203846859193,no_tremor
262,7566030,1.911,0.1325911487633046,0.08677378796124986,-1.268153906157425,-43.513532726321564,-28.76636474201352,-7.947652664775363,no_tremor
263,7566035,1.916,0.12728151209184246,0.09096765117892994,-1.2763800237748089,-38.42784088016698,-32.07633403397031,-6.265147090897489,no_tremor
264,7566039,1.92,0.12145560040224407,0.09458939576356389,-1.2829606439943344,-33.47626716422401,-34.84985043874147,-4.677374785895719,no_tremor
265,7566044,1.925,0.11518236403340511,0.09765421662905856,-1.2879511789359983,-28.67273738007122,-37.11230433894141,-3.1878739083612153,no_tremor
266,7566049,1.93,0.10852963602215115,0.10018014279185083,-1.2914142421014936,-24.0298538778003,-38.89101649398494,-1.7992266255160023,no_tremor
267,7566074,1.955,0.10156365446128222,0.10218782530473008,-1.2934191537178583,-19.55882903590543,-40.21492523072486,-0.5130805295111905,no_tremor
268,7566079,1.96,0.09434862664811644,0.1037003056140837,-1.2940413816658942,-15.269433124680516,-41.114274785544175,0.6698217324962217,no_tremor
269,7566083,1.964,0.08694633688408591,0.10474276680309658,-1.293361923537718,-11.169956912562638,-41.620307515212076,1.749605200503344,no_tremor
270,7566098,1.979,0.07941579927073361,0.10534227048464302,-1.2914666362739822,-7.267189216435554,-41.76496251922749,2.727218354104062,no_tremor
271,7566114,1.995,0.07181295628291073,0.10552748235696073,-1.2884455206397492,-3.5664094284103527,-41.58058301977963,3.6043825634977757,no_tremor
272,7566118,1.999,0.064190423291514,0.10532838961781973,-1.2843919685121936,-0.07139487110336519,-41.09963464056165,4.383535973835651,no_tremor
273,7566123,2.004,0.0565972785964637,0.10477601354048467,-1.2794019815632287,3.2155573550469474,-40.35443652407885,5.067772597097506,no_tremor
274,7566139,2.02,0.049078897970191125,0.1039021205434296,-1.2735733704048187,6.293594557661548,-39.376907032050035,5.660777415545089,no_tremor
275,7566143,2.024,0.04167683224341753,0.10273893503633512,-1.267004943603789,9.16325937642131,-38.19832558124828,6.166758320093102,no_tremor
276,7566148,2.029,0.03442872610185922,0.10131885720367381,-1.259795696151519,11.82642831286406,-36.84911197352697,6.590375715907559,no_tremor
277,7566166,2.047,0.027368275995449595,0.09967418870383823,-1.2520440069792254,14.286238876023724,-35.358624383032605,6.93667062715637,no_tremor
278,7566171,2.052,0.020525224872093226,0.09783686902708258,-1.2438468549330932,16.547006475788596,-33.75497696681275,7.210992124289267,no_tremor
279,7566196,2.077,0.013925391317498856,0.09583822498139323,-1.2352990622690216,18.614132297177385,-32.06487786754846,7.418924881156185,no_tremor
280,7566200,2.081,0.007590730595684469,0.09370873547489839,-1.226492574210658,20.494003468316617,-30.313488178113516,7.566217645297309,no_tremor
281,7566205,2.086,0.0015394250274249127,0.09147781345012797,-1.217515782460914,22.193886891264697,-28.524302236886946,7.658713372217047,no_tremor
282,7566215,2.096,-0.004213998896033555,0.08917360651216928,-1.2084528997948918,23.721818137881698,-26.719049422462614,7.702281734011336,no_tremor
283,7566220,2.101,-0.009658529297404572,0.0868228174903862,-1.1993833920227779,25.086486824738866,-24.917617420737884,7.702754666499131,no_tremor
284,7566224,2.105,-0.01478650625253284,0.08445054588967152,-1.1903814727253714,26.297119875171106,-23.137996750484394,7.665865568986295,no_tremor
285,7566229,2.11,-0.019593440352588698,0.08208015092682033,-1.1815156652577956,27.363364056661712,-21.396246158344514,7.597192717029579,no_tremor
286,7566234,2.115,-0.02407781515200927,0.07973313661268051,-1.1728484356067077,28.295169150318088,-19.706478331796998,7.502107389746055,no_tremor
287,7566249,2.13,-0.02824087613789913,0.07742905913142806,-1.1644358987847216,29.10267306746134,-18.080865227955428,7.385727148544372,no_tremor
288,7566254,2.135,-0.03208640880723985,0.0751854565831298,-1.1563276005595267,29.796090176980762,-16.52966217479607,7.252874634066954,no_tremor
289,7566269,2.15,-0.035620508369853136,0.073017800991715,-1.1485663754464328,30.385604046588504,-15.06124976736154,7.108042173581337,no_tremor
290,7566273,2.154,-0.038851343514786786,0.07093947233337139,-1.1411882810403706,30.881265731391252,-13.682192453974572,6.9553624134200485,no_tremor
291,7566278,2.159,-0.04178891659385069,0.06896175420532684,-1.134222607924652,31.292898663741852,-12.397312588594298,6.798585112630672,no_tremor
292,7566329,2.21,-0.04444482249346364,0.06709385062735386,-1.1276919635699814,31.630011109075454,-11.20977861950677,6.641060157342421,no_tremor
293,7566334,2.215,-0.04683200838424831,0.06534292334449736,-1.1216124278346058,31.901717054112364,-10.12120599528624,6.485726781857981,no_tremor
294,7566339,2.22,-0.048964536451918776,0.0637141488766346,-1.1159937769074277,32.116666286847924,-9.131769297264988,6.335108912234619,no_tremor
295,7566344,2.225,-0.050857351617067705,0.06221079443587613,-1.110839771816505,32.28298431131981,-8.240324052566315,6.19131648146143,no_tremor
296,7566363,2.244,-0.052526056142378305,0.060834311704087304,-1.1061485069686556,32.408222613157704,-7.444536641850088,6.05605250333677,no_tremor
297,7566368,2.249,-0.053986692904095086,0.059584447328237054,-1.1019128135944702,32.499319654918686,-6.741020689790962,5.930625635145148,no_tremor
298,7566373,2.254,-0.05525553897190508,0.05845936884956318,-1.0981207124381025,32.562572835969505,-6.125478311423845,5.815967905580205,no_tremor
299,7566378,2.259,-0.056348910997411274,0.057455804632234174,-1.0947559095384405,32.603621503949206,-5.592844580217957,5.71265723112506,no_tremor
300,7566383,2.264,-0.057282983753865674,0.05656919619745452,-1.091798328484471,32.627440956121376,-5.137433579645412,5.620944289166723,no_tremor
301,7566397,2.278,-0.05807362299715698,0.05579386120091385,-1.089224672084554,32.63834721897547,-4.7530843942306955,5.540783259682787,no_tremor
302,7566402,2.283,-0.05873623363183955,0.055123165118006856,-1.0870090059636741,32.64001224105969,-4.433305384291925,5.471865891203179,no_tremor
303,7566407,2.288,-0.05928562397227742,0.05454969952537013,-1.0851233561949467,32.63548897522754,-4.171415068801297,5.41365829221342,no_tremor
