sample,t_ms,t_s,ax,ay,az,gx,gy,gz,tremor
0,7012362,0.0,-0.5572473142098912,-0.40868751064112613,-0.7572341818380749,1.4784244456019213,-31.54213364535338,-1.0036025058898796,tremor
1,7012367,0.005,-0.5573845370218148,-0.40839005281378277,-0.7560773792521173,1.1229503496046722,-35.31688374747073,-1.103622660968359,tremor
2,7012372,0.01,-0.5575882397765265,-0.4079723305907069,-0.7543652554834003,0.7300903222818979,-39.14867420759649,-1.242461746111783,tremor
3,7012376,0.014,-0.5578738043751461,-0.40741985621787513,-0.7519824901716499,0.29738508124330315,-43.018498044788196,-1.4227337271896054,tremor
4,7012381,0.019,-0.5582481067405693,-0.40673856897404326,-0.7488952910852237,-0.17759253903560304,-46.906255284973504,-1.6469583477989165,tremor
5,7012406,0.044,-0.5587122096027826,-0.4059459458148754,-0.7451277958391446,-0.6972156041420107,-50.790885087118816,-1.9175369189566116,tremor
6,7012411,0.049,-0.559264935417027,-0.40506221961759964,-0.7407301975623151,-1.2637800019108758,-54.650517311790274,-2.2367276135967686,tremor
7,7012426,0.064,-0.5599052393034765,-0.40410548127667967,-0.7357572796997193,-1.879480436849346,-58.462643277262394,-2.6066204715452397,tremor
8,7012431,0.069,-0.5606332891836602,-0.4030900060408984,-0.7302584152518551,-2.546385686578302,-62.20430514366718,-3.0291123430527143,tremor
9,7012441,0.079,-0.5614507206808806,-0.4020263203242577,-0.7242749375906404,-3.266413334407987,-65.852303024745,-3.505882020928399,tremor
10,7012446,0.084,-0.5623605005432185,-0.40092192112925806,-0.7178410104761919,-4.041304217285109,-69.38341855311711,-4.038365831685859,tremor
11,7012455,0.093,-0.5633666589797041,-0.39978208869556753,-0.7109856508714119,-4.872596852184,-72.77465322493158,-4.6277339739373184,tremor
12,7012460,0.098,-0.5644740130107581,-0.3986105769549322,-0.7037347958909866,-5.7616021242567514,-76.00347942909526,-5.274867907217583,tremor
13,7012465,0.103,-0.5656879249620607,-0.3974101345443742,-0.6961130098077267,-6.709378535297228,-79.04810162846717,-5.980339106970853,tremor
14,7012470,0.108,-0.5670141043713849,-0.39618287419756715,-0.6881447543336001,-7.716708321213519,-81.88772470667007,-6.744389512312302,tremor
15,7012479,0.117,-0.5684584481945697,-0.3949305252105317,-0.6798552696412621,-8.784074753032886,-84.50282602583837,-7.566914002202383,tremor
16,7012484,0.122,-0.5700269109870906,-0.3936546019487289,-0.6712711451672013,-9.91164093870954,-86.87542726106294,-8.447445241383715,tremor
17,7012489,0.127,-0.5717253974314677,-0.3923565143527253,-0.6624206548238549,-11.099230444347436,-88.98936159411403,-9.385141237827318,tremor
18,7012494,0.132,-0.5735596713823717,-0.3910376392346206,-0.6533339163377309,-12.346310055251317,-90.83053137553624,-10.378775946788421,tremor
19,7012498,0.136,-0.5755352774215181,-0.3896993653783048,-0.6440429190914111,-13.651975000602938,-92.38715092063552,-11.426733241521713,tremor
20,7012503,0.141,-0.5776574724145616,-0.38834312123032916,-0.6345814522947615,-15.014936970438663,-93.64996872033734,-12.527004545825353,tremor
21,7012535,0.173,-0.5799311656963748,-0.3869703910327638,-0.6249849560229034,-16.433515258821924,-94.61246306462202,-13.677190386878065,tremor
22,7012540,0.178,-0.5823608673212377,-0.3855827232749585,-0.6152903111878397,-17.905631368874626,-95.27100496348443,-14.874506075520513,tremor
23,7012545,0.183,-0.5849506443395007,-0.3841817340448525,-0.6055355802156724,-19.4288074042165,-95.6249824217369,-16.11579165212808,tremor
24,7012550,0.188,-0.5877040853082991,-0.3827691070269507,-0.595759707505146,-21.00016853402745,-95.67688070732974,-17.397526148075283,tremor
25,7012555,0.193,-0.5906242732002828,-0.3813465913646357,-0.5860021871937204,-22.61644974705609,-95.43231429549796,-18.71584610830091,tremor
26,7012560,0.198,-0.5937137665486795,-0.37991599826219896,-0.5763027050138582,-24.27400700657112,-94.90000758532015,-20.0665682066912,tremor
27,7012565,0.203,-0.5969745881003516,-0.3784791969614181,-0.5667007608262603,-25.96883279450771,-94.09172311613595,-21.44521567063981,tremor
28,7012570,0.208,-0.6004082195048499,-0.37703811052956254,-0.5572352785694699,-27.696575900448217,-93.02213773541308,-22.847048119591346,tremor
29,7012575,0.213,-0.6040155997191118,-0.37559471170428976,-0.5479442107121407,-29.452565178386727,-91.70866891795835,-24.26709431743028,tremor
30,7012580,0.218,-0.6077971239286705,-0.3741510188389047,-0.5388641447128649,-31.231836867213328,-90.17125516327252,-25.700187241043487,tremor
31,7012594,0.232,-0.6117526389534953,-0.37270909177658434,-0.5300299193791814,-33.029164952301834,-88.43209605576314,-27.14100077687615,tremor
32,7012599,0.237,-0.6158814304088285,-0.3712710272649987,-0.5214742592747258,-34.83909393689332,-86.51535908916819,-28.584087275213204,tremor
33,7012609,0.247,-0.6201821964528339,-0.36983895332757394,-0.5132274353499446,-36.6559732972092,-84.44686160562306,-30.02391512632959,tremor
34,7012614,0.252,-0.6246530029462646,-0.36841502187104275,-0.5053169596639452,-38.473992825829676,-82.25373699988114,-31.454905492339247,tremor
35,7012623,0.261,-0.6292912154729565,-0.36700139877208876,-0.4977673213373378,-40.28721804502378,-79.96409450835522,-32.87146736236896,tremor
36,7012628,0.266,-0.6340934051051321,-0.3656002507839967,-0.49059976968529506,-42.08962492361704,-77.60668132976092,-34.26803022479626,tremor
37,7012661,0.299,-0.6390552271798918,-0.3642137288592771,-0.4838321488353912,-43.87513328310496,-75.21055450260286,-35.639073876829656,tremor
38,7012676,0.314,-0.6441712757199566,-0.36284394789692015,-0.4774787860981284,-45.63763853832605,-72.8047679944209,-36.97915519505736,tremor
39,7012680,0.318,-0.6494349202837499,-0.36149296345595266,-0.4715504340571392,-47.371041759296055,-70.41807805206702,-38.282932023756445,tremor
40,7012685,0.323,-0.6548381364058654,-0.3601627465429945,-0.46605426398182725,-49.06927840459894,-68.0786673458446,-39.54518464768824,tremor
41,7012690,0.328,-0.66037134457052,-0.35885515806366924,-0.4609939059724527,-50.726346395215344,-65.81388617062981,-40.76083555798408,tremor
42,7012700,0.338,-0.6660232751152901,-0.3575719248292522,-0.45636952941879766,-52.336334427347,-63.65000719499196,-41.92496836834044,tremor
43,7012709,0.347,-0.6717808772151547,-0.3563146190890989,-0.45217795599557076,-53.89345155210125,-61.611989059475434,-43.032846790595556,tremor
44,7012714,0.352,-0.6776292891129736,-0.35508464342385676,-0.44841279658059846,-55.39205907747109,-59.72324352426134,-44.07993454019241,tremor
45,7012724,0.362,-0.6835518841816712,-0.35388322251669296,-0.44506460321356667,-56.82670576372292,-58.00540088685503,-45.061916919448024,tremor
46,7012733,0.371,-0.6895304034497489,-0.3527114028611275,-0.4421210275766264,-58.192167073981494,-56.47806907982291,-45.97472463018814,tremor
47,7012739,0.377,-0.6955451802097231,-0.3515700609094147,-0.4395669785213588,-59.48348890910767,-55.15858320909119,-46.81456011492216,tremor
48,7012744,0.382,-0.7015754566598287,-0.35045991955962985,-0.4373847728833826,-60.696035823451005,-54.061744220013516,-47.577926436164184,tremor
49,7012749,0.387,-0.7075997866319514,-0.3493815722636932,-0.43555427613849534,-61.82554322440414,-53.199547745246726,-48.26165839113705,tremor
50,7012754,0.392,-0.7135965127088133,-0.34833551344678526,-0.43405303221732894,-62.86817254605295,-52.58090683345434,-48.86295523640665,tremor
51,7012781,0.419,-0.7195443007030435,-0.34732217338811505,-0.43285638481285893,-63.820567892993374,-52.2113750051456,-49.37941407827765,tremor
52,7012786,0.424,-0.7254227097581856,-0.34634195524923944,-0.43193759554185507,-64.67991220967298,-52.09287871552092,-49.80906269050285,tremor
53,7012796,0.434,-0.7312127724654686,-0.3453952715836104,-0.43126796703479253,-65.44398068703293,-52.22347050618214,-50.15039028685858,tremor
54,7012801,0.439,-0.7368975567010858,-0.3444825774661779,-0.43081698103274985,-66.11118892240316,-52.59711551402152,-50.40237465288539,tremor
55,7012805,0.443,-0.7424626797395425,-0.3436043973857718,-0.43055246251329626,-66.68063333465284,-53.203524329479734,-50.564504066766986,tremor
56,7012810,0.448,-0.7478967458260364,-0.3427613432575767,-0.4304407806031378,-67.1521215024495,-54.0280445063114,-50.63679260908129,tremor
57,7012815,0.453,-0.7531916808131303,-0.34195412131622727,-0.4304470956602681,-67.52619040814,-55.05162157964614,-50.619787728648824,tremor
58,7012820,0.458,-0.7583429415085332,-0.3411835262008584,-0.43053565966891183,-67.80411099302133,-56.250838518344615,-50.51456923904042,tremor
59,7012825,0.463,-0.763349582749301,-0.3404504211979519,-0.4306701742694977,-67.98787792324345,-57.598040304529725,-50.32273922538411,tremor
60,7012830,0.468,-0.7682141715713209,-0.3397557043259715,-0.43081420760326183,-68.08018399530548,-59.061547906953564,-50.046402626255656,tremor
61,7012835,0.473,-0.7729425448251713,-0.33910026069148996,-0.43093166790959886,-68.08437914729966,-60.60596337009305,-49.68813852135807,tremor
62,7012839,0.477,-0.7775434138391073,-0.338484902285418,-0.4309873286639697,-68.00441456405426,-62.19256514309555,-49.250962410449475,tremor
63,7012844,0.482,-0.7820278268807449,-0.3379102970849263,-0.4309473971462896,-67.84477285483207,-63.7797901864131,-48.738280019603444,tremor
64,7012849,0.487,-0.7864085068495323,-0.3373768899454472,-0.4307801158102474,-67.61038572981116,-65.32379688101494,-48.153833419726496,tremor
65,7012854,0.492,-0.7906990874798424,-0.33688481827375777,-0.43045638376383516,-67.30654099716769,-66.77910038232635,-47.501640486146094,tremor
66,7012859,0.497,-0.7949132760366929,-0.33643382584073384,-0.42995038410709147,-66.9387810382323,-68.09926985940267,-46.785928959208604,tremor
67,7012864,0.502,-0.7990639738257294,-0.33602317830355777,-0.42924020180912037,-66.51279518639521,-69.2376750853141,-46.011066574076075,tremor
68,7012868,0.506,-0.8031623877088001,-0.3356515840531042,-0.4283084162281031,-66.03430862779436,-70.14826814370548,-45.18148890308485,tremor
69,7012873,0.511,-0.8072171661979406,-0.3353171238809544,-0.4271426522597489,-65.50897054866817,-70.78638464157154,-44.301626685885466,tremor
70,7012878,0.516,-0.8112335926388762,-0.3350171926762335,-0.4257360744108183,-64.94224426883105,-71.10954782169287,-43.37583449992961,tremor
71,7012910,0.548,-0.8152128655849694,-0.33474845592601116,-0.4240878088061002,-64.33930202553783,-71.07825838580011,-42.408322635662884,tremor
72,7012914,0.552,-0.8191514928503414,-0.3345068232254399,-0.42220327923414464,-63.70492691727617,-70.65675270206356,-41.40309397860027,tremor
73,7012919,0.557,-0.8230408211327577,-0.3342874403442561,-0.4200944448293195,-63.043424289721706,-69.8137124459319,-40.363887560575606,tremor
74,7012924,0.562,-0.8268667178092148,-0.3340847007042103,-0.4177799289014687,-62.35854454648452,-68.52290970292934,-39.29413022941116,tremor
75,7012929,0.567,-0.8306094158734332,-0.33389227646228625,-0.4152850307592719,-61.65341900285819,-66.76377315176842,-38.19689761677462,tremor
76,7012934,0.572,-0.8342435273270133,-0.33370316881399503,-0.41264161506252345,-60.93050999725146,-64.52186300289004,-37.07488528378019,tremor
77,7012939,0.577,-0.8377382249098636,-0.3335097766485169,-0.409887876154617,-60.1915760659576,-61.78924468463379,-35.93039061696189,tremor
78,7012943,0.581,-0.8410575870459458,-0.33330398230228275,-0.40706797782418225,-59.43765259673003,-58.56475369500003,-34.76530574853985,tremor
79,7012948,0.586,-0.8441610964134861,-0.3330772528605033,-0.4042315718959984,-58.66904801589791,-54.85414649484335,-33.58112149161106,tremor
80,7012953,0.591,-0.84700427869519,-0.332820755234586,-0.4014332018550183,-57.885355235196315,-50.67013476398631,-32.37894201694157,tremor
81,7012958,0.596,-0.8495394648474203,-0.3325254830834273,-0.3987316002855085,-57.08547778867269,-46.03230273381843,-31.159509756418363,tremor
82,7012963,0.601,-0.8517166576422248,-0.33218239353466694,-0.3961888911997139,-56.26766982798038,-40.96690960602428,-29.92323980132815,tremor
83,7012968,0.606,-0.853484481264456,-0.33178255158594594,-0.39386971029106704,-55.42958891746161,-35.50658122989788,-28.670262872857993,tremor
84,7012973,0.611,-0.8547911913678263,-0.33131728001528044,-0.3918402577410349,-54.568360378531544,-29.689897213871532,-27.40047577790303,tremor
85,7012978,0.616,-0.8555857221901584,-0.33077831259438323,-0.3901672994128218,-53.680651773106256,-23.56088147394759,-26.113598125454132,tremor
86,7012983,0.621,-0.8558187470788574,-0.33015794837094836,-0.3889171330732494,-52.76275598351334,-17.168405861194415,-24.80923396779857,tremor
87,7012988,0.626,-0.85544372905393,-0.32944920475895695,-0.3881545367138744,-51.810681237204385,-10.565517951639995,-23.48693694679757,tremor
88,7012993,0.631,-0.8544179388000929,-0.3286459671451035,-0.38794171613381195,-50.82024633589758,-3.808705312482183,-22.14627746882922,tremor
89,7012998,0.636,-0.8527034186911832,-0.32774313268143784,-0.3883372687536447,-49.787179278970115,3.042890431620396,-20.786910403236,tremor
90,7013002,0.64,-0.8502678730704867,-0.32673674588800206,-0.3893951802116241,-48.70721741916366,9.928295617234532,-19.40864179903755,tremor
91,7013033,0.671,-0.847085467001166,-0.3256241236357077,-0.391163869709054,-47.57620725611938,16.785547943551094,-18.011493142559917,tremor
92,7013038,0.676,-0.8431375180122183,-0.3244039670252892,-0.3936852993690142,-46.39020196660141,23.55254616872787,-16.595761732470514,tremor
93,7013043,0.681,-0.8384130679181037,-0.32307645764040266,-0.39699416206795457,-45.14555480351935,30.167890874279458,-15.162075828839068,tremor
94,7013048,0.686,-0.8329093244687024,-0.32164333566276837,-0.4011171612634661,-43.83900658396704,36.57170125881229,-13.711443343596994,tremor
95,7013053,0.691,-0.8266319652673239,-0.3201079574299583,-0.4060723952102963,-42.46776563264656,42.70639348779624,-12.245292983365571,tremor
96,7013057,0.695,-0.8195952989946217,-0.3184753302166039,-0.41186885656793637,-41.02957873754783,48.51740703996026,-10.765506925645395,tremor
97,7013062,0.7,-0.8118222814726566,-0.3167521223351145,-0.4185060567211831,-39.52279188843399,53.953866681631574,-9.274444293830909,tremor
98,7013067,0.705,-0.8033443865177362,-0.31494664707796594,-0.4259737821556654,-37.94639978951466,58.969169117589544,-7.774954885992665,tremor
99,7013072,0.71,-0.79420133390366,-0.3130688195492942,-0.43425198797800074,-36.30008335870476,63.5214849981912,-6.270382802513543,tremor
100,7013077,0.715,-0.7844406791317562,-0.3111300860424271,-0.4433108311968639,-34.58423464614887,67.57416880991249,-4.764559806544058,tremor
101,7013082,0.72,-0.7741172721162015,-0.3091433262892587,-0.4531108437604163,-32.79996882623295,71.09607123698338,-3.2617884380340776,tremor
102,7013087,0.725,-0.763292594362514,-0.3071227296086229,-0.4636032426622694,-30.94912314425389,74.0617508394745,-1.7668150889359986,tremor
103,7013092,0.73,-0.752033986743335,-0.3050836466824271,-0.4747303717695962,-29.034242937528152,76.45158431565262,-0.28479344057039524,tremor
104,7013097,0.735,-0.7404137825360348,-0.30304241935764514,-0.48642626747680573,-27.05855510726931,78.2517771531845,1.1787611271510245,tremor
105,7013101,0.739,-0.7285083629349696,-0.30101619147734127,-0.4986173379203027,-25.025929694479682,79.45427905980942,2.618025314796249,tremor
106,7013111,0.749,-0.7163971547128742,-0.29902270425594907,-0.5112231433585414,-22.940830507398715,80.05661112773971,4.026928780533904,tremor
107,7013121,0.759,-0.7041615919696982,-0.29708008011198117,-0.5241572634549755,-20.808256054042623,80.06161414965052,5.399220767178604,tremor
108,7013126,0.764,-0.6918840658134944,-0.2952065991456611,-0.5373282356099942,-18.63367234530644,79.47712976941104,6.728540893587316,tremor
109,7013154,0.792,-0.6796468871516379,-0.29342047260225385,-0.5506405471855025,-16.422939442842136,78.31562808222245,8.008492348497867,tremor
110,7013158,0.796,-0.6675312882725952,-0.2917396177065812,-0.5639956634956593,-14.182233908834922,76.59379672279628,9.232715650102346,tremor
111,7013163,0.801,-0.655616488300714,-0.29018143820766695,-0.577293072895476,-11.917969527395341,74.33210720191036,10.39496118601407,tremor
112,7013168,0.806,-0.6439788457002391,-0.2887626148490375,-0.5904313303295609,-9.636718754422072,71.55437411568028,11.48915892592381,tremor
113,7013173,0.811,-0.6326911177439606,-0.2874989097849662,-0.603309081433701,-7.345137281849928,68.28732184931786,12.509483975813032,tremor
114,7013177,0.815,-0.6218218424323567,-0.28640498869193637,-0.6158260507398641,-5.04989388464659,64.56017170630494,13.4504169703118,tremor
115,7013182,0.82,-0.6114348531139463,-0.28549426396960914,-0.6278839796322134,-2.7576073937623606,60.40426026873515,14.306798632388755,tremor
116,7013187,0.825,-0.601588930419021,-0.2847787619781035,-0.6393875022881376,-0.4747922419232699,55.8526974258167,15.073878142009102,tremor
117,7013196,0.834,-0.5923375904206977,-0.2842690167113021,-0.6502449507556116,1.7921864145983548,50.940070000361885,15.747355242058623,tremor
118,7013202,0.84,-0.583729002452729,-0.2839739916549084,-0.6603690834119658,4.037147468638039,45.7021943329061,16.323416268792077,tremor
119,7013207,0.845,-0.5758060249766387,-0.2839010308242975,-0.66967773415921,6.254118483425752,40.175918636398265,16.798764516364376,tremor
120,7013211,0.849,-0.5686063435168623,-0.28405583913224475,-0.6780943826660187,8.43735058499576,34.398973510426195,17.17064551647216,tremor
121,7013216,0.854,-0.5621626911577644,-0.28444249132767413,-0.685548648595572,10.58132447029043,28.40986678981142,17.43686792529245,tremor
122,7013221,0.859,-0.5565031295561871,-0.2850634678173855,-0.6919767149165038,12.680748724335238,22.247816950020844,17.59582076259617,tremor
123,7013226,0.864,-0.5516513669502323,-0.28591971478539874,-0.6973216869826134,14.730551900631555,15.952717621841911,17.646487752006035,tremor
124,7013236,0.874,-0.5476270892785489,-0.2870107252107034,-0.7015338950390559,16.725869989879435,9.565124392230983,17.58845947686308,tremor
125,7013241,0.879,-0.5444462812657851,-0.28833463670438736,-0.7045711481635326,18.66203098887673,3.1262540120224696,17.42194399816975,tremor
126,7013251,0.889,-0.5421215161511349,-0.2898883415952137,-0.7063989473995604,20.534538292785047,-3.3220145560139076,17.1477764787201,tremor
127,7013277,0.915,-0.5406621955869303,-0.29166760444318096,-0.7069906650197783,22.3390545820046,-9.737148066767674,16.767428216439704,tremor
128,7013282,0.92,-0.5400747250118814,-0.2936671821921097,-0.7063276955371671,24.071387773353813,-16.075986473782205,16.283015308230592,tremor
129,7013287,0.925,-0.5403626143040506,-0.2958809424848493,-0.7043995823917097,25.727480462767474,-22.294799755451557,15.69730694920615,tremor
130,7013292,0.93,-0.5415264984178815,-0.2983019762086486,-0.7012041223770558,27.303404103304743,-28.34938256016925,15.01373313539338,tremor
131,7013297,0.935,-0.543564077634717,-0.30092270102957425,-0.6967474480469877,28.795358936161502,-34.1951933549518,14.23639129982416,tremor
132,7013302,0.94,-0.5464699816950618,-0.3037349534282245,-0.6910440867076726,30.199680429024284,-39.787542658307295,13.370051191699739,tremor
133,7013307,0.945,-0.5502355662390046,-0.306730067503208,-0.6841169932280816,31.512852687094025,-45.081832692387245,12.420157121840454,tremor
134,7013312,0.95,-0.5548486535625705,-0.30989893953143205,-0.6759975527989154,32.731528998970376,-50.03384852556107,11.39282655583575,tremor
135,7013317,0.955,-0.560293232656629,-0.3132320779523535,-0.6667255489276177,33.852559372075405,-54.60009856937586,10.294843945235327,tremor
136,7013321,0.959,-0.5665491358032505,-0.316719639073626,-0.6563490913549588,34.873024610499506,-58.73820019912016,9.133648648304204,tremor
137,7013326,0.964,-0.5735917106395494,-0.32035144937634846,-0.6449244981976098,35.79027620288491,-62.40730433224525,7.917315803529676,tremor
138,7013331,0.969,-0.5813915075413996,-0.32411701582422986,-0.6325161264435192,36.60198102875221,-65.56855106023801,6.65452907852494,tremor
139,7013336,0.974,-0.5899140024104078,-0.3280055260438692,-0.6191961449399643,37.30616966505607,-68.18554691553759,5.354544322498562,tremor
140,7013341,0.979,-0.5991193744519299,-0.3320058406364154,-0.6050442442116382,37.90128688425184,-70.22485309178258,4.027143301978566,tremor
141,7013346,0.984,-0.6089623573090609,-0.3361064802022022,-0.5901472778290544,38.38624278222447,-71.65647294917589,2.6825768987444705,tremor
142,7013355,0.993,-0.6193921799940639,-0.34029560990778634,-0.5745988306252156,38.76046286005196,-72.45432645604849,1.3314973984767058,tremor
143,7013360,0.998,-0.6303526114893548,-0.34456102459223154,-0.5584987098508984,39.02393531134801,-72.5966988832748,-0.015120201449858452,tremor
144,7013365,1.003,-0.6417821197481249,-0.34889013748458325,-0.5419523563997509,39.17725374588762,-72.06665113545344,-1.3460675926303727,tremor
145,7013370,1.008,-0.6536141521947372,-0.3532699755744284,-0.525070174569395,39.22165362198877,-70.85237962035869,-2.6500026177158684,tremor
146,7013375,1.013,-0.6657775408048393,-0.3576871845328334,-0.5079667805004408,39.1590407702371,-68.94751453227468,-3.9155577575788487,tremor
147,7013402,1.04,-0.6781970305501869,-0.3621280458185872,-0.4907601714801268,38.9920105646322,-66.35134681347934,-5.131456216497576,tremor
148,7013407,1.045,-0.6907939255687,-0.3665785082266366,-0.47357082069620887,38.72385652508172,-63.068975806616564,-6.286633799580928,tremor
149,7013412,1.05,-0.7034868430625395,-0.37102423564668,-0.4565207046900324,38.35856741261012,-59.11137168158152,-7.3703644348165955,tremor
150,7013416,1.054,-0.7161925608795792,-0.37545067220785594,-0.43973227350916144,37.90081220337469,-54.495349081409145,-8.372386923956107,tremor
151,7013421,1.059,-0.728826941220789,-0.3798431253048222,-0.4233273761787133,37.355912690806115,-49.243451022526614,-9.283030338482718,tremor
152,7013426,1.064,-0.7413059100590988,-0.38418686625489373,-0.4074261564049489,36.72980384956162,-43.38374480834941,-10.09333540632807,tremor
153,7013431,1.069,-0.7535464696622363,-0.38846724755524487,-0.392145935270533,36.02898248308622,-36.94953444932406,-10.795169240948955,tremor
154,7013436,1.074,-0.7654677200391494,-0.39266983492418095,-0.37760009900727476,35.26044505771301,-29.978996686247438,-11.381330831888546,tremor
155,7013441,1.079,-0.7769918641393131,-0.3967805515489404,-0.3638970106945553,34.43161599309982,-22.51475003614633,-11.84564484239664,tremor
156,7013445,1.083,-0.7880451712129919,-0.4007858312489236,-0.351138964899133,33.55026802178158,-14.603368192774527,-12.18304144700909,tremor
157,7013456,1.094,-0.7985588728986096,-0.4046727766210648,-0.33942120382359264,32.624436537262206,-6.294850539815625,-12.389620193029815,tremor
158,7013460,1.098,-0.808469967382151,-0.4084293176906734,-0.3288310124562766,31.662330104905212,2.357936564043274,-12.462696191293885,tremor
159,7013470,1.108,-0.8177219084656725,-0.41204436618435303,-0.31944690852560637,30.672239489189856,11.299833727446638,-12.400827343461167,tremor
160,7013475,1.113,-0.8262651587367958,-0.4155079603215372,-0.3113379408037713,29.662447620194666,20.473963953602244,-12.203821797991802,tremor
161,7013480,1.118,-0.8340575894113739,-0.4188113950422291,-0.304563106576581,28.641142847474377,29.822296685515756,-11.872725376434879,tremor
162,7013485,1.123,-0.8410647139262798,-0.42194733289568137,-0.2991708960445608,27.616337598932045,39.286189055515,-11.409789287491863,tremor
163,7013489,1.127,-0.8472597479628003,-0.42490989142912655,-0.29519896822029396,26.5957942000184,48.80689484756796,-10.818419008780314,tremor
164,7013494,1.132,-0.8526234951188045,-0.4276947038254281,-0.29267395971015187,25.586959165608864,58.326033918773916,-10.10310573908816,tremor
165,7013499,1.137,-0.8571440646419469,-0.4302989506990563,-0.29161142475449764,24.596906805053155,67.7860172301026,-9.26934229319178,tremor
166,7013532,1.17,-0.8608164351273647,-0.4327213622989239,-0.29201590214322176,23.632292515772818,77.1304250914647,-8.323525717059095,tremor
167,7013551,1.189,-0.8636418853982096,-0.4349621917813529,-0.2938811021766193,22.69931570799077,86.30433862959475,-7.27284923167563,tremor
168,7013561,1.199,-0.8656273202307564,-0.43702316156166837,-0.29719020473639396,21.803691932668414,95.25462669217926,-6.125186350462284,tremor
169,7013566,1.204,-0.8667845232637527,-0.4389073858580627,-0.30191625779273623,20.950633507223255,103.93019221710739,-4.888970133998494,tremor
170,7013570,1.208,-0.8671293716099417,-0.44061927328044104,-0.3080226643198397,20.144837757294084,112.28218338178601,-3.5730705306115462,tremor
171,7013575,1.213,-0.8666810462311645,-0.4421644136756816,-0.3154637446286898,19.390481892180553,120.26417560566416,-2.1866726119898545,tremor
172,7013580,1.218,-0.8654612695429157,-0.44354945350394215,-0.32418536054175795,18.69122346828436,127.83233082047462,-0.7391582818375675,tremor
173,7013585,1.223,-0.8634935977286117,-0.44478196389884284,-0.3341255876114967,18.050205345940032,134.94554045931375,0.7600062526597168,tremor
174,7013590,1.228,-0.8608027905148146,-0.4458703053398958,-0.3452154217077599,17.470064009388256,141.56555839864708,2.3013752798286884,tremor
175,7013594,1.232,-0.8574142761238289,-0.44682349258445153,-0.3573795067594961,16.952940108241666,147.65712961953807,3.875619032253114,tremor
176,7013599,1.237,-0.853353724045441,-0.447651063189297,-0.37053687122931667,16.500490104265346,153.18811962839087,5.4736085259308425,tremor
177,7013604,1.242,-0.8486467333040341,-0.4483629526032703,-0.3846016620231351,16.113897978051934,158.12964869830714,7.086488902449987,tremor
178,7013619,1.257,-0.843318639112993,-0.4489693784249412,-0.3994838659866005,15.793886068386968,162.45623377721208,8.70574076802927,tremor
179,7013624,1.262,-0.8373944362318588,-0.4494807359767639,-0.41509001090570274,15.540724280583204,166.14593947762586,10.32322941312969,tremor
180,7013656,1.294,-0.8308988129839584,-0.4499075068235914,-0.43132383998493645,15.3542371053228,169.18053793485225,11.931242188972258,tremor
181,7013661,1.299,-0.8238562857863259,-0.45026018123483574,-0.4480869560547392,15.233808131909566,171.5456755410429,13.5225146967904,tremor
182,7013666,1.304,-0.8162914202904654,-0.45054919485634704,-0.46527943411390904,15.178382010651262,173.2310427501232,15.09024678557122,tremor
183,7013671,1.309,-0.8082291220112162,-0.45078487906424564,-0.4828004030149092,15.186464104863852,174.230541493001,16.62810962514776,tremor
184,7013675,1.313,-0.7996949768247227,-0.450977423695912,-0.500548598914261,15.256118358260915,174.5424434185913,18.130245306165964,tremor
185,7013680,1.318,-0.7907156200622096,-0.45113685017036753,-0.51842289439059,15.384964173184983,174.16953125961408,19.59126051841537,tremor
186,7013685,1.323,-0.7813191121338747,-0.451272992471748,-0.5363228078563926,15.570173333606279,173.11921510728888,21.006215887277616,tremor
187,7013690,1.328,-0.7715352986567678,-0.45139548309643923,-0.5541489981137787,15.808468196548112,171.40361525149163,22.370612515486165,tremor
188,7013695,1.333,-0.7613961338943241,-0.4515137408608258,-0.5718037487141114,16.096122498470844,169.03960351126508,23.680377188013292,tremor
189,7013700,1.338,-0.7509359479079218,-0.45163695743102744,-0.5891914462627628,16.42896616396723,166.0487956572215,24.931847552457395,tremor
190,7013705,1.343,-0.7401916401364665,-0.45177407956493304,-0.6062190560442752,16.80239545502325,162.4574885961201,26.121758388852637,tremor
191,7013710,1.348,-0.7292027851154482,-0.4519337843437358,-0.6227965974051863,17.211389662094636,158.29653739043363,27.247229840544563,tremor
192,7013715,1.353,-0.7180116396613736,-0.45212444510429645,-0.63883762028877,17.65053532318592,153.6011688379639,28.305758207428894,tremor
193,7013719,1.357,-0.706663044990218,-0.45235408634982915,-0.6542596832219976,18.114058676937493,148.41073015459443,29.295209623780195,tremor
194,7013729,1.367,-0.6952042217783755,-0.45263032659469704,-0.6689848319451821,18.595866724402285,142.76837321501566,30.213816673205944,tremor
195,7013734,1.372,-0.6836844609304682,-0.45296030886411864,-0.6829400767631858,19.089596907930478,136.72067674907944,31.060177746201887,tremor
196,7013738,1.376,-0.672154717551698,-0.4533506193897749,-0.6960578655795123,19.588675032820426,130.3172108056962,31.833258729615345,tremor
197,7013743,1.381,-0.6606671200473777,-0.4538071958812075,-0.7082765484337852,20.086380676060212,123.61004962226339,32.532396436679676,tremor
198,7013748,1.386,-0.6492744101022748,-0.4543352275733083,-0.7195408281761265,20.575918961326046,116.65324072065198,33.15730304214295,tremor
199,7013780,1.418,-0.6380293322969323,-0.4549390500174002,-0.7298021906635063,21.05049724331646,109.50223954428257,33.708070677569275,tremor
200,7013785,1.423,-0.6269839941336157,-0.4556220382588024,-0.7390193065768389,21.503404957007504,102.21332019336027,34.18517526805764,tremor
201,7013790,1.428,-0.6161892181383306,-0.45638650256890795,-0.7471583957469498,21.928094684084034,94.84297368833484,34.589478662962144,tremor
202,7013795,1.433,-0.6056939073770063,-0.45723359119490536,-0.7541935439637643,22.31826241071276,87.44730554388809,34.92222814367077,tremor
203,7013800,1.438,-0.5955444441912868,-0.45816320458883175,-0.7601069618766102,22.66792501086249,80.08144420879894,35.18505248484114,tremor
204,7013804,1.442,-0.5857841394349923,-0.4591739252701691,-0.7648891759260305,22.971493154906305,72.79897123408306,35.37995388753923,tremor
205,7013809,1.447,-0.5764527463337764,-0.4602629669149739,-0.7685391422790775,23.22383806188184,65.6513830690028,35.50929527121855,tremor
206,7013814,1.452,-0.5675860496632624,-0.4614261455301509,-0.7710642763681235,23.420350748812,58.687593294656295,35.57578258948937,tremor
207,7013819,1.457,-0.5592155375212624,-0.4626578747408258,-0.7724803927208217,23.556992668060587,51.95348294431491,35.58244201329411,tremor
208,7013824,1.462,-0.5513681597305787,-0.46395118635341,-0.7728115521765929,23.63033686113271,45.491505339509445,35.53259199983411,tremor
209,7013834,1.472,-0.5440661739459035,-0.4652977765032004,-0.7720898161764377,23.637598994578685,39.340350587494214,35.42981043383863,tremor
210,7013838,1.476,-0.5373270778961285,-0.4666880768872821,-0.7703549104501463,23.576657880870716,33.534673530283236,35.27789718862608,tremor
211,7013843,1.481,-0.531163623884536,-0.46811134984671415,-0.7676538029608133,23.446065323673967,28.10488749977029,35.08083260821641,tremor
212,7013848,1.486,-0.5255839096855996,-0.4695558054159052,-0.7640402032470565,23.245045361595107,23.077024717314742,34.84273255940031,tremor
213,7013853,1.491,-0.5205915382936305,-0.47100873791309755,-0.759573992196112,22.973483217110857,18.472662592692558,34.567800844847284,tremor
214,7013858,1.496,-0.5161858375555193,-0.4724566792047313,-0.7543205927103178,22.631904490018897,14.308913551837252,34.26027990476614,tremor
215,7013862,1.5,-0.5123621295093683,-0.4738855654300643,-0.7483502926839438,22.22144537086504,10.59847438626622,33.92440086318295,tremor
216,7013867,1.505,-0.5091120382072407,-0.4752809137093593,-0.7417375322186702,21.743814892868325,7.349729502251238,33.5643340910694,tremor
217,7013900,1.538,-0.5064238238929331,-0.4766280051688544,-0.7345601671261819,21.201250492047098,4.566900901210998,33.18414155503683,tremor
218,7013905,1.543,-0.5042827306457696,-0.47791207049255363,-0.7268987205549522,20.596468394540686,2.250236349614953,32.78773228229001,tremor
219,7013910,1.548,-0.5026713340919674,-0.479118474157456,-0.7188356340939314,19.932610563085195,0.3962262134997073,32.37882226946109,tremor
220,7013915,1.553,-0.50156987574331,-0.4802328935398253,-0.7104545289983172,19.213190056276304,-1.0021608847470798,31.960900055858506,tremor
221,7013924,1.562,-0.500956571204211,-0.4812414892164317,-0.7018394872906569,18.44203664203537,-1.9552329405850006,31.537198954664444,tremor
222,7013929,1.567,-0.5008078810523078,-0.4821310630429649,-0.6930743614452249,17.623244359455388,-2.4763281513389552,31.11067661661308,tremor
223,7013934,1.572,-0.501098735641408,-0.48288920097944255,-0.6842421201907198,16.761122472295995,-2.5815738016200855,30.684002241758584,tremor
224,7013939,1.577,-0.5018027082674026,-0.48350439814969176,-0.6754242366868201,15.860150938986793,-2.2896552765617537,30.2595513994631,tremor
225,7013944,1.582,-0.5028921348738162,-0.4839661642620483,-0.6667001239634518,14.92494116727399,-1.621598226777186,29.839408088778832,tremor
226,7013949,1.587,-0.5043381825042365,-0.48426510826327934,-0.6581466210812366,13.960202451104513,-0.6005651569996536,29.425373382580663,tremor
227,7013954,1.592,-0.5061108727497199,-0.48439300191600276,-0.649837532007769,12.970714123413044,0.7483339253908732,29.01897975506478,tremor
228,7013964,1.602,-0.5081790701902371,-0.4843428228391935,-0.6418432177427487,11.961303116301167,2.3982186340129314,28.621509997463825,tremor
229,7013969,1.607,-0.5105104489996727,-0.48410877838208966,-0.6342302408055401,10.93682631200785,4.320606182272747,28.234019486118545,tremor
230,7013973,1.611,-0.5130714532126577,-0.4836863124590906,-0.6270610598680206,9.90215680810823,6.485574269928204,27.857360488632242,tremor
231,7013978,1.616,-0.5158272674233405,-0.4830720981003016,-0.6203937711287328,8.86217302417942,8.861923549139336,27.49220718605476,tremor
232,7013983,1.621,-0.5187418147648426,-0.48226401891881054,-0.6142818920415675,7.821749455404292,11.417344574004773,27.139080153052383,tremor
233,7013988,1.626,-0.5217777978811333,-0.4812611429269632,-0.60877418228983,6.785747832056102,14.118594003409973,26.798369164519247,tremor
234,7013992,1.63,-0.5248967963370867,-0.4800636921341593,-0.6039144964784383,5.759007467091846,16.931684377915193,26.470353370961405,tremor
235,7013998,1.636,-0.5280594306741897,-0.4786730111293629,-0.5997416629302671,4.7463336620201435,19.822091071623298,26.15521809165312,tremor
236,7014025,1.663,-0.5312255993084801,-0.47709153740950605,-0.5962893832284423,3.752483189953836,22.75497905896346,25.853067702274032,tremor
237,7014030,1.668,-0.5343547899394081,-0.47532277559361297,-0.5935861477420696,2.7821460784151935,25.695450965346744,25.56393433220735,tremor
238,7014035,1.673,-0.5374064624404439,-0.4733712769142087,-0.591655163290124,1.8399231624743415,28.60881653869429,25.287782324564077,tremor
239,7014040,1.678,-0.5403404957623805,-0.4712426245724613,-0.5905142902943465,0.9302991555090996,31.4608822576547,25.024508636864386,tremor
240,7014045,1.683,-0.5431176875927377,-0.4689434247552752,-0.5901759881711296,0.057611271463610364,34.21825836637847,24.773939562849517,tremor
241,7014050,1.688,-0.5457002925996578,-0.46648130239857344,-0.5906472692076505,-0.7739862880868017,36.84867927313197,24.535824332661676,tremor
242,7014055,1.693,-0.5480525830701236,-0.46386490017407905,-0.5919296626389678,-1.560561407144124,39.321332031976844,24.309826298415462,tremor
243,7014060,1.698,-0.5501414145525491,-0.46110387869204694,-0.594019191981263,-2.2984458749666667,41.60718659386773,24.095512531383093,tremor
244,7014065,1.703,-0.5519367786407264,-0.45820891555509896,-0.5969063697993933,-2.9842789263618617,43.67932071803317,23.892342739881624,tremor
245,7014070,1.708,-0.5534123252081237,-0.4551917006675711,-0.6005762149403018,-3.615051298693054,45.51323192887221,23.699658458515657,tremor
246,7014075,1.713,-0.5545458371456755,-0.4520649250945199,-0.605008297815112,-4.188148467728503,47.087128722808174,23.51667345685211,tremor
247,7014079,1.717,-0.5553196419096614,-0.44884226076613715,-0.6101768195437843,-4.701391643944993,48.382193377526306,23.34246626792131,tremor
248,7014084,1.722,-0.555720945899405,-0.44553832842808166,-0.6160507306785593,-5.153075089167036,49.38280917267556,23.175975645161927,tremor
249,7014089,1.727,-0.5557420798202144,-0.4421686514389091,-0.6225938947962613,-5.541998351715098,50.07674556740507,23.01599962444459,tremor
250,7014094,1.732,-0.5553806457129962,-0.43874959330724184,-0.6297653015066685,-5.867492115912406,50.45529586327282,22.861198702611553,tremor
251,7014099,1.737,-0.5546395592071705,-0.43529827724010145,-0.6375193323913827,-6.129436517226613,50.51336307229832,22.71010345453059,tremor
252,7014104,1.742,-0.5535269837162842,-0.4318324864369645,-0.6458060821054368,-6.328270983361485,50.249491064498486,22.56112670711565,tremor
253,7014108,1.746,-0.5520561566627885,-0.4283705444084261,-0.6545717353911135,-6.464994915809207,49.66583953974887,22.412580182338537,tremor
254,7014113,1.751,-0.5502451112903967,-0.4249311752200904,-0.6637589991225195,-6.541158813332739,48.76810290750133,22.2626953225409,tremor
255,7014118,1.756,-0.5481163010881224,-0.4215333442564298,-0.6733075867742727,-6.558845744954677,47.56537471721349,22.109647826977202,tremor
256,7014123,1.761,-0.5456961371893136,-0.4181960808581551,-0.6831547509435448,-6.520643393201135,46.06996081612087,21.95158526052671,tremor
257,7014152,1.79,-0.5430144521905348,-0.4149382849967554,-0.6932358578116994,-6.429607198644959,44.29714587370158,21.786656945439287,tremor
258,7014156,1.794,-0.5401039064971954,-0.41177852098431394,-0.7034849957858944,-6.2892154338629895,42.264919242697324,21.613045221679418,tremor
259,7014161,1.799,-0.5369993553237052,-0.4087348020222265,-0.7138356091204211,-6.103317303455006,39.993667219955924,21.42899707648017,tremor
260,7014166,1.804,-0.5337371955994802,-0.40582437008861777,-0.7242211462161928,-5.876075385964642,37.50583949253507,21.23285511802654,tremor
261,7014171,1.809,-0.5303547120851103,-0.40306347617054217,-0.7345757116432814,-5.611903885089287,34.82559782720982,21.023086909615213,tremor
262,7014176,1.814,-0.5268894410070989,-0.40046716611906225,-0.7448347107520792,-5.315404234816552,31.978454926697914,20.798311778340427,tremor
263,7014180,1.818,-0.5233785676726346,-0.3980490774432924,-0.7549354759777286,-4.991299611281318,28.99091095074872,20.557324346577957,tremor
264,7014185,1.823,-0.5198583720855374,-0.3958212521875971,-0.7648178645123974,-4.6443698534896,25.890094587832422,20.299114189848115,tremor
265,7014190,1.828,-0.5163637337798107,-0.3937939706810801,-0.7744248178438453,-4.279388195526927,22.703414822292416,20.02288119166664,tremor
266,7014195,1.833,-0.5129277041002182,-0.3919756104334551,-0.7837028746788257,-3.90106107287842,19.458228709089475,19.728046336938878,tremor
267,7014200,1.838,-0.5095811511371314,-0.3903725337988637,-0.7926026299404664,-3.5139720931585745,16.181529577629806,19.414257852750108,tremor
268,7014204,1.842,-0.5063524795865179,-0.38898900726459085,-0.8010791338102742,-3.12253106548826,12.89965917207829,19.081392762928918,tremor
269,7014209,1.847,-0.5032674250531005,-0.3878271543738288,-0.809092226142289,-2.7309287716493094,9.638046331359975,18.72955406576084,tremor
270,7014214,1.852,-0.5003489198236055,-0.38688694339142415,-0.8166068029764814,-2.3430979447017504,6.420973949978067,18.359063867934246,tremor
271,7014219,1.857,-0.4976170249721763,-0.38616620989985456,-0.8235930132893419,-1.962680706696211,3.2713751725135043,17.970452906835266,tremor
272,7014224,1.862,-0.49508892187668263,-0.38566071359981846,-0.8300263855098705,-1.5930025176744262,0.21065908855867177,17.56444696312147,tremor
273,7014229,1.867,-0.4927789548696889,-0.3853642277150678,-0.8358878846652186,-1.2370525144166604,-2.7414343711172298,17.141950704759225,tremor
274,7014234,1.872,-0.4906987158598258,-0.38526865859282694,-0.8411639022669917,-0.8974699773876379,-5.566951079072768,16.704029515184132,tremor
275,7014239,1.877,-0.48885716136862556,-0.3853641923772813,-0.8458461821734601,-0.5765365611015559,-8.249811966143115,16.25188984721599,tremor
276,7014243,1.881,-0.48726075255337814,-0.38563946504103996,-0.8499316866378269,-0.2761738550473041,-10.775876182657306,15.786858616378932,tremor
277,7014248,1.886,-0.4859136094254486,-0.38608175161042363,-0.8534224075602191,0.002054195214667858,-13.132979599967697,15.31036210708845,tremor
278,7014279,1.917,-0.48481767158898165,-0.3866771701283002,-0.8563251285910589,0.2569344898621919,-15.310950151983542,14.823904816392172,tremor
279,7014284,1.922,-0.4839728593330251,-0.38741089576693455,-0.8586511441810183,0.48759407679260613,-17.30160152874774,14.329048605030776,tremor
280,7014288,1.926,-0.4833772306626328,-0.3882673805298035,-0.8604159419353621,0.6934860152301026,-19.098706720441076,13.827392466453999,tremor
281,7014298,1.936,-0.48302713163991073,-0.38923057415515105,-0.8616388547099514,0.8743722474171111,-20.6979529036786,13.3205531639373,tremor
282,7014303,1.941,-0.48291733900039485,-0.39028414213299895,-0.8623426887972796,1.0303039188734113,-22.09687918767111,12.810146929115628,tremor
283,7014308,1.946,-0.4830411952530143,-0.3914116771359214,-0.8625533343275691,1.1615995906360317,-23.29479879952281,12.297772368786045,tremor
284,7014312,1.95,-0.4833907373009011,-0.3925969006014152,-0.8622993636986053,1.2688217913947386,-24.29270737087895,11.784994695458856,tremor
285,7014317,1.955,-0.48395682005257845,-0.3938238516564988,-0.8616116234924471,1.352752355930538,-25.09317907278171,11.273331378744805,tremor
286,7014322,1.96,-0.48472923659045536,-0.3950770610232491,-0.860522824968346,1.4143669855933774,-25.700252417462398,10.764239300277778,tremor
287,7014327,1.965,-0.4856968363061255,-0.3963417079792802,-0.8590671378561621,1.4548094472257262,-26.11930759776725,10.259103475777259,tremor
288,7014332,1.97,-0.48684764208066106,-0.3976037588685779,-0.8572797918199051,1.475365800647583,-26.356937265541642,9.759227382914776,tremor
289,7014337,1.975,-0.48816896715588753,-0.3988500860673751,-0.8551966896160534,1.477439013295776,-26.42081266065858,9.265824908840454,tremor
290,7014342,1.98,-0.48964753187236487,-0.4000685667090477,-0.8528540356298542,1.4625242854679694,-26.31954699279799,8.78001391300856,tremor
291,7014347,1.985,-0.49126957999478343,-0.40124816086243925,-0.85028798312472,1.4321853722483462,-26.062557946175854,8.302811391037448,tremor
292,7014352,1.99,-0.49302099394936005,-0.40237896923869093,-0.8475343031734741,1.388032149416631,-25.659931118232077,7.835130220453008,tremor
293,7014357,1.995,-0.4948874079924656,-0.4034522708693553,-0.8446280778453709,1.3316996305572197,-25.122286110902827,7.377777463803604,tremor
294,7014362,2.0,-0.4968543181330894,-0.40446054154806027,-0.8416034197928406,1.2648286008468157,-24.460646862442527,6.931454194330706,tremor
295,7014367,2.005,-0.49890718754899477,-0.4053974541526594,-0.8384932199143037,1.1890479891281573,-23.686317636750346,6.496756792496325,tremor
296,7014371,2.009,-0.501031546264094,-0.4062578622571994,-0.8353289242660735,1.1059590532961163,-22.810765879222863,6.074179639236143,tremor
297,7014398,2.036,-0.5032130839845455,-0.4070377686950365,-0.8321403408643294,1.0171214044116499,-21.845512912277506,5.664119106260116,tremor
298,7014403,2.041,-0.5054377352114194,-0.4077342809367836,-0.8289554764721606,0.9240408434524046,-20.80203319145314,5.266878717645021,tremor
299,7014412,2.05,-0.5076917560400587,-0.4083455552884957,-0.8258004029334842,0.8281589352254897,-19.691662586612274,4.882675332268477,tremor
300,7014417,2.055,-0.5099617923927281,-0.4088707319853643,-0.8226991521335405,0.7308442031197625,-18.52551590568472,4.511646174449109,tremor
301,7014431,2.069,-0.512234939776204,-0.409309863247654,-0.8196736382733247,0.6333848014268897,-17.314413655205346,4.153856521648799,tremor
302,7014441,2.079,-0.5144987949722208,-0.4096638362818479,-0.8167436058661167,0.5369825102210943,-16.06881784609937,3.8093078452652023,tremor
303,7014446,2.084,-0.5167415003232919,-0.4099342930640403,-0.8139266016993484,0.4427478993365229,-14.798776514180581,3.477946195517659,tremor
304,7014451,2.089,-0.5189517814461554,-0.4101235485533119,-0.811237968937737,0.3516965201550827,-13.513876535098209,3.159670624736562,tremor
305,7014455,2.093,-0.5211189792806261,-0.4102345087698503,-0.8086908615482348,0.26474600386797714,-12.223204266683402,2.854341453561744,tremor
306,7014460,2.098,-0.5232330773689131,-0.41027058995300963,-0.8062962772771564,0.18271396890802336,-10.935313535153309,2.5617881998856857,tremor
307,7014470,2.108,-0.5252847251765845,-0.4102356398007689,-0.8040631074823776,0.10631666439051914,-9.658200482799188,2.2818170103633943,tremor
308,7014474,2.112,-0.5272652581323175,-0.4101338615920587,-0.8019982022023102,0.03616829801375345,-8.399284805378494,2.014217459268858,tremor
309,7014479,2.117,-0.5291667148991236,-0.4099697418121268,-0.8001064489168944,-0.027218984558517234,-7.165396922715806,1.7587686089486696,tremor
310,7014484,2.122,-0.5309818522116523,-0.40974798174159377,-0.798390863516003,-0.08343448540052265,-5.96277064216987,1.5152442583492953,tremor
311,7014489,2.127,-0.5327041574358936,-0.40947343333322134,-0.7968526920328478,-0.1321677064127491,-4.797040887887091,1.28341733864802,tremor
312,7014518,2.156,-0.5343278588393473,-0.4091510395853324,-0.7954915217237658,-0.17320645485738204,-3.6732460756440415,1.0630634453457382,tremor
313,7014532,2.17,-0.5358479334112138,-0.40878577952424017,-0.7943054000842367,-0.2064342779039747,-2.5958347108215984,0.8539635219207768,tremor
314,7014537,2.175,-0.5372601119576935,-0.40838261782719054,-0.7932909603897876,-0.2318271966766718,-1.568675775527605,0.6559057298011084,tremor
315,7014542,2.18,-0.5385608811361408,-0.40794645905178,-0.7924435523469294,-0.24944971525763124,-0.5950724551569628,0.4686865529532891,tremor
316,7014552,2.19,-0.5397474820970612,-0.4074821063897623,-0.7917573764411291,-0.2594500949951073,0.32222125611637426,0.29211119389500917,tremor
317,7014556,2.194,-0.5408179054703709,-0.4069942248351456,-0.7912256205817335,-0.26205490457094066,1.1809815298680009,0.12599332274644295,tremor
318,7014561,2.199,-0.5417708825397947,-0.40648730864844096,-0.7908405976698697,-0.2575628760478893,1.9794937016127492,-0.029845756790160084,tremor
319,7014566,2.204,-0.542605872568565,-0.40596565300701914,-0.7905938827541491,-0.24633811426725846,2.716529710109461,-0.17557845974124014,tremor
320,7014571,2.209,-0.5433230463476175,-0.40543332974935536,-0.7904764484890976,-0.22880272264204668,3.391324361471658,-0.3113727247682699,tremor
321,7014576,2.214,-0.5439232661205741,-0.4048941671412213,-0.7904787976715714,-0.2054289244376072,4.003550762637758,-0.43739420350145164,tremor
322,7014580,2.218,-0.5444080620924219,-0.40435173360791304,-0.7905910917004879,-0.17673077539892462,4.553295225580799,-0.553808761221208,tremor
323,7014585,2.223,-0.5447796057508347,-0.40380932538327513,-0.7908032738847797,-0.14325557975480352,5.041031897302973,-0.6607852090612786,tremor
324,7014595,2.233,-0.5450406802236897,-0.40326995802071636,-0.7911051866131992,-0.10557513548060037,5.467597322209861,-0.7584981811477597,tremor
325,7014600,2.238,-0.5451946478691577,-0.40273636169283616,-0.7914866814966741,-0.06427694519141,5.8341650945204435,-0.8471310650958415,tremor
326,7014610,2.248,-0.5452454152533752,-0.40221098017524337,-0.7919377216980803,-0.019955535708395766,6.142220710561717,-0.9268788917870693,tremor
327,7014614,2.252,-0.5451973956240865,-0.40169597336787466,-0.792448475774052,0.02679596848590998,6.393536684798049,-0.9979510901227782,tremor
328,7014619,2.257,-0.5450554689458585,-0.40119322315529643,-0.7930094024672473,0.0753938761083414,6.590147949091408,-1.060574014163861,tremor
329,7014649,2.287,-0.5448249395313118,-0.40070434234841673,-0.7936113260043136,0.1252714321722145,6.734327512274779,-1.1149931538560771,tremor
330,7014654,2.292,-0.5445114912886787,-0.4002306863870931,-0.7942455015747272,0.1758856767695856,6.828562318983529,-1.161474946905723,tremor
331,7014659,2.297,-0.5441211406119036,-0.3997733674213163,-0.7949036707904398,0.2267235628023579,6.875529217996869,-1.2003081189215516,tremor
332,7014663,2.301,-0.5436601869669982,-0.3993332703346391,-0.795578107058482,0.2773072580323717,6.878070937362188,-1.231804492143209,tremor
333,7014668,2.306,-0.5431351612778066,-0.3989110702339072,-0.7962616509396718,0.3271985791478407,6.8391719694174435,-1.2562992196428848,tremor
334,7014678,2.316,-0.5425527722845542,-0.3985072509084917,-0.7969477357141881,0.37600252648323834,6.761934291293284,-1.2741504203531773,tremor
335,7014683,2.321,-0.5419198511367155,-0.39812212376161565,-0.7976304035233629,0.42336990713738926,6.649552880995878,-1.285738208893585,tremor
336,7014687,2.325,-0.5412432945839437,-0.3977558467357972,-0.7983043125991763,0.4689990521153734,6.505291032334231,-1.2914631322915369,tremor
337,7014692,2.33,-0.5405300072403927,-0.39740844279286375,-0.7989647362209811,0.5126366502252169,6.332455521270686,-1.291744043750069,tremor
338,7014697,2.335,-0.5397868435132952,-0.39707981756444455,-0.7996075541465334,0.5540777371400405,6.1343717282352035,-1.2870154617409748,tremor
339,7014702,2.34,-0.5390205498998827,-0.39676977585802253,-0.8002292373470206,0.5931648910254418,5.914358870791509,-1.277724479793782,tremor
340,7014707,2.345,-0.5382377084604026,-0.3964780367820609,-0.800826826931204,0.6297866957529233,5.675705544246591,-1.264327306450492,tremor
341,7014712,2.35,-0.5374446823605503,-0.3962042473365016,-0.8013979081714411,0.6638755392819513,5.421645801505631,-1.2472855243819714,tremor
342,7014726,2.364,-0.5366475644340615,-0.39594799439733525,-0.8019405805449442,0.6954048190347089,5.155336026549575,-1.2270621623687024,tremor
343,7014731,2.369,-0.5358521297343457,-0.39570881510160577,-0.8024534246789229,0.7243856288439726,4.879832867336915,-1.2041176745786308,tremor
344,7014736,2.374,-0.5350637930108594,-0.3954862057076951,-0.80293546704057,0.7508630046818029,4.598072491094139,-1.1789059190593194,tremor
345,7014741,2.379,-0.5342875719498854,-0.3952796290602938,-0.803386143145184,0.7749118108688807,4.31285140449995,-1.1518702215653325,tremor
346,7014765,2.403,-0.5335280568541387,-0.39508852082607315,-0.8038052599720809,0.7966323562555434,4.026809043059534,-1.1234396016282873,tremor
347,7014770,2.408,-0.5327893872068475,-0.3949122946830335,-0.8041929581841102,0.8161458402174526,3.742412284215317,-1.094025225975246,tremor
348,7014775,2.413,-0.5320752352957272,-0.3947503466452454,-0.8045496746503652,0.8335897380112814,3.461941988384335,-1.0640171420148432,tremor
349,7014780,2.418,-0.5313887967961839,-0.3946020586893983,-0.8048761056817804,0.8491132400026336,3.187481631607185,-1.0337813333456596,tremor
350,7014785,2.423,-0.5307327879691236,-0.3944668018261649,-0.805173171312567,0.8628728569696692,2.9209080678689703,-1.0036571311444877,tremor
351,7014790,2.428,-0.5301094489442697,-0.3943439387341887,-0.8054419808991348,0.8750282942234998,2.6638844467658984,-0.9739550093386566,tremor
352,7014794,2.432,-0.5295205524463328,-0.39423282605270954,-0.8056838002602309,0.8857386824280382,2.4178553078713247,-0.9449547864601374,tremor
353,7014804,2.442,-0.5289674172774386,-0.3941328164135849,-0.8059000205433808,0.8951592347059018,2.1840438721796738,-0.9169042521509708,tremor
354,7014814,2.452,-0.5284509258854938,-0.394043260285756,-0.8060921289692707,0.9034383796268026,1.9634515501865537,-0.8900182309739635,tremor
355,7014819,2.457,-0.5279715454095272,-0.3939635077042876,-0.8062616815742899,0.9107153996866642,1.7568596824759404,-0.8644780900896143,tremor
356,7014823,2.461,-0.5275293516800964,-0.393892909959778,-0.806410278039964,0.9171185867440166,1.5648335184521844,-0.8404316903362501,tremor
357,7014829,2.467,-0.5271240557446977,-0.3938308213288195,-0.8065395386657305,0.9227639113514133,1.3877284191703039,-0.8179937727643257,tremor
358,7014833,2.471,-0.5267550325665067,-0.3937766009283855,-0.8066510835091463,0.9277541926897566,1.225698241009192,-0.7972467655691607,tremor
359,7014838,2.476,-0.5264213515976552,-0.39372961477299717,-0.8067465136869263,0.9321787487846442,1.0787058208589588,-0.778241990082962,tremor
360,7014843,2.481,-0.5261218089503976,-0.3936892381008969,-0.8068273948033496,0.9361135007709459,0.9465354439172275,-0.7610012388262026,tremor
361,7014853,2.491,-0.5258549608813817,-0.39365485801330785,-0.8068952424515249,0.9396214985799699,0.8288071348904251,-0.7455186933380729,tremor
362,7014857,2.495,-0.5256191582707087,-0.39362587643976776,-0.8069515097193832,0.9427538280114998,0.7249925752612167,-0.73176314483469,tremor
363,7014893,2.531,-0.5254125817273355,-0.39360171340441674,-0.806997576627132,0.9455508506210353,0.6344324175176514,-0.7196804771158682,tremor
364,7014897,2.535,-0.525233276898581,-0.3935818105264751,-0.807034741426159,0.9480437179126505,0.556354746613821,-0.70919636877691,tremor
365,7014902,2.54,-0.5250791895211505,-0.39356563464834443,-0.8070642136985636,0.950256089856235,0.48989443156334356,-0.7002191707420596,tremor
366,7014907,2.545,-0.5249481997421388,-0.39355268145336897,-0.8070871092064367,0.9522059755615051,0.43411311295002925,-0.6926429153903716,tremor
367,7014917,2.555,-0.524838155271246,-0.39354247891753036,-0.8071044464449775,0.9539076028425156,0.3880195785470018,-0.686350414755569,tremor
