sample,t_ms,t_s,ax,ay,az,gx,gy,gz,tremor
0,6995554,0.0,-0.4576588297528252,-0.40753379215861274,-0.8353636222562736,11.098315871761887,-13.186350266364197,4.061433430362386,tremor
1,6995559,0.005,-0.4576588639481073,-0.4078962480523736,-0.8353876672691867,11.130895725506265,-15.170606342306204,4.564941825068555,tremor
2,6995564,0.01,-0.4577905342466566,-0.40840062808291905,-0.8352878875699005,11.133611636315425,-17.227549861399016,5.05347762730778,tremor
3,6995568,0.014,-0.45815218879487773,-0.4090608021568379,-0.8349656930723451,11.10134161908406,-19.341952087457916,5.521401490584398,tremor
4,6995573,0.019,-0.45884731595346456,-0.4098652689493336,-0.8343156154538156,11.028768950347079,-21.497055514809954,5.962809626966635,tremor
5,6995578,0.024,-0.4599672536389951,-0.4107886008740514,-0.8332435321238609,10.910416397909115,-23.674659140256853,6.371567316674115,tremor
6,6995583,0.029,-0.4615858038658894,-0.4118023771409699,-0.8316727922984087,10.740684844671453,-25.85522837949206,6.7413473681946074,tremor
7,6995588,0.034,-0.4637610304039982,-0.41288112700400637,-0.8295427366013568,10.51389622347686,-28.018030281013335,7.065673509513784,tremor
8,6995592,0.038,-0.46653920719046343,-0.4140042492446135,-0.8268047702869264,10.22434061846566,-30.141294377970624,7.337968620959397,tremor
9,6995597,0.043,-0.46995831458807796,-0.415155809171477,-0.8234187498881996,9.866327323289019,-32.20239916755366,7.551607643597247,tremor
10,6995602,0.048,-0.47405035010104374,-0.4163235705354622,-0.8193505143001105,9.434239578205059,-34.17808382115987,7.6999749144314755,tremor
11,6995607,0.053,-0.4788425581766824,-0.41749794534585505,-0.8145704989910949,8.922592636917003,-36.04468430857226,7.776525591100338,tremor
12,6995612,0.058,-0.48435789944114727,-0.4186711159406586,-0.8090531260132309,8.326094740430792,-37.77839266842112,7.774850735025711,tremor
13,6995617,0.063,-0.4906150506172518,-0.41983637836417703,-0.8027766789148009,7.639710500013235,-39.355537680184504,7.688745524575504,tremor
14,6995622,0.068,-0.4976281410155159,-0.42098767905809004,-0.795723453396235,6.858726115628405,-40.752884696240955,7.5122799711484625,tremor
15,6995626,0.072,-0.5054063561496773,-0.4221192986279841,-0.7878800499629485,5.978815781230966,-41.94795188260863,7.2398714143776735,tremor
16,6995631,0.077,-0.5139534870927642,-0.42322564028448845,-0.7792377279724104,4.996108555210972,-42.91933960064339,6.866357981046216,tremor
17,6995636,0.082,-0.5232674721865329,-0.424301090237412,-0.7697927738026883,3.907254904480365,-43.64706914622773,6.387072107895857,tremor
18,6995641,0.087,-0.5333399592566272,-0.4253399267551307,-0.7595468554487089,2.709492065948494,-44.11292655499144,5.797913152195903,tremor
19,6995646,0.092,-0.5441559063325916,-0.4263362620654777,-0.7485073468570073,1.4007073115969586,-44.3008066880725,5.095418046526166,tremor
20,6995671,0.117,-0.5556932335116185,-0.42728400667652494,-0.7366876112783939,-0.020501844873704538,-44.19705233890802,4.2768288972044255,tremor
21,6995676,0.122,-0.5679225358723072,-0.4281768494278824,-0.7241072360529519,-1.5547714986928833,-43.79078265836014,3.3401563818198436,tremor
22,6995686,0.132,-0.5808068659562724,-0.42900824909159346,-0.7107922128513396,-3.201920283385316,-43.074204805328634,2.284237775333404,tremor
23,6995691,0.137,-0.5943015935431262,-0.4297714349944562,-0.6967750582394967,-4.960904405161706,-42.04290242447076,1.1087884327494077,tremor
24,6995695,0.141,-0.6083543498251981,-0.4304594152008906,-0.6820948699429453,-6.829779794427275,-40.69609435883,-0.18555441639618317,tremor
25,6995700,0.146,-0.6229050624249332,-0.43106499146575666,-0.6667973146006676,-8.8056723553546,-39.03685693566763,-1.5971966516468585,tremor
26,6995705,0.151,-0.6378860868998372,-0.4315807805685518,-0.6509345432416389,-10.884757250205809,-37.0723032220614,-3.1235620345694137,tremor
27,6995710,0.156,-0.6532224394245101,-0.43199924186165595,-0.6345650312494993,-13.062248099613326,-34.813712837102216,-4.7610776822054595,tremor
28,6995715,0.161,-0.6688321342327499,-0.4323127109654098,-0.6177533402282464,-15.332396911767557,-32.276606238585245,-6.505171031367184,tremor
29,6995720,0.166,-0.6846266281593378,-0.43251343956291305,-0.6005697999530205,-17.688505468250636,-29.480757887428844,-8.350278942453357,tremor
30,6995725,0.171,-0.7005113732548599,-0.43259364121616867,-0.5830901094865766,-20.122948787164226,-26.450143348884463,-10.28986942890401,tremor
31,6995729,0.175,-0.7163864769670398,-0.43254554306248594,-0.565394857563426,-22.62721115114428,-23.212816231028764,-12.316476314847824,tremor
32,6995734,0.18,-0.7321474677915901,-0.4323614431690535,-0.5475689634896704,-25.191935026239875,-19.80071190029354,-14.42174691878928,tremor
33,6995739,0.185,-0.7476861625918331,-0.43203377323197456,-0.5297010410776837,-27.806983005727268,-16.249376161338034,-16.596502635667832,tremor
34,6995749,0.195,-0.7628916299629122,-0.43155516620689294,-0.5118826895309582,-30.461512689074937,-12.597618550905652,-18.83081204511667,tremor
35,6995754,0.2,-0.7776512420656453,-0.4309185283507209,-0.49420771671219077,-33.14406414977889,-8.88709156876379,-21.114075914299814,tremor
36,6995759,0.205,-0.7918518052709419,-0.4301171150332268,-0.4767713018554792,-35.84265935912792,-5.1617990375120595,-23.435123195446394,tremor
37,6995764,0.21,-0.8053807577380201,-0.4291446095356827,-0.4596691064978544,-38.544912622226725,-1.4675388219077854,-25.78231684812011,tremor
38,6995769,0.215,-0.8181274197098641,-0.4279952038833717,-0.44299634417194933,-41.23815075560361,2.148712687080923,-28.143668050032908,tremor
39,6995795,0.241,-0.8299842798780808,-0.4266636805552394,-0.42684682117757444,-43.909541401437274,5.639464659169942,-30.50695710120673,tremor
40,6995800,0.246,-0.8408482987141935,-0.4251454936813544,-0.4113119624714686,-46.54622754547701,8.957412565175614,-32.85985907897672,tremor
41,6995805,0.251,-0.8506222073215987,-0.42343684809347226,-0.3964798382652851,-49.13546600580914,12.056161572008367,-35.1900720773958,tremor
42,6995810,0.256,-0.8592157783437957,-0.42153477436495784,-0.3824342081251581,-51.66476741170487,14.890956910953571,-37.485445684006606,tremor
43,6995815,0.261,-0.8665470439963036,-0.41943719779776933,-0.3692536000440122,-54.1220350082724,17.41940444664544,-39.734107231654804,tremor
44,6995819,0.265,-0.872543435525622,-0.41714299921380854,-0.3570104420145543,-56.49569950217451,19.602164250408574,-41.92458333215252,tremor
45,6995824,0.27,-0.877142818401151,-0.4146520654018058,-0.3457702630724361,-58.774847108961026,21.403600217498713,-44.04591426790096,tremor
46,6995829,0.275,-0.8802943983387653,-0.4119653271668802,-0.33559097966276885,-60.94933799370623,22.792369634610235,-46.087758994189876,tremor
47,6995834,0.28,-0.8819594748713045,-0.4090847831320606,-0.3265222815694367,-63.00991243959079,23.741938061834592,-48.0404887788914,tremor
48,6995839,0.285,-0.8821120216727929,-0.40601350775083844,-0.31860512958896275,-64.9482823455176,24.23100687647756,-49.895267852022585,tremor
49,6995844,0.29,-0.880739076262296,-0.40275564240526845,-0.31187137468823567,-66.75720603620938,24.243843242459583,-51.644119825237006,tremor
50,6995849,0.295,-0.8778409260852255,-0.39931636897834727,-0.30634350563358476,-68.43054484744964,23.770505003127713,-53.27997904612828,tremor
51,6995854,0.3,-0.8734310832540797,-0.3957018658890346,-0.30203452910662704,-69.96330050092249,22.80695592320895,-54.7967264579454,tremor
52,6995858,0.304,-0.8675360462910722,-0.3919192472427433,-0.298947983223002,-71.35163287897785,21.355069724431313,-56.18920993313881,tremor
53,6995863,0.309,-0.8601948538213211,-0.38797648645232663,-0.29707808223284066,-72.59285841804532,19.422524406681646,-57.45324943568121,tremor
54,6995868,0.314,-0.8514584420174055,-0.383882326392568,-0.29640998708907845,-73.68542993025099,17.02259138776865,-58.58562774091244,tremor
55,6995878,0.324,-0.8413888243454852,-0.3796461788284687,-0.2969201935974804,-74.6288992121768,14.173826987918643,-59.58406779964404,tremor
56,6995883,0.329,-0.8300581184083858,-0.37527801646075715,-0.29857702708513156,-75.42386429047905,10.899676648230034,-60.447198167704755,tremor
57,6995888,0.334,-0.8175474499603596,-0.37078826140784266,-0.30134123002267044,-76.07190357231208,7.228004872777148,-61.17450821825734,tremor
58,6995893,0.339,-0.8039457680089395,-0.3661876742343624,-0.3051666268939373,-76.57549950054879,3.190566061591879,-61.766295090972505,tremor
59,6995920,0.366,-0.7893486069561904,-0.36148724769569884,-0.3100008489007893,-76.93795454497771,-1.1775669878255233,-62.22360448862874,tremor
60,6995925,0.371,-0.7738568317963839,-0.3566981091700157,-0.3157860998984364,-77.16330246941293,-5.838599210072897,-62.5481674930378,tremor
61,6995929,0.375,-0.7575754004871248,-0.3518314352855596,-0.32245994440719267,-77.25621776535155,-10.75261623454139,-62.742335528136906,tremor
62,6995939,0.385,-0.7406121738763543,-0.34689838152262414,-0.3299560988375884,-77.22192590032442,-15.878177243283897,-62.80901544427784,tremor
63,6995944,0.39,-0.7230767982748909,-0.34191002860080777,-0.3382052083659084,-77.06611659740047,-21.17288259310103,-62.75160644622598,tremor
64,6995949,0.395,-0.7050796793795314,-0.3368773463181375,-0.34713559420790224,-76.79486180218177,-26.593903593288893,-62.573940269825684,tremor
65,6995953,0.399,-0.6867310593690649,-0.3318111742919062,-0.3566739591648359,-76.4145393910389,-32.09846473744389,-62.28022566504127,tremor
66,6995958,0.404,-0.6681402021869672,-0.3267222178760371,-0.36674604295371804,-75.93176309748252,-37.644271723437654,-61.87499789130126,tremor
67,6995963,0.409,-0.6494146857316442,-0.32162105649642997,-0.37727722266163494,-75.35331862021263,-43.18988162313124,-61.36307358723323,tremor
68,6995968,0.414,-0.6306597941935064,-0.31651816082617684,-0.3881930573940273,-74.68610544439642,-48.69501451042107,-60.74951104672161,tremor
69,6995978,0.424,-0.611977999285233,-0.31142391465976266,-0.39941977958168556,-73.93708356568658,-54.1208086687375,-60.03957561946284,tremor
70,6995992,0.438,-0.5934685156967305,-0.3063486370612085,-0.41088473828467753,-73.11322405843794,-59.43002411393703,-59.238709658612514,tremor
71,6995997,0.443,-0.5752269138143633,-0.3013026003672692,-0.4225168020229488,-72.2214622770925,-64.5872014718942,-58.35250616609324,tremor
72,6996002,0.448,-0.5573447716244527,-0.29629603992966264,-0.43424673001765657,-71.2686524226253,-69.55878504629831,-57.38668505329982,tremor
73,6996007,0.453,-0.5399093478348552,-0.2913391520740436,-0.4460075211178126,-70.26152224180348,-74.31321997853044,-56.34707076897873,tremor
74,6996012,0.458,-0.5230032596220934,-0.28644207760847146,-0.4577347490800681,-69.20662675214159,-78.82103361438956,-55.23956997803463,tremor
75,6996017,0.463,-0.506704150999335,-0.28161486927604656,-0.46936689136185344,-68.11030009999138,-83.05491057860233,-54.07014802645838,tremor
76,6996045,0.491,-0.4910843415045485,-0.2768674427480224,-0.48084565637074406,-66.97860497045875,-86.98976971192663,-52.84480310282646,tremor
77,6996055,0.501,-0.47621044961355935,-0.27220951202405375,-0.49211631141499795,-65.81727938304708,-90.60284902386017,-51.56953729275497,tremor
78,6996064,0.51,-0.46214299082957944,-0.26765051136345375,-0.5031280106741016,-64.63168121666605,-93.8738022408803,-50.25032409385029,tremor
79,6996069,0.515,-0.4489359564848632,-0.2631995070144583,-0.513834119631762,-63.42673137198807,-96.78480756630634,-48.89307238167833,tremor
80,6996074,0.52,-0.4366363853932868,-0.25886510293322024,-0.5241925298459625,-62.20685702987967,-99.32068622816179,-47.50358724884817,tremor
81,6996079,0.525,-0.42528394596025476,-0.2546553453164936,-0.5341659558380861,-60.9759369267795,-101.4690256509776,-46.087528528701284,tremor
82,6996084,0.53,-0.4149105505983743,-0.25057763108604153,-0.5437222043176105,-59.7372508877089,-103.22029993731061,-44.650368120174804,tremor
83,6996094,0.54,-0.4055400269408196,-0.24663862546984433,-0.5528344049070069,-58.493436016169206,-104.56797890383457,-43.19734743211269,tremor
84,6996099,0.545,-0.3971878712236553,-0.24284419354889625,-0.5614811909838476,-57.24645194282064,-105.50861617666627,-41.73343636335641,tremor
85,6996104,0.55,-0.38986110827215553,-0.23919935009922666,-0.5696468192502878,-55.99755739005602,-106.04190678018543,-40.26329523522072,tremor
86,6996109,0.555,-0.3835582797998688,-0.23570823127473484,-0.5773212172508438,-54.74730002082169,-106.17070524275547,-38.7912410042409,tremor
87,6996113,0.559,-0.3782695783536792,-0.23237409067419368,-0.5844999493595783,-53.49552111623478,-105.90099646093337,-37.32121892085991,tremor
88,6996118,0.564,-0.373977138493688,-0.22919932115871586,-0.5911840937681921,-52.24137609275495,-105.2418133168299,-35.856780584829735,tremor
89,6996123,0.569,-0.370655490058446,-0.22618550249120964,-0.597380025686372,-50.983371261880905,-104.20509718587662,-34.40106910026515,tremor
90,6996133,0.579,-0.3682721710320227,-0.22333347352040148,-0.6030991052281832,-49.719416588418234,-102.80549985225066,-32.956811768126585,tremor
91,6996138,0.584,-0.3667884899870423,-0.22064342629653672,-0.6083572721797343,-48.446893547174774,-101.06012784544603,-31.5263204841428,tremor
92,6996173,0.619,-0.3661604207230826,-0.2181150182593488,-0.6131745538517408,-47.16273654227945,-98.98823274533122,-30.111499746453106,tremor
93,6996178,0.624,-0.3663396050002074,-0.21574749756837933,-0.6175744962648735,-45.8635257769139,-96.6108535004918,-28.71386192749412,tremor
94,6996183,0.629,-0.36727443369837326,-0.2135398358478868,-0.6215835326369076,-44.54558899829341,-93.95041912594903,-27.334549233081095,tremor
95,6996188,0.634,-0.36891117281825375,-0.211490862182037,-0.6252303061160905,-43.205109248846114,-91.03032208737376,-25.974361557897463,tremor
96,6996193,0.639,-0.3711950987780737,-0.2095993921652819,-0.6285449656099826,-41.83823564963189,-87.87447409482834,-24.633789246915576,tremor
97,6996198,0.644,-0.3740716074012354,-0.20786434616093924,-0.6315584543251564,-40.44119429169074,-84.5068569342143,-23.31304958317261,tremor
98,6996203,0.649,-0.37748726248527015,-0.20628485156462803,-0.6343018104367744,-39.01039645517184,-80.95108147026433,-22.012125645110885,tremor
99,6996212,0.658,-0.3813907524663232,-0.20486032471188864,-0.636805498413172,-37.54254156815989,-77.22996813896815,-20.730806020864552,tremor
100,6996217,0.663,-0.38573372709520276,-0.20359052903183383,-0.6390987881505535,-36.03471253106319,-73.3651621008318,-19.468723753304346,tremor
101,6996222,0.668,-0.39047148999240217,-0.20247560707311987,-0.6412091973642736,-34.48446125071669,-69.37679567331989,-18.225392850219343,tremor
102,6996227,0.673,-0.3955635273322606,-0.20151608507095334,-0.6431620106999641,-32.88988244091834,-65.28320960411169,-17.000240759795705,tremor
103,6996232,0.678,-0.4009738576918551,-0.20071284974921405,-0.6449798867858191,-31.249673961073956,-61.100743125469144,-15.792635393356022,tremor
104,6996237,0.683,-0.4066711933210157,-0.20006709803316375,-0.6466825619447626,-29.563182209778397,-56.843600550786626,-14.601905559955938,tremor
105,6996242,0.688,-0.4126289088056817,-0.1995802612671737,-0.6482866565261692,-27.83043139770143,-52.52379949816576,-13.427354036816272,tremor
106,6996247,0.693,-0.4188248193616082,-0.19925390637765397,-0.649805586820605,-26.052135915301456,-48.1512027496866,-12.268262921418586,tremor
107,6996261,0.707,-0.42524077783276226,-0.19908961718972662,-0.6512495823219256,-24.22969549419906,-43.73363240741428,-11.123891390200047,tremor
108,6996288,0.734,-0.4318621068355339,-0.199088859798645,-0.6526258047519407,-22.365173434311888,-39.27706153267396,-9.993466512783828,tremor
109,6996293,0.739,-0.4386768901694985,-0.19925283651557554,-0.6539385618563285,-20.461258808523517,-34.785875018232176,-8.876168301334495,tremor
110,6996298,0.744,-0.4456751550478379,-0.19958233344159332,-0.655189605678543,-18.521214201399022,-30.263188285722652,-7.771110641029043,tremor
111,6996303,0.749,-0.4528479829611913,-0.2000775671387744,-0.6563785020461028,-16.548811099890425,-25.711209843719978,-6.677320070466173,tremor
112,6996308,0.754,-0.46018659111845406,-0.2007380361118234,-0.657503055578916,-14.548255465133007,-21.13163202843647,-5.593714518121901,tremor
113,6996312,0.758,-0.4676814278706132,-0.20156238284533373,-0.6585597727854701,-12.524106267009543,-16.526033397423845,-4.519084065879212,tremor
114,6996317,0.763,-0.47532132434711405,-0.20254827194450398,-0.6595443447898045,-10.481189889634969,-11.89627611546946,-3.452075643149874,tremor
115,6996327,0.773,-0.4830927410883719,-0.20369228950824309,-0.6604521309260822,-8.424513345861685,-7.244882131595411,-2.3911832910272977,tremor
116,6996332,0.778,-0.49097914319716907,-0.2049898682426037,-0.6612786248431506,-6.359179177823209,-2.5753729512025765,-1.3347453040690151,tremor
117,6996337,0.783,-0.4989605308949455,-0.20643524202485264,-0.6620198858847667,-4.29030475513216,2.1074406411671784,-0.2809491846127068,tremor
118,6996342,0.788,-0.5070131447781472,-0.2080214326846134,-0.662672920357928,-2.2229483973935507,6.797230470439557,0.7721550478755088,tremor
119,6996347,0.793,-0.5151093569337551,-0.20974027071359289,-0.6632359998463514,-0.16204434478425678,11.485993491280597,1.82663304987342,tremor
120,6996352,0.798,-0.52321775077884,-0.2115824504875027,-0.6637089068788657,1.8876518956272825,16.16397108173492,2.8846361063328203,tremor
121,6996361,0.807,-0.5313033843873372,-0.213537619419861,-0.6640931018664319,3.9216068529821153,20.81964816656346,3.948363489558991,tremor
122,6996366,0.812,-0.5393282244619019,-0.21559449930040106,-0.6643918090771215,5.935540644500051,25.439832046062726,5.02001823956165,tremor
123,6996376,0.822,-0.5472517312584533,-0.21774103693151778,-0.6646100233014126,7.925446936826117,30.00980763677336,6.101757714050978,tremor
124,6996381,0.827,-0.5550315689065013,-0.21996458009854852,-0.6647544425227535,9.887601990012774,34.51356279275034,7.195640539020305,tremor
125,6996386,0.832,-0.5626244109007784,-0.2222520739359549,-0.6648333350919461,11.818563887910981,38.934074594168095,8.303571807545858,tremor
126,6996412,0.858,-0.5699868072431199,-0.2245902719317815,-0.6648563523831971,13.71516338712678,43.253645067517596,9.427248511684436,tremor
127,6996417,0.863,-0.5770760779035096,-0.2269659552008445,-0.6648342995436485,15.574488038608612,47.45427283571438,10.568107241546917,tremor
128,6996422,0.868,-0.5838511970147158,-0.22936615330804677,-0.6647788776987793,17.393861358825855,51.51804583239332,11.727276140601921,tremor
129,6996427,0.873,-0.5902736335544048,-0.23177835988742726,-0.6647024108927555,19.17081886439856,55.427539632210994,12.905532962668905,tremor
130,6996432,0.878,-0.5963081171609514,-0.23419073660257264,-0.6646175702445543,20.903082751121904,59.1662062232766,14.1032708398949,tremor
131,6996437,0.883,-0.6019233019777558,-0.23659229959954095,-0.664537106462084,22.58853691294946,62.71873905342358,15.320473064463675,tremor
132,6996442,0.888,-0.607092306688376,-0.23897308343711351,-0.6644736001767582,24.225203871641302,66.07140169202987,16.55669783763315,tremor
133,6996447,0.893,-0.6117931148182333,-0.2413242784497871,-0.6644392377200112,25.81122502767182,69.21230929464797,17.811073566700994,tremor
134,6996451,0.897,-0.6160088256149604,-0.2436383385288151,-0.6644456180945028,27.344845444812766,72.13165416178778,19.082304902506323,tremor
135,6996456,0.902,-0.6197277521240855,-0.24590905733929558,-0.6645035950816854,28.82440414070641,74.82186900028289,20.3686893142667,tremor
136,6996461,0.907,-0.6229433692484628,-0.2481316119886345,-0.6646231567221215,30.24833057477642,77.27772396895983,21.668143605198434,tremor
137,6996471,0.917,-0.6256541204495084,-0.25030257409960804,-0.6648133428265425,31.615147710637356,79.49635614947893,22.978239394386573,tremor
138,6996476,0.922,-0.6278630971515248,-0.252419889106087,-0.6650821997256713,32.92348169351865,81.47723265012219,24.296246243152883,tremor
139,6996481,0.927,-0.6295776096617505,-0.2544828253753185,-0.665436770133956,34.172077834656434,83.22205103451338,25.6191808075958,tremor
140,6996485,0.931,-0.6308086723153636,-0.2564918954671269,-0.6658831147706153,35.35982224576031,84.73458306418499,26.943860175802207,tremor
141,6996495,0.941,-0.6315704284192999,-0.25844875247069776,-0.6664263612387756,36.4857681332793,86.02046975286002,28.266957414745704,tremor
142,6996500,0.946,-0.6318795422838566,-0.2603560649174676,-0.6670707746114496,37.549165464013,87.0869773746738,29.585057310356422,tremor
143,6996505,0.951,-0.6317545861185291,-0.26221737425390784,-0.6678198432375428,38.549492470728,87.94272529039245,30.894710328866253,tremor
144,6996510,0.956,-0.6312154487579245,-0.26403693926358424,-0.6686763725171775,39.48648729378034,88.59739720577745,32.192482955699255,tremor
145,6996537,0.983,-0.6302827910395791,-0.2658195721406565,-0.6696425788786962,40.3601779582578,89.06144773012095,33.47500278050607,tremor
146,6996542,0.988,-0.6289775692440945,-0.2675704711181042,-0.6707201760058064,41.17090886818388,89.34581586409989,34.73899698881514,tremor
147,6996552,0.998,-0.627320643528317,-0.2692950546138315,-0.67191044561629,41.91936207125617,89.46165630459251,35.981323278891225,tremor
148,6996556,1.002,-0.625332483046112,-0.27099880173641266,-0.6732142858956264,42.60657172840923,89.42009817940752,37.198992626088874,tremor
149,6996561,1.007,-0.6230329738361982,-0.27268710365871607,-0.6746322320946351,43.23393051555565,89.23203904584476,38.38918373859592,tremor
150,6996566,1.012,-0.620441329942852,-0.2743651298246985,-0.6761644457368648,43.8031870631516,88.90797984950872,39.549249457181446,tremor
151,6996571,1.017,-0.6175761029390903,-0.27603771224048534,-0.6778106711582695,44.31643396108169,88.4579042455457,40.67671572311321,tremor
152,6996576,1.022,-0.6144552802559627,-0.2777092502690744,-0.6795701604881872,44.77608628889878,87.8912033942002,41.76927406029831,tremor
153,6996586,1.032,-0.6110964586056516,-0.2793836374494569,-0.6814415704698481,45.184851055899564,87.21664515125919,42.82476878427283,tremor
154,6996596,1.042,-0.6075170753931105,-0.28106421093913886,-0.6834228365460733,45.54568833896126,86.4423845467962,43.84118035523522,tremor
155,6996600,1.046,-0.6037346784204229,-0.2827537232738971,-0.6855110312750565,45.86176527276511,85.57601066189322,44.81660642345168,tremor
156,6996605,1.051,-0.5997672125128543,-0.284454335289694,-0.6877022152985071,46.136404354509914,84.6246235824445,45.749242159418834,tremor
157,6996610,1.056,-0.5956333010532608,-0.28616762829589265,-0.6899912897057529,46.37302774963172,83.59493413364352,46.63736141168446,tremor
158,6996615,1.061,-0.5913525008602479,-0.2878946329543098,-0.6923718587238854,46.575099413632564,82.49337860517308,47.47930010164805,tremor
159,6996620,1.066,-0.5869455103521831,-0.2896358718220144,-0.6948361112747387,46.746066882457434,81.32624060233245,48.273443069110265,tremor
160,6996625,1.071,-0.5824343134063721,-0.29139141216635106,-0.6973747291694573,46.88930454512067,80.09977240764678,49.01821534705716,tremor
161,6996630,1.076,-0.5778422446280995,-0.2931609254640665,-0.699976828662642,47.00806011293775,78.82030874321995,49.71207858256289,tremor
162,6996635,1.081,-0.5731939657564644,-0.2949437499549434,-0.7026299408514286,47.10540585127345,77.49436655348067,50.353533036940874,tremor
163,6996661,1.107,-0.5685153475104082,-0.2967389527322261,-0.7053200350533783,47.184195949442476,76.12872536470816,50.94112529311154,tremor
164,6996666,1.112,-0.5638332561438917,-0.29854538811254683,-0.708031587883882,47.247031173003705,74.73048390576407,51.473461479449774,tremor
165,6996671,1.117,-0.5591752490784739,-0.3003617494301591,-0.7107476993109652,47.296231662382645,73.30708996346218,51.949225511131615,tremor
166,6996676,1.122,-0.5545691888595711,-0.3021866119327502,-0.7134502555045806,47.33381840466003,71.86634183934456,52.367201586937135,tremor
167,6996680,1.126,-0.5500427889648719,-0.3040184650976094,-0.7161201368167593,47.36150352065207,70.4163611925274,52.72629998676789,tremor
168,6996686,1.132,-0.5456231084143837,-0.30585573340358335,-0.7187374677253873,47.380689109344694,68.96553841135824,53.025585095039744,tremor
169,6996691,1.137,-0.541336014580869,-0.3076967853443602,-0.7212819040571755,47.39247401797352,67.5224528829995,53.264304514705486,tremor
170,6996696,1.142,-0.5372056350632599,-0.3095399312102264,-0.7237329513049019,47.397667593160875,66.09577157142924,53.441918122632856,tremor
171,6996700,1.146,-0.5332538199780305,-0.3113834108593423,-0.7260703064233573,47.39680923821864,64.69413013826738,53.55812594089582,tremor
172,6996710,1.156,-0.5294996355660293,-0.31322537330869865,-0.7282742141977768,47.39019246251443,63.326001436611136,53.61289375512255,tremor
173,6996715,1.161,-0.5259589086497036,-0.31506385046435564,-0.7303258282094596,47.377892057770744,61.99955657876966,53.60647549764583,tremor
174,6996720,1.166,-0.5226438392953547,-0.3168967276490612,-0.7322075656706845,47.35979306413782,60.722523927650826,53.53943152832277,tremor
175,6996725,1.171,-0.5195626961713186,-0.318721713748062,-0.7339034450715063,47.33562028368197,59.50205129105534,53.412642086816554,tremor
176,6996730,1.176,-0.5167196057182133,-0.3205363137685312,-0.7353993957718371,47.30496724324617,58.344576325756364,53.227315350820206,tremor
177,6996739,1.185,-0.5141144425603471,-0.32233780640154197,-0.7366835294399046,47.267323679886495,57.25570972464542,52.98498970603681,tremor
178,6996744,1.19,-0.5117428248034005,-0.3241232288157936,-0.7377463645815769,47.22210079947843,56.24013521360351,52.68753000591053,tremor
179,6996749,1.195,-0.5095962142064082,-0.32588937044375066,-0.73858099726931,47.168653730880244,55.30152976051028,52.33711776403513,tremor
180,6996753,1.199,-0.5076621178986371,-0.32763277699728127,-0.7391832134694241,47.106300761655454,54.44250671649103,51.93623537515037,tremor
181,6996758,1.204,-0.5059243854965408,-0.32934976542464517,-0.7395515409605065,47.03433909804362,53.66458388063432,51.48764460174009,tremor
182,6996785,1.231,-0.5043635932382003,-0.33103645003641696,-0.7396872415962842,46.95205704098641,52.968177710308495,50.9943596975261,tremor
183,6996790,1.236,-0.5029575050769395,-0.33268877961113646,-0.7395942474320608,46.858742605118614,52.35262408716862,50.45961567438215,tremor
184,6996795,1.241,-0.5016815994740726,-0.33430258495296783,-0.7392790467908598,46.75368871625013,51.816225182383135,49.8868323602691,tremor
185,6996800,1.246,-0.5005096497670074,-0.33587363611078536,-0.7387505284262125,46.63619519425324,51.35632103825084,49.27957503784768,tremor
186,6996805,1.251,-0.4994143453154154,-0.33739770826679366,-0.7380197933033812,46.50556776653542,50.96938352267262,48.64151258083245,tremor
187,6996810,1.256,-0.49836794003107066,-0.3388706551412976,-0.7370999440651863,46.36111438499146,50.65112938059459,47.97637410020608,tremor
188,6996814,1.26,-0.49734291432413535,-0.34028848861522826,-0.7360058620221419,46.20213916398615,50.39664827861366,47.28790516519874,tremor
189,6996819,1.265,-0.49631263595734915,-0.3416474631240226,-0.7347539806425828,46.02793433381091,50.200541076469854,46.579824673788046,tremor
190,6996824,1.27,-0.49525200484189014,-0.3429441632125879,-0.7333620631670165,45.837770710710124,50.0570631014365,45.85578341817612,tremor
191,6996829,1.275,-0.4941380665211735,-0.344175592456203,-0.7318489902788671,45.63088730575387,49.96026697434602,45.11932532632713,tremor
192,6996833,1.279,-0.49295057908044504,-0.34533926174983803,-0.7302345618754803,45.40648080986008,49.904139557507555,44.37385226408828,tremor
193,6996838,1.284,-0.49167251859994704,-0.34643327476133484,-0.7285393150393479,45.16369578062392,49.88272787700131,43.62259315567684,tremor
194,6996843,1.289,-0.49029050912504857,-0.3474564081536263,-0.7267843584415379,44.901616401958385,49.89024941747577,42.86857802566932,tremor
195,6996853,1.299,-0.48879516451609556,-0.3484081840355881,-0.7249912217352383,44.61926068028115,49.92118298459399,42.11461738644643,tremor
196,6996858,1.304,-0.4871813314980663,-0.3492889320322433,-0.723181717121426,44.31557787775258,49.97033734746891,41.36328719601746,tremor
197,6996863,1.309,-0.48544822577009344,-0.3500998384068831,-0.7213778092859013,43.98944986321434,50.03289606029442,40.61691939888644,tremor
198,6996867,1.313,-0.48359945614558775,-0.3508429798515393,-0.7196014894009527,43.639696885464225,50.10443815216203,39.87759784663433,tremor
199,6996872,1.318,-0.4816429353171962,-0.3515213399074047,-0.7178746489074116,43.2650880469473,50.18093568997367,39.147159187080774,tremor
200,6996877,1.323,-0.4795906798556418,-0.3521388064814812,-0.7162189493360169,42.86435649309681,50.258730485141484,38.42719812335513,tremor
201,6996882,1.328,-0.47745850627545483,-0.3527001495664051,-0.7146556854184434,42.43621905282506,50.33449336362267,37.71907628763475,tremor
202,6996908,1.354,-0.47526563420991713,-0.35321097900853654,-0.7132056400626668,41.97939978773547,50.40517038950108,37.023933858758845,tremor
203,6996913,1.359,-0.47303421166098003,-0.3536776829567626,-0.7118889312814273,41.49265664924382,50.46792114404225,36.34270299094138,tremor
204,6996918,1.364,-0.47078878056411916,-0.3541073484019807,-0.710724852685589,40.9748102255749,50.520054490310905,35.67612212941161,tremor
205,6996923,1.369,-0.4685557030883374,-0.35450766591720473,-0.709731710469693,40.42477341033349,50.55896707013318,35.02475038240073,tremor
206,6996928,1.374,-0.46636256981267094,-0.3548868212703237,-0.7089266607320108,39.84158076128237,50.582089065145794,34.38898129340223,tremor
207,6996932,1.378,-0.46423761009204395,-0.3552533769713854,-0.7083255513967083,39.22441634752348,50.586840645954766,33.769055584337785,tremor
208,6996937,1.383,-0.46220912275230164,-0.3556161470265715,-0.7079427729727577,38.572638999220274,50.570601241836975,33.16507268003723,tremor
209,6996942,1.388,-0.460304942094166,-0.3559840682077294,-0.7077911219913152,37.88580406708923,50.53069245223554,32.57700104537872,tremor
210,6996947,1.393,-0.45855195041592367,-0.3563660710181963,-0.7078816803179852,37.163681057912655,50.46437419482978,32.00468754710921,tremor
211,6996952,1.398,-0.45697564423589787,-0.35677095325304214,-0.708223712733379,36.40626681749247,50.36885263224818,31.44786617658146,tremor
212,6996957,1.403,-0.4555997574298159,-0.3572072586295996,-0.7088245842969716,35.61379425052333,50.241297632000446,30.90616652512882,tremor
213,6996961,1.407,-0.45444594088878604,-0.35768316242641296,-0.7096896981306755,34.786736854684854,50.078867062849035,30.379122385979265,tremor
214,6996966,1.412,-0.4535334953182196,-0.3582063654547494,-0.7108224534500373,33.92580956215517,49.87873514072255,29.86618077222408,tremor
215,6996971,1.417,-0.4528791516794999,-0.3587839970524792,-0.7122242229943615,33.03196649744363,49.63812228819474,29.366711507211985,tremor
216,6996976,1.422,-0.4524968927327308,-0.3594225272016255,-0.7138943485120325,32.106396267140695,49.35432451532583,28.88001738562696,tremor
217,6997000,1.446,-0.4523978093090863,-0.3601276873957475,-0.7158301526829591,31.150515304769993,49.02474109947287,28.405344743170367,tremor
218,6997005,1.451,-0.4525899863383196,-0.3609043995876324,-0.7180269658407141,30.165959626006185,48.646900239601194,27.941894130294926,tremor
219,6997031,1.477,-0.45307841610741395,-0.36175671249451663,-0.7204781661201275,29.154575138525583,48.21848323403581,27.48883068403351,tremor
220,6997036,1.482,-0.4538649393144916,-0.36268774476525684,-0.7231752321949327,28.118406436310988,47.7373483813262,27.045293758556028,tremor
221,6997041,1.487,-0.4549482175415911,-0.36369963498835756,-0.726107808493663,27.05968383639169,47.20155605975801,26.610405426210722,tremor
222,6997046,1.492,-0.456323743018046,-0.3647934991156032,-0.7292637835036152,25.980808330333765,46.60939624419547,26.18327758835338,tremor
223,6997051,1.497,-0.4579838923800008,-0.36596939642506754,-0.7326293822844849,24.884334145823207,45.95941915545887,25.76301760994959,tremor
224,6997056,1.502,-0.45991803038228984,-0.36722630552261654,-0.7361892744891567,23.772948735725482,45.250468985029656,25.34873257774554,tremor
225,6997061,1.507,-0.4621126674389246,-0.36856211203162476,-0.7399266990158639,22.64945020084469,44.48171987650646,24.939532446167654,tremor
226,6997065,1.511,-0.46455167191670915,-0.369973609547204,-0.7438236059492999,21.516722371494385,43.652712701107276,24.534532452674846,tremor
227,6997070,1.516,-0.4672165347639555,-0.3714565151552552,-0.7478608157646951,20.377707989520967,42.76339071248551,24.132855238639717,tremor
228,6997075,1.521,-0.4700866807524453,-0.37300550037042046,-0.7520181949458481,19.235380618748895,41.81413195146114,23.733633096815485,tremor
229,6997080,1.526,-0.4731398177022986,-0.37461423777477254,-0.7562748462807347,18.092716044222914,40.805776314476155,23.336010687072147,tremor
230,6997085,1.531,-0.47635231282162016,-0.3762754629962299,-0.7606093112188825,16.95266398113125,39.73964549003173,22.939148434245503,tremor
231,6997090,1.536,-0.47969958392016454,-0.3779810510142837,-0.7649997808722339,15.818120893740279,38.61755446218666,22.542226669560645,tremor
232,6997100,1.546,-0.4831564928635263,-0.3797221051839955,-0.7694243115814613,14.691904625877855,37.4418139123403,22.144450426705113,tremor
233,6997109,1.555,-0.48669772925159066,-0.3814890568883987,-0.7738610405166894,13.576731383473048,36.21522353921797,21.745054678479928,tremor
234,6997114,1.56,-0.4902981738633471,-0.3832717734208398,-0.7782883966006942,12.475195412832836,34.94105697176586,21.343309717113986,tremor
235,6997119,1.565,-0.4939332337212117,-0.3850596716069936,-0.7826853021947252,11.389751516400011,33.62303947252606,20.93852635213505,tremor
236,6997124,1.57,-0.49757914338253206,-0.38684183481747364,-0.7870313615034578,10.322700368719682,32.265319932032625,20.530060629154608,tremor
237,6997129,1.575,-0.5012132298835882,-0.38860713136955427,-0.7913070325088101,9.276176459441972,30.872438691159257,20.117317856777056,tremor
238,6997157,1.603,-0.5048141412703301,-0.3903443328043694,-0.7954937803405606,8.25213840838604,29.449292508376022,19.699755853303483,tremor
239,6997167,1.613,-0.5083620405379421,-0.3920422310628576,-0.7995742111948289,7.252361375106716,28.001097568106058,19.2768874696175,tremor
240,6997171,1.617,-0.5118387678348983,-0.3936897540638602,-0.8035321870478291,6.278431324371699,26.533350891898134,18.84828258348469,tremor
241,6997176,1.622,-0.5152279738639223,-0.3952760795060229,-0.8073529223032297,5.331741002827147,25.05178997957777,18.413569863304296,tremor
242,6997181,1.627,-0.5185152266405958,-0.39679074680236615,-0.8110230640264042,4.413487604523716,23.562350091237228,17.972438642394767,tremor
243,6997186,1.632,-0.5216880924718423,-0.3982237669119688,-0.8145307575289064,3.5246722124508887,22.071118362975767,17.524641222905913,tremor
244,6997191,1.637,-0.5247361906040682,-0.39956572951915115,-0.8178656988398295,2.666101165465191,20.584283949214804,17.06999585436605,tremor
245,6997195,1.641,-0.5276512198245139,-0.4008079066147351,-0.82101917514816,1.8383895029693054,19.10808357807194,16.608390526460358,tremor
246,6997205,1.651,-0.5304269546218305,-0.40194235113924004,-0.8239840937294989,1.0419665896199488,17.648742250511695,16.139787598305574,tremor
247,6997210,1.656,-0.5330592084510178,-0.40296198902190666,-0.8267549992752512,0.27708393408570253,16.212409256631677,15.664229171320796,tremor
248,6997215,1.661,-0.5355457622339496,-0.4038607027451754,-0.8293280790070898,-0.4561748915705665,14.80509016799248,15.181843008774107,tremor
249,6997220,1.666,-0.5378862574008728,-0.40463340451814817,-0.8317011545580709,-1.1578824321915608,13.43257594265148,14.692848718266005,tremor
250,6997225,1.671,-0.5400820543996161,-0.4052760972666677,-0.8338736593870053,-1.8282539209481106,12.10037070806012,14.197563848087874,tremor
251,6997230,1.676,-0.5421360594654295,-0.40578592192374713,-0.835846600489151,-2.4676326013625096,10.813620132025859,13.696409507258346,tremor
252,6997234,1.68,-0.54405252432883,-0.4061611898897486,-0.8376225033740372,-3.0764742031222285,9.577042524078323,13.189915103934672,tremor
253,6997239,1.685,-0.5458368252291541,-0.406401399975036,-0.8392053396839323,-3.6553309956811297,8.39486490768079,12.67872180901594,tremor
254,6997244,1.69,-0.5474952289232085,-0.40650723958987856,-0.8406004373957173,-4.204835843939492,7.270766260626466,12.163584390260853,tremor
255,6997249,1.695,-0.5490346542021883,-0.4064805703670615,-0.8418143742437884,-4.725686672898147,6.2078299426553585,11.645371123048152,tremor
256,6997254,1.7,-0.5504624376708799,-0.4063243987627004,-0.8428548557682078,-5.2186317156019895,5.20850702934461,11.125061560076396,tremor
257,6997281,1.727,-0.5517861121619394,-0.4060428324628709,-0.8437305801657111,-5.684455872808333,4.274591867803473,10.6037420255885,tremor
258,6997286,1.732,-0.5530132051767724,-0.40564102362408005,-0.8444510928256082,-6.123968455803614,3.407210687362397,10.08259878268963,tremor
259,6997291,1.737,-0.5541510632695583,-0.40512510010455205,-0.8450266339784797,-6.537992519294888,2.6068235717779094,9.562908900514326,tremor
260,6997295,1.741,-0.5552067065114448,-0.4045020859212351,-0.8454679831800925,-6.927355924197504,1.873239570468725,9.046028920433828,tremor
261,6997300,1.746,-0.5561867153086503,-0.4037798122165177,-0.8457863043386795,-7.292884204626448,1.2056442338871927,8.533381487786098,tremor
262,6997305,1.751,-0.5570971500825689,-0.40296682005455947,-0.8459929946847466,-7.635395251389765,0.6026384288603078,8.026440176888842,tremor
263,6997310,1.756,-0.5579435027603669,-0.40207225639671434,-0.8460995405567723,-7.955695765564377,0.062286939626577616,7.526712789012628,tremor
264,6997315,1.761,-0.5587306777209393,-0.4011057646295068,-0.8461173822330846,-8.254579379268609,-0.417824898563667,7.0357234417350485,tremor
265,6997320,1.766,-0.5594629988130878,-0.400077371035157,-0.8460577893681331,-8.532826286222138,-0.8405284458545708,6.554993791876537,tremor
266,6997325,1.771,-0.5601442383167765,-0.39899736860101376,-0.8459317479591235,-8.791204173812332,-1.2090048566167424,6.086023743823576,tremor
267,6997330,1.776,-0.5607776632531808,-0.39787619955762216,-0.8457498592281258,-9.03047020483203,-1.5267159714859386,5.630271992988263,tremor
268,6997335,1.781,-0.5613660942553031,-0.39672433801348506,-0.8455222503898707,-9.251373764641553,-1.797334833804347,5.189136743769418,tremor
269,6997339,1.785,-0.5619119722673195,-0.39555217401755893,-0.8452584970027456,-9.454659670444657,-2.0246774912320857,4.763936926150718,tremor
270,6997344,1.79,-0.5624174286162565,-0.3943699003299024,-0.8449675564692034,-9.641071534556579,-2.2126375312878013,4.355894218100107,tremor
271,6997349,1.795,-0.5628843544566448,-0.39318740312030465,-0.8446577122480454,-9.811354984221573,-2.3651245650602233,3.966116164609234,tremor
272,6997354,1.8,-0.5633144661874417,-0.39201415774927134,-0.8443365284413126,-9.966260467960247,-2.4860076327958525,3.59558066979423,tremor
273,6997359,1.805,-0.5637093641393667,-0.39085913072172274,-0.8440108145907673,-10.106545421085059,-2.5790642707974505,3.2451221255655858,tremor
274,6997364,1.81,-0.5640705825870647,-0.3897306888482584,-0.8436866007236931,-10.232975615849986,-2.647935758289613,2.915419426823904,tremor
275,6997374,1.82,-0.5643996299108895,-0.3886365166090222,-0.8433691228810472,-10.346325579183006,-2.696088858133741,2.6069861060100763,tremor
276,6997379,1.825,-0.5646980184756427,-0.38758354269694856,-0.8430628194982313,-10.447378019807218,-2.7267841761827185,2.320162796866804,tremor
277,6997404,1.85,-0.5649672844694074,-0.3865778767227136,-0.8427713390467625,-10.536922264985105,-2.7430510903704843,2.0551122077831536,tremor
278,6997409,1.855,-0.5652089985181016,-0.3856247570866655,-0.842497559246965,-10.61575176264385,-2.747669045395547,1.8118167497641753,tremor
279,6997414,1.86,-0.565424768325929,-0.38472851104178407,-0.8422436179092243,-10.684660752974361,-2.743154880697598,1.5900789238668638,tremor
280,6997419,1.865,-0.5656162348610732,-0.38389252795108764,-0.8420109550693643,-10.744440249617071,-2.7317557692884886,1.3895245286209676,tremor
281,6997429,1.875,-0.5657850637012216,-0.38311924665047703,-0.8418003656017439,-10.795873491273845,-2.715447296889574,1.2096087005155558,tremor
282,6997434,1.88,-0.5659329330938516,-0.3824101576513916,-0.8416120609905429,-10.83973103135813,-2.695936196196764,1.0496247515033785,tremor
283,6997443,1.889,-0.56606152011324,-0.3817658206640287,-0.8414457384854428,-10.87676563044696,-2.6746672544061525,0.90871571770055,tremor
284,6997448,1.894,-0.56617248605918,-0.3811858976060953,-0.8413006555216537,-10.907707108178283,-2.6528339204966507,0.7858884834994636,tremor
285,6997453,1.899,-0.5662674619859143,-0.3806692009001689,-0.8411757070862046,-10.933257300876832,-2.631392145919158,0.6800302959332024,tremor
286,6997458,1.904,-0.5663480350077938,-0.3802137564725492,-0.8410695036776153,-10.954085260508249,-2.6110769971201058,0.5899274366506269,tremor
287,6997463,1.909,-0.5664157358217922,-0.3798168804673236,-0.840980447623409,-10.970822820385592,-2.5924215817370184,0.5142857741277861,tremor
288,6997467,1.913,-0.5664720277244737,-0.37947526829930395,-0.8409068057580744,-10.98406064301094,-2.575777833289281,0.4517528762501646,tremor
