sample,t_ms,t_s,ax,ay,az,gx,gy,gz,tremor
0,6935013,0.0,-0.26960714069686964,-0.42069941516045933,-0.9050490467962876,0.10072556179454885,-31.894545472443703,-1.9099289652641345,tremor
1,6935018,0.005,-0.2698806311212115,-0.420679449670175,-0.9048789638699217,-0.0939872913511433,-35.13298980026434,-1.4286052570487835,tremor
2,6935023,0.01,-0.27037005165378225,-0.4206421440397868,-0.9045417516856221,-0.3202813993582732,-38.364395041366706,-0.9862786883249315,tremor
3,6935028,0.015,-0.2711632256101232,-0.4205802506471096,-0.9039588081998287,-0.5798291935405041,-41.567946994648686,-0.5885230051458955,tremor
4,6935033,0.02,-0.2723296666609241,-0.4204880753456012,-0.903062137024109,-0.8741945996777347,-44.72212990756289,-0.2409075252284567,tremor
5,6935047,0.034,-0.27391520648300005,-0.42036203700675967,-0.9018019820382915,-1.2048125426961704,-47.804893733871886,0.0510468371977426,tremor
6,6935052,0.039,-0.2759465649080997,-0.42020031928906404,-0.9001452344828037,-1.5729681823820214,-50.79383757117799,0.28191352408886855,tremor
7,6935057,0.044,-0.27843805946417605,-0.42000228698374803,-0.898070714495408,-1.9797760845306402,-53.66640839402541,0.44640794263495714,tremor
8,6935062,0.049,-0.28139685357702976,-0.4197680038597705,-0.8955648471956372,-2.426159552022765,-56.40011393213027,0.5394363672677297,tremor
9,6935066,0.053,-0.28482605617460893,-0.4194979297922413,-0.8926188077274692,-2.912830358915363,-58.97274825967285,0.5561457283306003,tremor
10,6935071,0.058,-0.28872616816800334,-0.41919276258098853,-0.8892270003378708,-3.440269147986702,-61.36262835882196,0.49197383726048866,tremor
11,6935076,0.063,-0.29309553905241764,-0.4188533693628969,-0.8853864248725482,-4.0087067688099385,-63.54883959797232,0.34269955324821505,tremor
12,6935081,0.068,-0.29793032559829036,-0.4184807648929142,-0.881096540227585,-4.618106849449453,-65.51148772347156,0.10449235123210278,tremor
13,6935086,0.073,-0.3032242465656772,-0.41807611048079296,-0.87635936740663,-5.268149909640183,-67.23195460494861,-0.22603929274208476,tremor
14,6935090,0.077,-0.308968287816188,-0.41764071952010473,-0.8711796845656155,-5.958219335771681,-68.69315460114223,-0.6518013237489333,tremor
15,6935095,0.082,-0.31515043071793714,-0.4171760628504325,-0.8655652368128522,-6.687389547343583,-69.87978802788885,-1.1751699998065335,tremor
16,6935121,0.108,-0.3217554341835916,-0.416683771126349,-0.859526923464521,-7.454416690702999,-70.77858781662533,-1.797950947609676,tremor
17,6935126,0.113,-0.32876468038550094,-0.4161656333240662,-0.8530789463644932,-8.257732199802323,-71.37855506229228,-2.521342102364299,tremor
18,6935131,0.118,-0.33615608548301606,-0.4156235914216152,-0.8462389130957044,-9.0954395674204,-71.67117880447152,-3.3459012672275987,tremor
19,6935136,0.123,-0.34390407357693786,-0.41505973166894833,-0.8390278935161966,-9.965314675043194,-71.65063511371245,-4.2715190264015055,tremor
20,6935141,0.128,-0.35197961144895856,-0.4144762729984022,-0.8314704298788256,-10.864810033242504,-71.31396041109164,-5.297397722637653,tremor
21,6935146,0.133,-0.3603503019105873,-0.41387555315180874,-0.8235945013376621,-11.791063281254667,-70.66119395253845,-6.422037163286195,tremor
22,6935150,0.137,-0.3689805340581492,-0.41326001308342836,-0.8154314436699089,-12.740910278480701,-69.69548455970306,-7.643227649784143,tremor
23,6935155,0.142,-0.3778316890937096,-0.41263218016588643,-0.8070158249262662,-13.710903087673234,-68.42315697454201,-8.958050834343986,tremor
24,6935160,0.147,-0.3868624005016051,-0.41199465068883667,-0.7983852776437222,-14.697333097417225,-66.85373366001696,-10.362888795320014,tremor
25,6935165,0.152,-0.39602886722752745,-0.4113500720974472,-0.7895802882927007,-15.69625945910162,-64.99990847129682,-11.853441591051192,tremor
26,6935170,0.157,-0.40528521808923207,-0.41070112536620385,-0.7806439448173778,-16.703542920007543,-62.87746938650173,-13.424753403488033,tremor
27,6935174,0.161,-0.41458392496658264,-0.41005050783774133,-0.7716216434727659,-17.714885017769642,-60.50516841532963,-15.071247220209115,tremor
28,6935179,0.166,-0.4238762613908947,-0.4094009167714692,-0.7625607566620933,-18.72587246104189,-57.90453789102487,-16.786767828968568,tremor
29,6935189,0.176,-0.4331128020001738,-0.40875503373891064,-0.7535102641228988,-19.73202635819519,-55.09965357892611,-18.564632715624654,tremor
30,6935194,0.181,-0.44224395697517943,-0.40811550987022466,-0.7445203505822315,-20.728855775177227,-52.11684638139985,-20.3976902682762,tremor
31,6935199,0.186,-0.4512205340610904,-0.40748495180057986,-0.7356419738722256,-21.71191491213577,-48.984365863264024,-22.27838450297536,tremor
32,6935203,0.19,-0.45999431916783945,-0.4068659079909985,-0.7269264084275434,-22.676862993313687,-45.73200034203949,-24.19882534517916,tremor
33,6935208,0.195,-0.46851866490009386,-0.4062608549151077,-0.71842477002925,-23.61952577277303,-42.390659855719015,-26.15086333052212,tremor
34,6935213,0.2,-0.476749074771358,-0.4056721824228159,-0.7101875285697943,-24.535957375064573,-38.9919299005805,-28.12616743009881,tremor
35,6935218,0.205,-0.4846437693784198,-0.4051021774269845,-0.7022640164509502,-25.422501018587514,-35.56760537849649,-30.116304558389544,tremor
36,6935250,0.237,-0.49216421952426836,-0.4045530049220917,-0.6947019409552913,-26.275847012791882,-32.14921565066442,-32.11281918629634,tremor
37,6935260,0.247,-0.49927563028085287,-0.40402668524863994,-0.6875469095083323,-27.09308628657458,-28.767552855133772,-34.10731136740073,tremor
38,6935265,0.252,-0.5059473594706888,-0.40352506648485587,-0.6808419770970984,-27.871757619532016,-25.4522164834288,-36.091511424266635,tremor
39,6935270,0.257,-0.5121532543292829,-0.4030497909091502,-0.6746272251176432,-28.60988675534518,-22.231187311781735,-38.05734958097096,tremor
40,6935275,0.262,-0.5178718915133849,-0.40260225466449867,-0.6689393804820346,-29.30601571903938,-19.130442941981006,-39.99701899649121,tremor
41,6935284,0.271,-0.5230867083020876,-0.40218356008461087,-0.6638114828919246,-29.95922094385067,-16.173625509392206,-41.9030309333359,tremor
42,6935289,0.276,-0.5277860167125126,-0.4017944606023365,-0.6592726068404205,-30.56911920794637,-13.38176985065649,-43.76826114042782,tremor
43,6935294,0.281,-0.5319628970585709,-0.40143529872549066,-0.6553476432459149,-31.135860841892498,-10.77309787159609,-45.58598689961583,tremor
44,6935299,0.286,-0.5356149728909555,-0.40110593819717505,-0.6520571437622408,-31.66011015658151,-8.362882193976017,-47.34991456063998,tremor
45,6935308,0.295,-0.5387440749261952,-0.40080569211546885,-0.6494172288438328,-32.143013530310824,-6.163379497591243,-49.05419775728784,tremor
46,6935318,0.305,-0.5413558071511582,-0.4005332494257566,-0.6474395586533921,-32.586156060933455,-4.183831403893086,-50.69344684526647,tremor
47,6935323,0.31,-0.5434590333911365,-0.4002866027649636,-0.6461313639606062,-32.99150811330142,-2.4305283715989328,-52.26273041622906,tremor
48,6935327,0.314,-0.545065306820294,-0.40006298106843324,-0.6454955323774899,-33.36136345027542,-0.9069300152473737,-53.75757000711321,tremor
49,6935332,0.319,-0.5461882677578871,-0.3998587905867895,-0.6455307436963015,-33.69827090735636,0.38616637278102983,-55.1739293236675,tremor
50,6935337,0.324,-0.5468430363687619,-0.3996695679637948,-0.646231646816208,-34.004961748868595,1.4504184627650265,-56.50819941970689,tremor
51,6935342,0.329,-0.5470456265308127,-0.3994899487919014,-0.647589069818575,-34.28427493265259,2.289702729966566,-57.75718131333178,tremor
52,6935368,0.355,-0.5468124052742475,-0.3993136546101354,-0.6495902542130143,-34.5390825178391,2.909859766730914,-58.91806747651342,tremor
53,6935373,0.36,-0.5461596190433333,-0.3991335006708793,-0.6522191042621672,-34.77221737544625,3.318431113129117,-59.988423506672866,tremor
54,6935378,0.365,-0.54510300382124,-0.3989414260159885,-0.6554564426547654,-34.986405192988926,3.524396947094283,-60.96617108451206,tremor
55,6935388,0.375,-0.5436574911738377,-0.3987285465149322,-0.6592802646890907,-35.18420249239299,3.537922749826463,-61.84957305479328,tremor
56,6935392,0.379,-0.5418370168334363,-0.398485230584351,-0.6636659845523296,-35.36794201575018,3.370121384656232,-62.637221158118415,tremor
57,6935397,0.384,-0.5396544329039772,-0.3982011963914828,-0.6685866691243485,-35.539686411091004,3.032835087389331,-63.32802662159701,tremor
58,6935402,0.389,-0.5371215194548676,-0.3978656285039176,-0.6740132567885068,-35.70119071437837,2.5384399047066,-63.92121351498649,tremor
59,6935407,0.394,-0.5342490864566384,-0.3974673112350637,-0.6799147607642891,-35.85387370955557,1.8996733226330245,-64.41631451951305,tremor
60,6935412,0.399,-0.5310471528933114,-0.396994775380491,-0.6862584582927894,-35.9987978789079,1.129484299369165,-64.81316855242056,tremor
61,6935417,0.404,-0.5275251865890711,-0.39643645465893146,-0.6930100684709669,-36.13665734772389,0.24090369908859263,-65.1119195483012,tremor
62,6935421,0.408,-0.5236923859022209,-0.39578084796488383,-0.7001339225635664,-36.267772993932084,-0.7530677628975398,-65.31301562198819,tremor
63,6935431,0.418,-0.5195579830505999,-0.3950166835008735,-0.7075931311916633,-36.392093745500866,-1.8395574984678869,-65.41720782634518,tremor
64,6935436,0.423,-0.5151315485071662,-0.3941330809726081,-0.7153497529147407,-36.50920303106563,-3.005908592220352,-65.42554776464686,tremor
65,6935441,0.428,-0.5104232766738307,-0.39311970828065396,-0.7233649684289224,-36.61832938120838,-4.239760447633556,-65.33938340919319,tremor
66,6935445,0.432,-0.5054442348859356,-0.3919669295072071,-0.7315992639564476,-36.718360290242984,-5.529125668733318,-65.16035260042797,tremor
67,6935450,0.437,-0.5002065606322251,-0.390665941455007,-0.7400126264741516,-36.807858622670565,-6.862465677203144,-64.89037383898255,tremor
68,6935455,0.442,-0.4947235955305028,-0.38920889652537455,-0.7485647523063143,-36.88508105741425,-8.228766764604416,-64.53163412420054,tremor
69,6935460,0.447,-0.4890099488462029,-0.38758901030040777,-0.7572152693798913,-36.947998278139316,-9.617617383982598,-64.08657372989268,tremor
70,6935465,0.452,-0.4830814879141743,-0.3858006527962655,-0.7659239721944575,-36.994316817978856,-11.019286546483436,-63.55786794057698,tremor
71,6935493,0.48,-0.4769552574435331,-0.3838394229539423,-0.7746510673689586,-37.021502638989894,-12.42480224354298,-62.94840590162228,tremor
72,6935497,0.484,-0.4706493340481518,-0.38170220649867853,-0.7833574265547966,-37.026806661877,-13.82602790710876,-62.26126686465914,tremor
73,6935502,0.489,-0.46418262610280836,-0.3793872177859454,-0.792004842616816,-37.00729254973037,-15.215734122586388,-61.49969422893034,tremor
74,6935512,0.499,-0.4575746318170905,-0.37689402661125404,-0.8005562843590344,-36.95986708007846,-16.587662218145265,-60.66706787795883,tremor
75,6935517,0.504,-0.45084517000129415,-0.37422357115758054,-0.8089761447732764,-36.88131340957528,-17.93657603961009,-59.76687537837447,tremor
76,6935526,0.513,-0.44401409836235395,-0.37137815828768395,-0.8172304778267303,-36.76832745405759,-19.2582981883253,-58.80268264040677,tremor
77,6935531,0.518,-0.43710103351804647,-0.3683614522921104,-0.8252872191368661,-36.61755748782712,-20.54972721211761,-57.77810464011218,tremor
78,6935541,0.528,-0.4301250855382464,-0.36517845302344043,-0.8331163864455112,-36.42564692272953,-21.808832655480312,-56.696776776948255,tremor
79,6935546,0.533,-0.4231046179701041,-0.36183546412549417,-0.8406902565361043,-36.18928007056198,-23.03462546348357,-55.56232739261605,tremor
80,6935551,0.538,-0.4160570421807066,-0.35834005183541323,-0.8479835160829076,-35.90523052947537,-24.227101969975166,-54.37835191467938,tremor
81,6935556,0.543,-0.4089986526058034,-0.35470099462044147,-0.8549733848262299,-35.570411670648646,-25.387160563453712,-53.148389017111285,tremor
82,6935561,0.548,-0.40194450723257363,-0.3509282237260018,-0.8616397103868588,-35.181928538980614,-26.516491094988634,-51.875899111281306,tremor
83,6935566,0.553,-0.39490835543852976,-0.34703275456779137,-0.8679650349258252,-34.73713032660982,-27.617438151781,-50.56424539161229,tremor
84,6935570,0.557,-0.387902613202617,-0.3430266088052529,-0.8739346346877507,-34.23366243802495,-28.69284044323343,-49.21667755608983,tremor
85,6935575,0.562,-0.380938383728451,-0.3389227268929791,-0.8795365342063538,-33.66951704644117,-29.74584970619034,-47.83631820330798,tremor
86,6935585,0.572,-0.3740255196948578,-0.33473487092635956,-0.8847614975716822,-33.043080946964004,-30.779733703982938,-46.42615178024217,tremor
87,6935590,0.577,-0.3671727216920656,-0.3304775176841309,-0.8896029996367842,-32.35317944566316,-31.797669039284497,-44.98901582622473,tremor
88,6935622,0.609,-0.3603876659333619,-0.3261657419297738,-0.8940571803554265,-31.599114988383402,-32.80253057714137,-43.52759413677918,tremor
89,6935632,0.619,-0.3536771530971149,-0.321815090271139,-0.8981227855702933,-30.78069923610801,-33.79668518435927,-42.04441136692633,tremor
90,6935637,0.624,-0.3470472692565521,-0.31744144619251086,-0.9018010974931535,-29.898277350839425,-34.78179804449748,-40.54182852659619,tremor
91,6935642,0.629,-0.34050354946755135,-0.31306088725339837,-0.905095857826158,-28.952743391187838,-35.75865975745864,-39.02203881783517,tremor
92,6935646,0.633,-0.33405113489321286,-0.30868953587162734,-0.908013185978683,-27.94554594881501,-36.72704162958824,-37.48706334474553,tremor
93,6935651,0.638,-0.3276949154491242,-0.30434340555154865,-0.9105614941693833,-26.87868348337754,-37.68558507165354,-35.93874639035334,tremor
94,6935666,0.653,-0.32143965182564505,-0.3000382448640053,-0.9127514004099443,-25.754689212360724,-38.631729064899666,-34.37875017742442,tremor
95,6935670,0.657,-0.3152900732524097,-0.29578938191898113,-0.9145956394835378,-24.576605854011145,-39.561677447465456,-32.80854928353956,tremor
96,6935680,0.667,-0.30925095031978556,-0.29161157247321495,-0.9161089710895753,-23.34795097637336,-40.47040548636813,-31.229425135049592,tremor
97,6935700,0.687,-0.30332714529800325,-0.2875188551453361,-0.9173080833638692,-22.072674138570388,-41.35170300021239,-29.64246122868727,tremor
98,6935705,0.692,-0.29752364533727593,-0.2835244174128051,-0.918211489062954,-20.755107380512,-42.198249378295124,-28.048539891384458,tremor
99,6935710,0.697,-0.2918455862326016,-0.27964047606726855,-0.9188394109378036,-19.399910878425693,-43.00171442270712,-26.44834145798531,tremor
100,6935715,0.702,-0.28629827562145416,-0.27587817554160954,-0.9192136523790541,-18.012015696338104,-43.75287821123023,-24.842346702096606,tremor
101,6935742,0.729,-0.2808872242394333,-0.2722475069607191,-0.9193574494538096,-16.59656551414313,-44.44176319374416,-23.2308431992071,tremor
102,6935747,0.734,-0.2756181921813237,-0.2687572499326906,-0.9192953010661367,-15.158859022356355,-45.05777237632457,-21.61393606230548,tremor
103,6935752,0.739,-0.270497254290929,-0.2654149380655831,-0.919052775157319,-13.704294380884063,-45.58982853226484,-19.991563207546218,tremor
104,6935761,0.748,-0.2655308852883419,-0.26222684807702396,-0.9186562905265989,-12.238316779744489,-46.02651076551699,-18.36351501182455,tremor
105,6935766,0.753,-0.2607260615221429,-0.2591980112731019,-0.9181328758301888,-10.766369745757327,-46.35618633044039,-16.72945793596697,tremor
106,6935780,0.767,-0.25609037272457486,-0.2563322452020536,-0.9175099093805094,-9.293850446515854,-46.567137258926,-15.08896142278206,tremor
107,6935785,0.772,-0.25163213417113905,-0.25363220250196455,-0.9168148452713921,-7.826068887152984,-46.64768291700097,-13.441527153461415,tremor
108,6935795,0.782,-0.24736048744355266,-0.25109943340469787,-0.9160749328678189,-6.368210603802921,-46.58630094827507,-11.786619575494786,tremor
109,6935800,0.787,-0.243285476750421,-0.24873445806188915,-0.9153169376424303,-4.9253022472603,-46.37174999415403,-10.123696520298518,tremor
110,6935805,0.792,-0.2394180876004447,-0.24653684483702867,-0.914566871620511,-3.502179330098376,-45.99319797443669,-8.452238726517345,tremor
111,6935810,0.797,-0.23577023560880728,-0.24450529094910375,-0.9138497413141531,-2.103455382958876,-45.44035951016934,-6.7717771810778125,tremor
112,6935815,0.802,-0.2323546953400564,-0.24263770232144907,-0.9131893200719141,-0.7334918286246582,-44.70364530449248,-5.081917375951718,tremor
113,6935820,0.807,-0.22918496228100657,-0.24093127013210805,-0.9126079503739924,0.6036319685592932,-43.77432504997833,-3.382359837070222,tremor
114,6935839,0.826,-0.2262750451771428,-0.23938254232335826,-0.9121263799018059,1.904148789401243,-42.64470379653961,-1.672916594373672,tremor
115,6935866,0.853,-0.2236391908861603,-0.23798748915530327,-0.911763633328996,3.1646337871587873,-41.30830979041365,0.04647639045450097,tremor
116,6935871,0.858,-0.22129154931482115,-0.23674156272763586,-0.9115369198377521,4.382034496996142,-39.760089738923114,1.7757504692738435,tremor
117,6935876,0.863,-0.219245791389299,-0.23563975117974353,-0.911461574496774,5.553699900155521,-37.99660554788891,3.5146985503995922,tremor
118,6935881,0.868,-0.21751469762120215,-0.23467662893753885,-0.9115510299994042,6.677407510726677,-36.016225164952814,5.262971465035035,tremor
119,6935886,0.873,-0.21610973796944807,-0.2338464048432073,-0.9118168139843041,7.7513872654674945,-33.819299462957325,7.020075523705998,tremor
120,6935891,0.878,-0.21504066501453095,-0.23314297025361017,-0.912268566313594,8.774340934675232,-31.408317091035855,8.785370392531771,tremor
121,6935896,0.883,-0.21431514201556418,-0.23255994923089668,-0.9129140702672676,9.745455813038026,-28.788029739791696,10.558066562656743,tremor
122,6935900,0.887,-0.21393842548901862,-0.2320907527984017,-0.9137592915991042,10.664411573105834,-25.96554115362616,12.337221872473481,tremor
123,6935905,0.892,-0.2139131188489231,-0.23172863892283987,-0.9148084197532873,11.531379357980336,-22.950354376480448,14.121736748092125,tremor
124,6935910,0.897,-0.21423900968221213,-0.23146677943722793,-0.9160639062262838,12.347012441010918,-19.754373065167506,15.910348038333213,tremor
125,6935915,0.902,-0.21491299868855118,-0.23129833456689272,-0.9175264960329639,13.11242807261466,-16.391854188840185,17.701621526275716,tremor
126,6935920,0.907,-0.2159291234741431,-0.23121653509544973,-0.9191952494457853,13.82918045261404,-12.879311006034422,19.493943391814206,tremor
127,6935930,0.917,-0.21727867552404287,-0.2312147715436579,-0.9210675525536434,14.499225098295685,-9.235366828154753,21.285511070413875,tremor
128,6935935,0.922,-0.21895040403706423,-0.23128668906873837,-0.9231391166524044,15.124875211995352,-5.480561690492996,23.07432409330924,tremor
129,6935940,0.927,-0.22093079612441235,-0.2314262861649293,-0.9254039679409444,15.708750973236363,-1.637115596223832,24.858175594519103,tremor
130,6935950,0.937,-0.2232044193669242,-0.23162801469991182,-0.9278544303561058,16.25372297195268,2.2713465937786532,26.63464522285999,tremor
131,6935955,0.942,-0.22575431008327557,-0.23188687839706423,-0.9304811055401159,16.762851242114916,6.220102339028657,28.401094201245044,tremor
132,6935959,0.946,-0.22856238901461082,-0.2321985266041442,-0.9332728548102663,17.23932152921365,10.183663396075984,30.154663238072096,tremor
133,6935985,0.972,-0.23160988554954412,-0.23255934009764367,-0.9362167885310227,17.686380511540015,14.13612459542918,31.89227392910727,tremor
134,6935990,0.977,-0.23487775209590186,-0.23296650576802114,-0.9392982684395532,18.107271683597023,18.051520967789905,33.61063420401688,tremor
135,6935995,0.982,-0.238347051660734,-0.23341807731056188,-0.9425009282417133,18.505173506737197,21.904184623321623,35.306248273442,tremor
136,6936000,0.987,-0.24199930394978916,-0.2339130194938295,-0.9458067171965516,18.88314126056067,25.669092985503443,36.97543141800428,tremor
137,6936005,0.992,-0.24581677811132194,-0.23445123416168132,-0.9491959704909925,19.244053820451345,29.322200522809656,38.61432982781255,tremor
138,6936009,0.996,-0.24978272338884466,-0.2350335667975477,-0.9526475090517951,19.590566370860767,32.840746941254,40.21894555206721,tremor
139,6936015,1.002,-0.2538815322041739,-0.23566179318253927,-0.9561387701490306,19.925069858318306,36.20353579881319,41.7851664580075,tremor
140,6936020,1.007,-0.2580988334044212,-0.23633858635575802,-0.9596459688115903,20.249657797495715,39.39117860053502,43.308800931237286,tremor
141,6936030,1.017,-0.26242151645915196,-0.23706746469124798,-0.9631442887803435,20.566100864078194,42.386300587128396,44.78561687975247,tremor
142,6936035,1.022,-0.26683769020239095,-0.23785272241048427,-0.9666081005295566,20.875829532544252,45.173705610991625,46.21138443793155,tremor
143,6936039,1.026,-0.2713365822063003,-0.2386993442348117,-0.9700112028412055,21.179924839560034,47.7404986721016,47.581921613371094,tremor
144,6936045,1.032,-0.2759083869804658,-0.23961290614530667,-0.973327083560171,21.47911717350186,50.07616582965826,48.89314198934606,tremor
145,6936049,1.036,-0.28054407285794597,-0.24059946436975202,-0.9765291945162633,21.773792811479304,52.17261228323014,50.14110349785996,tremor
146,6936054,1.041,-0.28523515863217547,-0.24166543478304617,-0.979591235174261,22.064007753600947,54.024160402294996,51.32205721759663,tremor
147,6936059,1.046,-0.28997347175291516,-0.24281746492067394,-0.9824874393493397,22.349508246498193,55.62751035073983,52.43249512801243,tremor
148,6936064,1.051,-0.29475090019195643,-0.24406230079535896,-0.9851928592804092,22.62975724909745,56.98166668238495,53.46919576274856,tremor
149,6936069,1.056,-0.2995591499631426,-0.24540665069751502,-0.9876836414701383,22.903965976384562,58.08783486296326,54.42926674919727,tremor
150,6936074,1.061,-0.30438951973230416,-0.24685704816353263,-0.9899372889649213,23.171129563409348,58.94929210042364,55.31018329412204,tremor
151,6936079,1.066,-0.3092327029878931,-0.24841971631503787,-0.9919329051492659,23.43006582315128,59.57123714099624,56.109821776693806,tremor
152,6936084,1.071,-0.31407862688035854,-0.2501004358007136,-0.9936514146549132,23.67945602812205,59.96062381630059,56.82648773950499,tremor
153,6936109,1.096,-0.31891633511045675,-0.25190441859680446,-0.9950757576224172,23.917886626372034,60.125983109287034,57.458937722866224,tremor
154,6936114,1.101,-0.3237339202043631,-0.25383618992406987,-0.9961910542857976,24.143890810178412,60.07723834385494,58.00639456194887,tremor
155,6936119,1.106,-0.32851850823657774,-0.25589948049261646,-0.9969847376545152,24.35598889765011,59.82551779196964,58.46855594984935,tremor
156,6936124,1.111,-0.33325629667019985,-0.2580971311635557,-0.9974466529044381,24.552726572711038,59.382968537035545,58.8455962505428,tremor
157,6936129,1.116,-0.33793264362481545,-0.2604310118978692,-0.9975691229171307,24.732710157782908,58.76257486051274,59.13816171393568,tremor
158,6936134,1.121,-0.3425322046915698,-0.26290195654821424,-0.9973469801868705,24.894638253265192,57.97798378395864,59.347359394336195,tremor
159,6936139,1.126,-0.3470391114918606,-0.265509714658129,-0.9967775660228647,25.037329250102214,57.04333975939264,59.47474020011922,tremor
160,6936143,1.13,-0.35143718458207834,-0.26825292099317893,-0.9958606985980559,25.159744391516043,55.97312989806974,59.52227660412917,tremor
161,6936148,1.135,-0.35571017207988986,-0.27112908306692973,-0.9945986119309219,25.261006218386797,54.782040582973806,59.49233562054991,tremor
162,6936153,1.14,-0.3598420045510282,-0.27413458646396877,-0.9929958683310506,25.340412374467043,53.48482583455753,59.3876477058191,tremor
163,6936158,1.145,-0.36381705626108307,-0.2772647173215479,-0.9910592471908578,25.397444869698322,52.096187396171665,59.211272272217506,tremor
164,6936163,1.15,-0.36762040286607933,-0.2805137009273055,-0.9887976132624738,25.431775001141247,50.63066617148324,58.96656051738456,tremor
165,6936168,1.155,-0.37123806597910225,-0.2838747550374078,-0.986221767723256,25.443264211042784,49.10254437251551,58.657116275051344,tremor
166,6936177,1.164,-0.37465723578094745,-0.28734015622874465,-0.9833442854148858,25.431961220906803,47.525757514832186,58.28675558481268,tremor
167,6936182,1.169,-0.3778664638920174,-0.2909013173778671,-0.9801793416490958,25.398095821775648,45.91381521976904,57.85946566381158,tremor
168,6936187,1.174,-0.38085582002411916,-0.29454887421236886,-0.976742531909908,25.342069729222825,44.27972965286792,57.37936394119808,tremor
169,6936192,1.179,-0.3836170074100739,-0.2982727788097099,-0.9730506876425755,25.264444932339025,42.63595035137546,56.85065778619051,tremor
170,6936197,1.184,-0.3861434335917159,-0.3020623979231578,-0.9691216910967579,25.165929983498728,40.99430418400769,56.277605521537524,tremor
171,6936202,1.189,-0.3884302347638929,-0.3059066140878795,-0.9649742918840882,25.047364692489207,39.36593925207305,55.66447926594924,tremor
172,6936207,1.194,-0.3904742534638487,-0.30979392758975,-0.9606279275226396,24.909703706131534,37.76127168774682,55.01553009106662,tremor
173,6936244,1.231,-0.3922739709154148,-0.3137125575495276,-0.9561025497833152,24.75399947282207,36.18993453930263,54.33495590807945,tremor
174,6936249,1.236,-0.39382939675779083,-0.3176505405707495,-0.9514184581470401,24.58138510669675,34.66072826357901,53.62687241076677,tremor
175,6936254,1.241,-0.39514192020485045,-0.32159582561092814,-0.946596141169201,24.393057668063697,33.18157277664984,52.89528728893415,tremor
176,6936258,1.245,-0.3962141279079007,-0.32553636395977814,-0.9416561260952818,24.190262350838047,31.75946152690531,52.14407778639312,tremor
177,6936268,1.255,-0.39704959494850733,-0.32946019344792676,-0.9366188367489456,23.974278004798588,30.40041860047673,51.37697151918305,tremor
178,6936273,1.26,-0.39765265645934395,-0.3333555162669379,-0.9315044595632748,23.746404323638128,29.109460374291135,50.59753031332224,tremor
179,6936278,1.265,-0.3980281683082844,-0.3372107700538828,-0.9263328176485908,23.50795090911052,27.890563625789657,49.80913669238685,tremor
180,6936283,1.27,-0.39818126599317005,-0.341014692173605,-0.9211232529547344,23.260228285203535,26.74664224091741,49.014982563763176,tremor
181,6936287,1.274,-0.3981171312794131,-0.34475637740827547,-0.9158945168415795,23.004540789391566,25.679534714072446,48.21805962682097,tremor
182,6936292,1.279,-0.3978407760900248,-0.34842532952389577,-0.9106646696592062,22.74218111762816,24.69000451268483,47.42115105234168,tremor
183,6936297,1.284,-0.3973568526849708,-0.35201150741345044,-0.9054509901971471,22.474426156943373,23.7777551032115,46.62682404916104,tremor
184,6936307,1.294,-0.39666949823071984,-0.35550536670277294,-0.9002698960341152,22.20253361904371,22.941461017907613,45.83742303025497,tremor
185,6936311,1.298,-0.39578222046684,-0.3588978978333684,-0.8951368758589756,21.927738907675888,22.17881578911867,45.05506320809935,tremor
186,6936316,1.303,-0.3946978293452017,-0.3621806616892599,-0.8900664347061714,21.651251630118782,21.486596897198744,44.28162457981009,tremor
187,6936321,1.308,-0.3934184172887717,-0.36534582379239755,-0.8850720527370267,21.374251213266884,20.8607470856736,43.51874639656443,tremor
188,6936331,1.318,-0.39194538815999846,-0.36838618793456496,-0.8801661577104376,21.097881210481574,20.296470523793904,42.76782234026971,tremor
189,6936358,1.345,-0.39027953225628503,-0.3712952298327642,-0.8753601106648038,20.82324207517737,19.788341393929432,42.02999674732103,tremor
190,6936363,1.35,-0.3884211418481137,-0.37406713099809885,-0.8706642036611296,20.551382406477465,19.330421639474572,41.306162315962744,tremor
191,6936368,1.355,-0.386370159238647,-0.37669681253572573,-0.8660876678420188,20.283288906866346,18.9163839750558,40.596959790125716,tremor
192,6936373,1.36,-0.3841263474295087,-0.37917996812167715,-0.8616386896920152,20.019875493943555,18.53963599964414,39.90278010128327,tremor
193,6936377,1.364,-0.3816894725502057,-0.38151309501833297,-0.8573244333556964,19.761972150389422,18.193441439649433,39.223769358600684,tremor
194,6936382,1.369,-0.37905948737169753,-0.38369352175356974,-0.853151067206933,19.51031416851841,17.871035109440115,38.559836924045015,tremor
195,6936397,1.384,-0.37623670638549445,-0.38571943101565864,-0.8491237935034578,19.265532449923604,17.565728957280147,37.91066662754602,tremor
196,6936402,1.389,-0.37322196487330767,-0.3875898763947213,-0.8452468807919536,19.0281454587069,17.271007429093526,37.27573099773743,tremor
197,6936406,1.393,-0.37001675685058805,-0.38930479181015215,-0.8415236996080981,18.798553300501815,16.980611232945428,36.65430822704084,tremor
198,6936411,1.398,-0.36662334943571057,-0.39086499277749565,-0.8379567627806334,18.5770342172602,16.688609346318124,36.04550147125174,tremor
199,6936416,1.403,-0.3630448737636744,-0.3922721690598379,-0.834547772144727,18.36374356907055,16.38945972352984,35.448260010688934,tremor
200,6936421,1.408,-0.3592853947666309,-0.3935288686847841,-0.8312976735963041,18.1587151480745,16.078059614020916,34.86140176834267,tremor
201,6936431,1.418,-0.3553499638014328,-0.3946384737516617,-0.8282067221430386,17.96186446751608,15.749786695209716,34.28363668069163,tremor
202,6936441,1.428,-0.3512446591013268,-0.39560516886505526,-0.8252745579495893,17.772993520028532,15.400532351617763,33.71359044284791,tremor
203,6936446,1.433,-0.3469766192875958,-0.3964339033650162,-0.8225002933938953,17.591796428663297,15.02672837869933,33.14982820033322,tremor
204,6936451,1.438,-0.3425540746517191,-0.39713034872852376,-0.8198826099509233,17.417865440442984,14.62536814805956,32.5908778331815,tremor
205,6936456,1.443,-0.3379863796223386,-0.3977008525396408,-0.8174198624483027,17.250696838241108,14.194022869072892,32.03525256660629,tremor
206,6936482,1.469,-0.33328404787548416,-0.39815239023914567,-0.8151101870653392,17.08969655303174,13.7308530914558,31.481472733158512,tremor
207,6936487,1.474,-0.3284587891703571,-0.3984925154848531,-0.8129516085363502,16.934185505388246,13.234615115248747,30.928086587919207,tremor
208,6936492,1.479,-0.3235235445753053,-0.39872930945150237,-0.81094214151916,16.783404939783882,12.704661625116337,30.37369012326583,tremor
209,6936497,1.484,-0.31849251476155827,-0.3988713288844757,-0.8090798811235602,16.63652218388245,12.140935744802805,29.816945830524666,tremor
210,6936502,1.489,-0.3133811748983115,-0.39892755230692967,-0.8073630782144421,16.49263733285231,11.543957841115578,29.256600315823636,tremor
211,6936507,1.494,-0.3082062695636297,-0.3989073235364079,-0.8057901962407298,16.35079132329683,10.914804722635838,28.69150061890591,tremor
212,6936512,1.499,-0.30298578191399944,-0.39882029161274596,-0.8043599478177651,16.20997574373971,10.255081259765083,28.12060903447976,tremor
213,6936517,1.504,-0.29773887290470213,-0.3986763463584225,-0.8030713108885668,16.06914455666006,9.566884811849947,27.543016213966837,tremor
214,6936522,1.509,-0.292485788354575,-0.3984855490574353,-0.8019235258010359,15.92722770815469,8.852763145232622,26.957952335498604,tremor
215,6936526,1.513,-0.2872477338327546,-0.39825805811642345,-0.8009160758936055,15.783146400577111,8.11566675238573,26.364796166880936,tremor
216,6936531,1.518,-0.2820467194590365,-0.3980040500243161,-0.8000486550609379,15.635829622157095,7.358896633733468,25.763081901661838,tremor
217,6936541,1.528,-0.2769053785379712,-0.39773363641170983,-0.7993211262070844,15.484231382705955,6.586048677733091,25.152503713779076,tremor
218,6936546,1.533,-0.2718467653232635,-0.3974567784811654,-0.7987334744670105,15.327348011572129,5.800955769573256,24.53291804378945,tremor
219,6936550,1.537,-0.2668941380148241,-0.3971832004807756,-0.7982857586136993,15.164234848412162,5.007628678544852,23.904343692680268,tremor
220,6936555,1.542,-0.26207073325845875,-0.39692230416620344,-0.797978063238982,14.99402170898428,4.210196635760138,23.266959852470084,tremor
221,6936560,1.547,-0.257399537951764,-0.39668308628857174,-0.7978104532211304,14.815926631209443,3.4128483492895976,22.621102242902506,tremor
222,6936570,1.557,-0.25290306315499805,-0.39647406103224236,-0.7977829308259013,14.629267576741094,2.6197740521984034,21.967257548627018,tremor
223,6936580,1.567,-0.2486031235460302,-0.3963031890207241,-0.7978953947003351,14.433471946884774,1.835109079112707,21.306056359393672,tremor
224,6936605,1.592,-0.24452062439534022,-0.39617781405656144,-0.7981475991829244,14.228083937363817,1.0628794550508813,20.638264804321253,tremor
225,6936609,1.596,-0.24067535676803475,-0.3961046082339112,-0.7985391119340597,14.012769878160913,0.3069500773509789,19.964775039542406,tremor
226,6936614,1.601,-0.2370858008842764,-0.396089525554724,-0.7990692680051638,13.787321765102083,-0.4290237482485131,19.286594703361676,tremor
227,6936624,1.611,-0.2337689374958582,-0.3961377637902772,-0.799737119125429,13.55165918637998,-1.1416404751256108,18.6048354105848,tremor
228,6936633,1.62,-0.23074006777866155,-0.39625373412687886,-0.800541378064497,13.305829794565383,-1.8277911542179155,17.9207003351216,tremor
229,6936638,1.625,-0.2280126433833482,-0.3964410381245568,-0.801480359190867,13.05000839903675,-2.484691957736262,17.235470935179887,tremor
230,6936643,1.63,-0.22559810955801293,-0.3967024516518672,-0.80255191751338,12.784494683031953,-3.109909585157111,16.550492905248166,tremor
231,6936648,1.635,-0.22350576526706606,-0.39703991566620833,-0.803753389332486,12.50970950540684,-3.701379042056487,15.867161485472602,tremor
232,6936653,1.64,-0.22174264470654143,-0.3974545339200101,-0.8050815380089993,12.226189740810264,-4.257413649651293,15.186906313445586,tremor
233,6936658,1.645,-0.22031342446176885,-0.3979465778399288,-0.8065325082689452,11.93458164285682,-4.776707535740102,14.511176057494113,tremor
234,6936663,1.65,-0.21922035982468355,-0.3985154989185243,-0.8081017919750471,11.635632773290142,-5.258331224678564,13.841423115438227,tremor
235,6936668,1.655,-0.21846325262369914,-0.39915994896031937,-0.8097842075158774,11.330182611607725,-5.701721239855293,13.179088690022274,tremor
236,6936673,1.66,-0.21803945148980397,-0.3998778084326724,-0.8115738940105857,11.019152029226012,-6.10666482407816,12.525588555947408,tremor
237,6936678,1.665,-0.21794388397169426,-0.4006662229933056,-0.8134643205188938,10.703531867192137,-6.473280954541342,11.882299811259172,tremor
238,6936687,1.674,-0.21816911851198695,-0.4015216480182059,-0.815448309493118,10.384370886866595,-6.8019987774007005,11.250548858066155,tremor
239,6936697,1.684,-0.21870545320130438,-0.4024399006643522,-0.8175180729075954,10.062763363085816,-7.093534421035235,10.631600787619575,tremor
240,6936726,1.713,-0.21954102762025865,-0.4034162187103893,-0.8196652589381175,9.739836559620558,-7.3488668882311545,10.026650261025507,tremor
241,6936736,1.723,-0.22066195408570016,-0.4044453251718155,-0.8218810068209645,9.416738276709728,-7.56921342053104,9.436813892385855,tremor
242,6936746,1.733,-0.22205246522116895,-0.40552149752894145,-0.8241560076474457,9.094624607772221,-7.756004446270073,8.863124070176234,tremor
243,6936751,1.738,-0.2236950757563984,-0.40663864035698816,-0.8264805693129228,8.774648005386094,-7.910858045949227,8.306524104861063,tremor
244,6936756,1.743,-0.22557075747120972,-0.40779036019471593,-0.8288446845038562,8.457945742289771,-8.035553831322517,7.767864567114761,tremor
245,6936760,1.747,-0.22765912690842036,-0.4089700415909946,-0.831238101282798,8.14562885356791,-8.132006211300283,7.247900675472043,tremor
246,6936765,1.752,-0.22993864572635936,-0.410170923384777,-0.8336503963581741,7.83877164859672,-8.20223714914657,6.747290598023568,tremor
247,6936775,1.762,-0.23238683335455998,-0.411386174375488,-0.8360710514196057,7.538401879779627,-8.248348653230556,6.266594546404389,tremor
248,6936779,1.766,-0.23498049106572677,-0.4126089676182126,-0.8384895329687541,7.245491651005407,-8.27249536361845,5.806274559792839,tremor
249,6936784,1.771,-0.237695935824536,-0.4138325526325918,-0.8408953759100138,6.960949144415747,-8.276857686667567,5.366694898747,tremor
250,6936789,1.776,-0.24050924145892771,-0.4150503248517678,-0.8432782708333098,6.685611239047753,-8.263615978779814,4.948122989216137,tremor
251,6936794,1.781,-0.24339648394323765,-0.41625589166476423,-0.8456281544796631,6.420237087196341,-8.234926281492212,4.550730872659676,tremor
252,6936799,1.786,-0.24633398697468611,-0.41744313442850123,-0.847935302388785,6.165502702447371,-8.192898064609723,4.1745971276666625,tremor
253,6936808,1.795,-0.24929856362213476,-0.4186062658495795,-0.8501904222451112,5.921996597003509,-8.139574350922915,3.8197092321504007,tremor
254,6936813,1.8,-0.252267749661008,-0.4197398821660773,-0.8523847460191237,5.690216485754034,-8.076914486173727,3.485966334213803,tremor
255,6936818,1.805,-0.2552200242973444,-0.42083900960098997,-0.8545101186932443,5.470567051687685,-8.006779691890706,3.1731823960183534,tremor
256,6936823,1.81,-0.25813501432663577,-0.42189914461621114,-0.8565590812042602,5.263358743455449,-7.930921407040371,2.881089670999374,tremor
257,6936848,1.835,-0.26099367834424153,-0.42291628757186345,-0.8585249452482299,5.068807553686369,-7.850972298118358,2.609342472887388,tremor
258,6936852,1.839,-0.2637784683674276,-0.42388696948953025,-0.8604018577783915,4.887035709827763,-7.7684397080502405,2.3575211963071605,tremor
259,6936862,1.849,-0.26647346705666497,-0.4248082717240482,-0.8621848533601972,4.718073202742481,-7.684701235169102,2.1251365528514246,tremor
260,6936867,1.854,-0.2690644995282308,-0.4256778384574467,-0.8638698929929657,4.5618600853343345,-7.601002096590164,1.9116339924671057,tremor
261,6936871,1.858,-0.2715392194338831,-0.4264938820300365,-0.8654538885181072,4.418249491453147,-7.5184539388017875,1.7163982872070682,tremor
262,6936876,1.863,-0.27388716949142344,-0.42725518121068895,-0.8669347122609056,4.287011346072628,-7.438034802425504,1.538758262847881,tremor
263,6936881,1.868,-0.2760998169781204,-0.42796107257972105,-0.8683111920548614,4.167836753900002,-7.360590012115063,1.3779916732898294,tremor
264,6936891,1.878,-0.2781705648762376,-0.4286114352567971,-0.8695830922453167,4.060343062854605,-7.286833835413699,1.2333302224472256,tremor
265,6936905,1.892,-0.2800947394275857,-0.42920666925869355,-0.8707510816439405,3.9640796015927506,-7.217351831274369,1.1039647481513275,tremor
266,6936910,1.897,-0.28186955485605086,-0.4297476678245401,-0.8718166896940742,3.878534086538266,-7.152603885449825,0.989050592261516,tremor
267,6936919,1.906,-0.28349405599820027,-0.4302357841058329,-0.8727822522970912,3.8031396840685567,-7.092927998130799,0.8877131897065184,tremor
268,6936924,1.911,-0.28496903958467973,-0.4306727926889813,-0.8736508488349549,3.7372826991827846,-7.0385449392740655,0.7990539142307843,tremor
269,6936934,1.921,-0.28629695497178653,-0.4310608464980938,-0.8744262319086503,3.6803108448592834,-6.989563911489541,0.7221562178822374,tremor
270,6936939,1.926,-0.2874817852509821,-0.43140242970853526,-0.8751127512150035,3.63154202680094,-6.945989355903228,0.6560920939513685,tremor
271,6936944,1.931,-0.28852890986899543,-0.4317003073785126,-0.8757152728351557,3.5902735555577916,-6.907729003378574,0.5999288794439654,tremor
272,6936969,1.956,-0.2894449501701971,-0.4319574725688933,-0.8762390950396154,3.5557916715396507,-6.874603214886635,0.552736393479431,tremor
273,6936973,1.96,-0.29023759961921075,-0.4321770917667954,-0.876689861557443,3.5273812393046167,-6.846355577210608,0.5135943829889011,tremor
274,6936978,1.965,-0.2909154408619309,-0.4323624494570293,-0.8770734731348414,3.5043354388595764,-6.8226646344142665,0.48160021900063604,tremor
