sample,t_ms,t_s,ax,ay,az,gx,gy,gz,tremor
0,6903205,0.0,-0.31093512135704027,-0.35067747089418316,-0.9466021437332295,4.757034064155693,-14.364578428749315,5.320708011549949,tremor
1,6903210,0.005,-0.31258682341158905,-0.35079905522200283,-0.9458683983949806,4.6716445389297485,-11.498630962625143,4.042149199681122,tremor
2,6903215,0.01,-0.3148183626227736,-0.35096047246540163,-0.9448006438321219,4.57121260041459,-8.91312210395095,2.7685063096325617,tremor
3,6903240,0.035,-0.31765474076089323,-0.3511616082302857,-0.9433342072002321,4.453128428037606,-6.613580106190442,1.4997180970533193,tremor
4,6903245,0.04,-0.32101246295246677,-0.3513944098510733,-0.9414525399755118,4.314753999635114,-4.603688384541924,0.23554169636780828,tremor
5,6903250,0.045,-0.32475925768867897,-0.3516476507878473,-0.9391703471846302,4.1534509287143955,-2.8852889220109015,-1.0244286810621002,tremor
6,6903259,0.054,-0.32876406448179407,-0.35191069626847504,-0.9365137178173352,3.9666095617854964,-1.458399080991047,-2.2807410246667588,tremor
7,6903264,0.059,-0.3329208600563812,-0.35217518523403424,-0.9335077704292573,3.751679072963072,-0.32124128035296406,-3.5340631220313337,tremor
8,6903269,0.064,-0.3371537593735995,-0.3524352929779624,-0.9301715755252299,3.506198291359271,0.5297147867899455,-4.785158785051261,tremor
9,6903274,0.069,-0.34141326020856716,-0.3526873566270528,-0.9265174463681471,3.227827002293482,1.0996974546789937,-6.03486296822599,tremor
10,6903279,0.074,-0.345669943822441,-0.352929340993918,-0.9225521458668358,2.914377474671525,1.3955656728831503,-7.284055988616038,tremor
11,6903283,0.078,-0.3499085039099728,-0.3531603514518996,-0.918278616758946,2.563845981673392,1.4257283458460042,-8.53363699734598,tremor
12,6903298,0.093,-0.35412299576268563,-0.3533802511389995,-0.9136976217445746,2.174444098047823,1.2000496009351522,-9.784496789497673,tremor
13,6903302,0.097,-0.35831333440861163,-0.3535893777551442,-0.9088090980500089,1.7446295733437651,0.7297389203036606,-11.037489978053369,tremor
14,6903307,0.102,-0.36248279410630707,-0.3537883372627397,-0.9036132128368133,1.273136594668981,0.027224929702963627,-12.293406508824619,tremor
15,6903312,0.107,-0.3666362313257184,-0.3539778515181174,-0.8981111676215175,0.7590052627395318,-0.8939883372166609,-13.552942471721352,tremor
16,6903317,0.112,-0.37077880315656947,-0.3541586418346909,-0.8923058098555953,0.2016101078525027,-2.0194836311691557,-14.816670181729329,tremor
17,6903322,0.117,-0.3749150155279422,-0.35433133588316706,-0.8862021014410736,-0.399312536671386,-3.3341115732569686,-16.085007565847175,tremor
18,6903327,0.122,-0.3790479886681498,-0.35449638971900604,-0.8798074814571303,-1.043638513635375,-4.822190337881715,-17.358186999170655,tremor
19,6903337,0.132,-0.383178866817985,-0.3546540199202788,-0.8731321489324028,-1.730831437967958,-6.467722678174489,-18.636223879661717,tremor
20,6903365,0.16,-0.3873063271710123,-0.3548041430355214,-0.8661892824813177,-2.4599202620065648,-8.254627887561611,-19.91888540736347,tremor
21,6903369,0.164,-0.39142616238077993,-0.3549463210524698,-0.8589952069804913,-3.2294792861938393,-10.16698501100666,-21.205660223068485,tremor
22,6903374,0.169,-0.39553092436622656,-0.3550797126295769,-0.8515695127405045,-4.0376112399001896,-12.189282336077394,-22.495729738920623,tremor
23,6903379,0.174,-0.39960962639181963,-0.35520303054231483,-0.8439351293561718,-4.881934206789365,-14.306667068871137,-23.787942131659847,tremor
24,6903384,0.179,-0.4036475066380553,-0.3553145062862429,-0.8361183542149591,-5.7595732927652294,-16.50518825834269,-25.080790049886737,tremor
25,6903389,0.184,-0.40762586042122073,-0.355411863105177,-0.8281488342312417,-6.667158013559342,-18.772025510520876,-26.37239310778713,tremor
26,6903398,0.193,-0.4115219503575869,-0.3554922989026331,-0.8200594985600068,-7.600826405621966,-21.095695809056796,-27.660486207057705,tremor
27,6903408,0.203,-0.4153090044544115,-0.3555524805573677,-0.8118864396987687,-8.556236834159822,-23.466230816095038,-28.94241465361351,tremor
28,6903412,0.207,-0.41895631160678054,-0.35558855109817455,-0.8036687404331777,-9.528588380871732,-25.87531738490668,-30.215136919821106,tremor
29,6903417,0.212,-0.4224294224776369,-0.35559615099349623,-0.7954482444794568,-10.51265053723627,-28.31639470277029,-31.475235748674496,tremor
30,6903422,0.217,-0.42569046140896744,-0.355570454476535,-0.7872692694029612,-11.50280270992789,-30.784702509304314,-32.71893810560314,tremor
31,6903427,0.222,-0.4286985520400389,-0.35550622136884324,-0.7791782614209914,-12.493083775093405,-33.277276168735675,-33.942144259823216,tremor
32,6903432,0.227,-0.4314103558982174,-0.35539786431373044,-0.7712233929870115,-13.477251614874127,-35.79288594498756,-35.14046602616756,tremor
33,6903437,0.232,-0.4337807195798968,-0.35523953072437936,-0.7634541055446065,-14.448852248056756,-38.33191956259887,-36.30927392815967,tremor
34,6903442,0.237,-0.43576342242467947,-0.3550251981305975,-0.7559206014681805,-15.40129783747889,-40.89620898062836,-37.44375276243033,tremor
35,6903446,0.241,-0.43731201293785965,-0.3547487810084524,-0.7486732909090371,-16.327952526836203,-43.4888042274011,-38.53896476124595,tremor
36,6903456,0.251,-0.4383807187333325,-0.3544042466283679,-0.7417622009776501,-17.22222473577044,-46.113699119043844,-39.589919269495056,tremor
37,6903461,0.256,-0.4389254115279176,-0.35398573698437863,-0.7352363563519208,-18.077664232851546,-48.77551569379133,-40.59164757780403,tremor
38,6903488,0.283,-0.4389046057901826,-0.35348769349278425,-0.7291431419334368,-18.888062020001914,-51.47915620281422,-41.539281286876076,tremor
39,6903493,0.288,-0.43828046712367374,-0.3529049808955069,-0.7235276594845661,-19.647550808667667,-54.22943341974163,-42.42813232897137,tremor
40,6903498,0.293,-0.43701980448570454,-0.3522330066948429,-0.7184320911486791,-20.350703662796565,-57.03069167380903,-43.25377256697769,tremor
41,6903508,0.303,-0.4350950190990024,-0.3514678324992796,-0.7138950832577448,-20.992628249682582,-59.88643210517544,-44.012110771261995,tremor
42,6903512,0.307,-0.4324849825994717,-0.3506062738789416,-0.70995116377994,-21.56905410266896,-62.79895597694137,-44.69946477481191,tremor
43,6903522,0.317,-0.4291758177224498,-0.3496459857024191,-0.7066302061475201,-22.076410380641892,-65.7690394163256,-45.31262673717832,tremor
44,6903527,0.322,-0.4251615567446948,-0.3485855304325175,-0.7039569510943567,-22.511891821931812,-68.79565177156796,-45.848919691995604,tremor
45,6903532,0.327,-0.4204446560071596,-0.3474244274741624,-0.701950596613831,-22.873510935999718,-71.87572795852458,-46.306243884442594,tremor
46,6903537,0.332,-0.41503634912068954,-0.34616318237285104,-0.7006244643119179,-23.16013493682941,-75.00400284862089,-46.683111794204876,tremor
47,6903542,0.337,-0.4089568267806081,-0.34480329543532623,-0.6999857483639198,-23.371506461388577,-78.17291307433585,-46.97867115976566,tremor
48,6903552,0.347,-0.40223523725053373,-0.3433472501592903,-0.7000353510704025,-23.50824769332702,-81.3725687668981,-47.19271575207768,tremor
49,6903561,0.356,-0.3949095081871544,-0.3417984826817108,-0.7007678067303628,-23.571848088772953,-84.59079484266023,-47.32568407589281,tremor
50,6903566,0.361,-0.38702599715077474,-0.34016133423905853,-0.7021712932928016,-23.564636444448745,-87.813238670365,-47.37864658820512,tremor
51,6903571,0.366,-0.3786389843935735,-0.338440989315246,-0.7042277291090384,-23.489738526179323,-91.02353845866355,-47.35328238975892,tremor
52,6903576,0.371,-0.36981002682924446,-0.33664340266224785,-0.7069129501932745,-23.351021861090786,-94.20354467064949,-47.25184663905375,tremor
53,6903580,0.375,-0.3606071960395102,-0.3347752186528965,-0.7101969618002055,-23.153029576519437,-97.33358528641249,-47.07713014069617,tremor
54,6903585,0.38,-0.35110422551578174,-0.33284368643383394,-0.7140442569027251,-22.900905345556517,-100.39276478107742,-46.832412668769905,tremor
55,6903612,0.407,-0.34137959300702353,-0.3308565740919586,-0.7184141933241454,-22.600311581898637,-103.35928620873634,-46.521411607743566,tremor
56,6903617,0.412,-0.3315155629339309,-0.3288220845587964,-0.7232614208627308,-22.25734301884296,-106.21078575977204,-46.148227436786186,tremor
57,6903627,0.422,-0.3215972115302191,-0.32674877530275503,-0.7285363497664014,-21.878437703748652,-108.92466963155645,-45.71728745753048,tremor
58,6903631,0.426,-0.31171145398270605,-0.3246454830670417,-0.7341856523927559,-21.470287236497935,-111.4784440760554,-45.23328898377909,tremor
59,6903636,0.431,-0.3019460887703718,-0.32252125408360083,-0.7401527907884297,-21.03974779554171,-113.85003102367914,-44.701142994895314,tremor
60,6903641,0.436,-0.2923888701254498,-0.3203852794158532,-0.7463785641105675,-20.59375317006453,-116.01806355016514,-44.1259190271926,tremor
61,6903646,0.441,-0.2831266155025644,-0.31824683442913554,-0.752801671091586,-20.139230697684194,-117.9621574138662,-43.51279185936409,tremor
62,6903650,0.445,-0.27424435146863974,-0.31611522091062655,-0.7593592839185487,-19.68302072278817,-119.66315675302432,-42.8669903485303,tremor
63,6903655,0.45,-0.2658244987044152,-0.31399971009085775,-0.7659876308121599,-19.231799952317445,-121.10335367041544,-42.19374859585905,tremor
64,6903660,0.455,-0.25794609493379184,-0.31190948476965075,-0.7726225851530416,-18.792008897084617,-122.26668275636997,-41.498259468909474,tremor
65,6903665,0.46,-0.2506840536193599,-0.3098535789215049,-0.7792002591612468,-18.36978345077353,-123.13889254042859,-40.785630391566706,tremor
66,6903685,0.48,-0.24410845621302013,-0.3078408135411615,-0.7856575998667563,-17.97089058455811,-123.7076963558427,-40.06084124761874,tremor
67,6903700,0.495,-0.2382838766796063,-0.3058797280737659,-0.7919329844147939,-17.600668144884942,-123.9629050700469,-39.32870425207539,tremor
68,6903739,0.534,-0.23326873902248849,-0.3039785075300126,-0.7979668106497477,-17.263968870667412,-123.89654345799356,-38.593825749110536,tremor
69,6903748,0.543,-0.22911471170230266,-0.30214490626289,-0.8037020774728566,-16.965109015265885,-123.50295060323218,-37.86057010668002,tremor
70,6903763,0.558,-0.22586614689200135,-0.30038617027342956,-0.8090849478176507,-16.7078223257882,-122.77886280341293,-37.13302615966522,tremor
71,6903768,0.563,-0.2235595766357987,-0.2987089606574221,-0.814065285500857,-16.49522047854683,-121.723475585526,-36.41497691693059,tremor
72,6903773,0.568,-0.22222328105570827,-0.2971192812454471,-0.8185971560213045,-16.329761263909084,-120.33848022487066,-35.709873398112855,tremor
73,6903777,0.572,-0.22187694494593022,-0.2956224135471133,-0.8226392808803284,-16.213225793923467,-118.6280699156796,-35.02081346266383,tremor
74,6903782,0.577,-0.22253141821130065,-0.29422286181255997,-0.8261554353244441,-16.146705794894583,-116.5989113654829,-34.3505263590204,tremor
75,6903787,0.582,-0.22418859293839208,-0.2929243104590898,-0.8291147805479547,-16.130601711051824,-114.26007879561097,-33.70136350340767,tremor
76,6903792,0.587,-0.22684140592485721,-0.29172959538016835,-0.8314921232126331,-16.164631949578737,-111.6229488704875,-33.075295735144536,tremor
77,6903796,0.591,-0.23047397071572212,-0.29064068984371333,-0.8332680974634529,-16.247853184424045,-108.7010567948717,-32.47391701268675,tremor
78,6903801,0.596,-0.23506183801804068,-0.2896587048604092,-0.8344292672507231,-16.37869122856758,-105.50991563213591,-31.89845422780922,tremor
79,6903811,0.606,-0.2405723781315503,-0.2887839031106432,-0.8349681495233435,-16.55498159273145,-102.06680275557098,-31.349782537123517,tremor
80,6903821,0.616,-0.24696527403010796,-0.28801572480702153,-0.8348831615557127,-16.774018481509966,-98.39051918671444,-30.828445352154272,tremor
81,6903826,0.621,-0.25419310921431143,-0.2873528232872021,-0.8341784981267384,-17.032610647620825,-94.50112929821861,-30.334677903268133,tremor
82,6903831,0.626,-0.2622020306880325,-0.2867931077305683,-0.8328639462841743,-17.327142248563028,-90.41968981237262,-29.868433112139808,tremor
83,6903857,0.652,-0.27093246464798815,-0.28633379021753796,-0.8309546468156916,-17.653636646276784,-86.16797804417972,-29.42940838659686,tremor
84,6903867,0.662,-0.2803198609466869,-0.2859714344249015,-0.8284708121988426,-18.00782098085921,-81.76822977303576,-29.017071908175755,tremor
85,6903872,0.667,-0.29029544230126975,-0.285702003562363,-0.82543741072038,-18.385189367297343,-77.24289682738092,-28.630687041441593,tremor
86,6903877,0.672,-0.3007869357539445,-0.28552090565914007,-0.8218838257474834,-18.78106274966092,-72.61443328988754,-28.269333678306186,tremor
87,6903882,0.677,-0.3117192670996541,-0.28542303494005034,-0.8178434979602195,-19.190643811521113,-67.90511718883535,-27.931925636194375,tremor
88,6903886,0.681,-0.3230152036786868,-0.2854028087195565,-0.8133535568873902,-19.609065839918816,-63.136911894025296,-27.617223614542603,tremor
89,6903891,0.686,-0.33459593662218784,-0.28545419993059556,-0.8084544464760426,-20.031434995787087,-58.33136855641748,-27.323843625117995,tremor
90,6903896,0.691,-0.346381599766009,-0.28557076604811144,-0.8031895477799585,-20.45286599106483,-53.50956811273533,-27.050261207346832,tremor
91,6903906,0.701,-0.358291728481759,-0.28574567573358045,-0.7976048002529572,-20.86851167368037,-48.69209879456599,-26.79481209580846,tremor
92,6903910,0.705,-0.3702456671647384,-0.28597173499226963,-0.7917483216418071,-21.273587450970005,-43.89906286251875,-26.555690304595956,tremor
93,6903915,0.71,-0.3821629386740644,-0.286241414975547,-0.7856700251597165,-21.663391813692645,-39.15010455060839,-26.330944813634282,tremor
94,6903920,0.715,-0.39396359228953803,-0.28654688374915616,-0.7794212315740379,-22.0333244307712,-34.46445005606225,-26.11847616829016,tremor
95,6903925,0.72,-0.4055685484643692,-0.28688004435848247,-0.7730542731640696,-22.378903355248507,-29.860949890700347,-25.916034327822196,tremor
96,6903935,0.73,-0.4168999586830242,-0.2872325813354595,-0.7666220862870621,-22.695782818224547,-25.358113996643027,-25.721219026429413,tremor
97,6903940,0.735,-0.42788159709289475,-0.2875960174043798,-0.7601777895929986,-22.979772903760914,-20.974130660623782,-25.53148375676835,tremor
98,6903950,0.745,-0.4384392973891096,-0.28796178156443814,-0.7537742457891479,-23.226862108654107,-16.72686138937864,-25.34414426152973,tremor
99,6903954,0.749,-0.44850144390118185,-0.28832128897693005,-0.7474636062969963,-23.433243411105728,-12.633805502562106,-25.15639213269512,tremor
100,6903986,0.781,-0.4579995202561784,-0.28866603220245235,-0.7412968401526727,-23.59534402375141,-8.712030206933402,-24.96531378479914,tremor
101,6903991,0.786,-0.4668687127910168,-0.2889876823822382,-0.7353232509673159,-23.709858528334376,-4.978064221393184,-24.76791471454161,tremor
102,6903996,0.791,-0.4750485596239869,-0.28927819803724364,-0.7295899884189692,-23.773784639554403,-1.4477554422413421,-24.561148619691053,tremor
103,6904001,0.796,-0.4824836306480282,-0.28952993839048985,-0.724141563184635,-23.784460485799833,1.8639045380616388,-24.341950656180273,tremor
104,6904006,0.801,-0.48912421925919525,-0.28973577760145974,-0.7190193760402078,-23.73960206002327,4.942984169179813,-24.10727387579383,tremor
105,6904015,0.81,-0.4949270236543475,-0.28988921606811546,-0.7142612728432174,-23.637339378866418,7.776837265436773,-23.854127700083417,tremor
106,6904021,0.816,-0.49985579396333113,-0.2899844849685301,-0.709901137277495,-23.476249862118486,10.35434173126326,-23.579617136965588,tremor
107,6904030,0.825,-0.5038819211076084,-0.2900166404196086,-0.7059685327079865,-23.255387481279705,12.666142278259516,-23.28098133511315,tremor
108,6904036,0.831,-0.5069849438950099,-0.2899816439718434,-0.7024884034130587,-22.974306312170715,14.70488683104101,-22.95563001130316,tremor
109,6904040,0.835,-0.5091529523333668,-0.2898764266012449,-0.6994808439629767,-22.63307725545497,16.465445851252277,-22.6011762919056,tremor
110,6904045,0.84,-0.5103828673939986,-0.28969893388102436,-0.6969609437208993,-22.23229685277132,17.945103828858276,-22.21546458682373,tremor
111,6904050,0.845,-0.510680580420849,-0.2894481506010801,-0.694938711472265,-21.773087314120414,19.14371271406958,-21.796592257695703,tremor
112,6904055,0.85,-0.510060938997819,-0.28912410373758785,-0.6934190831371173,-21.257087074279696,20.06379806790354,-21.342924043135856,tremor
113,6904060,0.855,-0.5085475702778078,-0.28872784333959656,-0.6924020134604382,-20.68643140866705,20.7106101520128,-20.85309845418253,tremor
114,6904065,0.86,-0.5061725374595437,-0.28826140157305574,-0.6918826505573644,-20.063722866851943,21.092114013033527,-20.32602564756856,tremor
115,6904070,0.865,-0.5029758301904619,-0.28772773082271885,-0.69185159024386,-19.3919915349562,21.218914793793232,-19.760876619568094,tremor
116,6904075,0.87,-0.49900469508956663,-0.2871306223789176,-0.6922952052238557,-18.67464542716621,21.104116969925457,-19.15706393588074,tremor
117,6904080,0.875,-0.4943128182258292,-0.2864746078154198,-0.6931960424323965,-17.915411638845246,20.763118909911043,-18.514214619083518,tremor
118,6904108,0.903,-0.48895937713479215,-0.2857648456900981,-0.6945332801438817,-17.11826927064634,20.21334701921528,-17.832136246600225,tremor
119,6904112,0.907,-0.4830079856213743,-0.28500699666996626,-0.696283234841683,-16.28737554331462,19.473936628256137,-17.11077774732803,tremor
120,6904122,0.917,-0.47652555983970696,-0.2842070905911633,-0.6984199063311158,-15.426986931508178,18.565369480123824,-16.35018677564732,tremor
121,6904127,0.922,-0.46958113843703814,-0.28337138929658023,-0.7009155482252826,-14.541377494554169,17.509079841392904,-15.550465818981753,tremor
122,6904132,0.927,-0.46224469233418425,-0.2825062493203611,-0.703741249847461,-13.634756819086391,16.327042640800908,-14.711729307333119,tremor
123,6904136,0.931,-0.4545859606156273,-0.2816179885759115,-0.7068675148952155,-12.71119009078118,15.041357583606626,-13.834063936034825,tremor
124,6904141,0.936,-0.44667334793991115,-0.2807127611262507,-0.7102648220016575,-11.774522788462159,13.673843011835359,-12.917494221283512,tremor
125,6904146,0.941,-0.4385729160122492,-0.2797964438628475,-0.7139041526661754,-10.828312363836828,12.245652540441165,-11.961955025233328,tremor
126,6904161,0.956,-0.4303474972699276,-0.27887453849818455,-0.7177574729246898,-9.875769051896414,10.776926316180742,-10.967272446368264,tremor
127,6904165,0.96,-0.4220559533547523,-0.27795209170570084,-0.7217981565747259,-8.919707661347745,9.286487190284557,-9.93315409159614,tremor
128,6904170,0.965,-0.41375259454755314,-0.27703363554302274,-0.7260013397329469,-7.9625118253390825,7.791590204708674,-8.859189341498398,tremor
129,6904175,0.97,-0.4054867694983712,-0.27612314950260397,-0.7303441989265728,-7.0061117537599875,6.307731598247085,-7.744859800655978,tremor
130,6904180,0.975,-0.39730262768471725,-0.27522404468833833,-0.7348061477063954,-6.05197603285567,4.848521109737893,-6.589559705434972,tremor
131,6904185,0.98,-0.3892390504115994,-0.27433916976269734,-0.7393689497727836,-5.101117491998352,3.425618799826416,-5.392625659315255,tremor
132,6904190,0.985,-0.3813297400931659,-0.2734708374901895,-0.7440167496573987,-4.154112631917633,2.0487350516846052,-4.15337469599307,tremor
133,6904195,0.99,-0.3736034521990428,-0.2726208699554849,-0.7487360249369532,-3.211133609512953,0.7256899499716893,-2.871149342585293,tremor
134,6904200,0.995,-0.36608434971177506,-0.27179065988479695,-0.7535154666276532,-2.2719913214434064,-0.5374740390405279,-1.5453680742901834,tremor
135,6904204,0.999,-0.3587924562876227,-0.2709812449653046,-0.7583457967034982,-1.3361877371750308,-1.736334189782362,-0.17557932170998594,tremor
136,6904235,1.03,-0.3517441815876553,-0.2701933916525932,-0.763219533506875,-0.4029753124406756,-2.867894271003354,1.2384829813157223,tremor
137,6904240,1.035,-0.3449528905251191,-0.2694276846938792,-0.7681307170976907,0.5285789223223697,-3.930367095383907,2.6968444242079515,tremor
138,6904245,1.04,-0.3384294876361498,-0.2686846184972248,-0.7730746072383486,1.4595271318526064,-4.922944780292589,4.199237839318203,tremor
139,6904254,1.049,-0.3321829887075134,-0.26796468657331607,-0.7780473666684841,2.390974821561224,-5.845568544907841,5.745055706365942,tremor
140,6904264,1.059,-0.3262210544127926,-0.2672684655828855,-0.7830457415816398,3.3240176997228175,-6.6987088322406985,7.3333089665000575,tremor
141,6904274,1.069,-0.3205504649706731,-0.266596691019668,-0.7880667498799342,4.259683282798735,-7.483164733617527,8.962593596610242,tremor
142,6904279,1.074,-0.31517752037358854,-0.2659503221902756,-0.7931073860454876,5.198878861196406,-8.199889438021449,10.631065866433664,tremor
143,6904283,1.078,-0.3101083569618259,-0.2653305948493137,-0.7981643495453807,6.142346982811452,-8.849846027099845,12.336426767178164,tremor
144,6904288,1.083,-0.30534917740440354,-0.26473906054922886,-0.8032338017604091,7.090629140737495,-9.433895596448952,14.075915694221022,tremor
145,6904293,1.088,-0.30090639694026944,-0.26417761242626975,-0.8083111546153732,8.044037905683009,-9.952717544783305,15.846313108146456,tremor
146,6904298,1.093,-0.2967867136449158,-0.26364849774028964,-0.8133908924536501,9.002637349461216,-10.406760020899892,17.64395159753167,tremor
147,6904303,1.098,-0.29299711430211833,-0.26315431800139283,-0.8184664272731458,9.9662312787065,-10.796217005016667,19.464734528254457,tremor
148,6904313,1.108,-0.28954483007340326,-0.2626980179383609,-0.8235299862464069,10.934358546166507,-11.121027368341172,21.304161293357417,tremor
149,6904317,1.112,-0.2864372575176692,-0.26228286487822006,-0.828572529510782,11.906294534915647,-11.380890544437442,23.157358081384864,tremor
150,6904323,1.118,-0.2836818605915776,-0.26191242029479866,-0.8335836955743978,12.881057818237693,-11.575293187769843,25.019113064530707,tremor
151,6904328,1.123,-0.2812860680507336,-0.26159050532658307,-0.8385517713914088,13.857420979290794,-11.703541389230693,26.883914970461092,tremor
152,6904355,1.15,-0.2792571782223795,-0.26132116194868465,-0.8434636842569128,14.833924621766043,-11.764793628004758,28.74599413275145,tremor
153,6904370,1.165,-0.2776022796044122,-0.2611086112189017,-0.8483050131593443,15.80889370762237,-11.758090597812775,30.59936529328145,tremor
154,6904375,1.17,-0.27632819151590504,-0.2609572096394753,-0.8530600180450476,16.780455513202483,-11.682379274584356,32.43787163048491,tremor
155,6904380,1.175,-0.27544142460958093,-0.2608714042442069,-0.8577116864646489,17.746558688187772,-11.536529991598336,34.25522968698334,tremor
156,6904384,1.179,-0.27494815703955433,-0.26085568660542724,-0.8622417980981356,18.704993109492214,-11.319346718505118,36.04507504912272,tremor
157,6904389,1.184,-0.27485421890556977,-0.2609145456159406,-0.8666310085086645,19.65341041505628,-11.02957205256076,37.80100877464489,tremor
158,6904394,1.189,-0.2751650754738944,-0.2610524186698513,-0.8708589540270376,20.589345259741428,-10.665889516929285,39.51664466574914,tremor
159,6904399,1.194,-0.2758857986142426,-0.26127364074940984,-0.8749043798702677,21.510237451166166,-10.226926572291976,41.18565754053254,tremor
160,6904403,1.198,-0.27702101581097627,-0.2615823909140911,-0.8787452934528344,22.413455199918037,-9.711262262021622,42.80183266362924,tremor
161,6904408,1.203,-0.27857482690727237,-0.2619826357688527,-0.8823591443871117,23.296319759322493,-9.117443606231273,44.35911645278034,tremor
162,6904418,1.213,-0.28055068033490754,-0.2624780696449043,-0.8857230319308829,24.15613173573069,-8.444014707446065,45.85166847919195,tremor
163,6904423,1.218,-0.2829512028991019,-0.26307205144122897,-0.8888139396740148,24.990199318714744,-7.689561998031532,47.273914627005844,tremor
164,6904442,1.237,-0.28577798017445244,-0.26376753833094924,-0.891608996119704,25.795868605304236,-6.852778121925603,48.62060107608197,tremor
165,6904447,1.242,-0.28903128817639845,-0.2645670168177523,-0.894085758571078,26.570556064129665,-5.932545599233841,49.88684853010482,tremor
166,6904484,1.279,-0.2927097811166749,-0.2654724319247035,-0.8962225164490016,27.31178299582728,-4.928039715481462,51.068205841401536,tremor
167,6904489,1.284,-0.2968101445177738,-0.266485115609127,-0.8979986089145718,28.01721159976278,-3.8388481417262375,52.16070191208302,tremor
168,6904494,1.289,-0.30132672731276716,-0.2676057158205298,-0.8993947505334837,28.684681987104984,-2.665102899364198,53.160894527709374,tremor
169,6904499,1.294,-0.30625117015614123,-0.2688341279386972,-0.900393357794256,29.312249243964672,-1.40761878434688,54.06591466203043,tremor
170,6904504,1.299,-0.3115720494246126,-0.27016943061573906,-0.9009788686666119,29.898219491808174,-0.06803148976114536,54.873504808033495,tremor
171,6904508,1.303,-0.31727455702595353,-0.271609828263369,-0.9011380471158592,30.44118382154742,1.3510716065254291,55.582050021743115,tremor
172,6904513,1.308,-0.3233402352606676,-0.2731526025455775,-0.9008602645900037,30.94004897090248,2.8460348608717947,56.19060056653467,tremor
173,6904518,1.313,-0.3297467838867165,-0.2747940752391149,-0.9001377509575301,31.394063652010615,4.412038408597086,56.69888528267729,tremor
174,6904528,1.323,-0.3364679535305194,-0.2765295847040636,-0.898965808167603,31.802839510508782,6.043028571140562,57.1073150635757,tremor
175,6904533,1.328,-0.3434735359436815,-0.27835347796855525,-0.8973429809880621,32.16636580887016,7.731679470531669,57.41697609036191,tremor
176,6904538,1.333,-0.35072945757376434,-0.28025912008612974,-0.8952711804908218,32.485017078713035,9.46938960934461,57.629612755847404,tremor
177,6904543,1.338,-0.35819797872957626,-0.2822389219856462,-0.8927557574256081,32.75955318037489,11.246315916267633,57.74760049197452,tremor
178,6904548,1.343,-0.3658379964837717,-0.2842843875191077,-0.8898055241714091,32.99111143828645,13.051446367833217,57.77390899360429,tremor
179,6904552,1.347,-0.3736054455384971,-0.28638617984160597,-0.8864327255034725,33.18119077662385,14.872710827301475,57.712056595641904,tremor
180,6904557,1.352,-0.3814537877086596,-0.28853420665015467,-0.882652959891998,33.33162804900049,16.69712824320146,57.56605680043764,tremor
181,6904563,1.358,-0.38933457753364115,-0.2907177231838759,-0.8784850543937835,33.44456702796659,18.51098686831173,57.34035816039245,tremor
182,6904567,1.362,-0.39719808886081803,-0.29292545126464875,-0.8739508973557717,33.52242078519544,20.30005274034914,57.0397788919644,tremor
183,6904604,1.399,-0.4049939850869783,-0.29514571205269263,-0.8690752340761305,33.56782844063872,22.049800360033537,56.66943772983138,tremor
184,6904609,1.404,-0.412672014147065,-0.29736656963066793,-0.8638854312296322,33.583607474398995,23.745658384957252,56.234682619661555,tremor
185,6904614,1.409,-0.4201827084131343,-0.29957598205726554,-0.8584112162331933,33.572702959758146,25.373262352774105,55.74101888111019,tremor
186,6904619,1.414,-0.42747806957667245,-0.30176195621108337,-0.8526843977955035,33.5381351710017,26.91870610406982,55.19403843047043,tremor
187,6904623,1.418,-0.43451221946219054,-0.30391270263357834,-0.8467385736868652,33.482947037780825,28.368783764121535,54.59935153009074,tremor
188,6904628,1.423,-0.44124199953552506,-0.3060167866882608,-0.8406088313437867,33.41015286679764,29.711214787787235,53.96252234914922,tremor
189,6904633,1.428,-0.4476275044495403,-0.30806327264729655,-0.8343314463646535,33.32268964592504,30.93484552261746,53.28900940818279,tremor
190,6904643,1.438,-0.45363253807877496,-0.3100418577415105,-0.8279435833220854,33.2233720955061,32.029821887657796,52.58411175912813,tremor
191,6904648,1.443,-0.45922498391950173,-0.3119429937153188,-0.8214830026525273,33.11485244222935,32.98772904433744,51.85292153109985,tremor
192,6904652,1.447,-0.4643770852928202,-0.31375799397574416,-0.8149877766981923,32.99958566926079,33.801695316788944,51.10028325053912,tremor
193,6904657,1.452,-0.4690656343257639,-0.31547912498510655,-0.8084960172682267,32.87980075207526,34.46645906029247,50.33076012306113,tremor
194,6904662,1.457,-0.4732720720536919,-0.3170996810977957,-0.802045616346253,32.75747813516332,34.97839862740864,49.54860724608705,tremor
195,6904667,1.462,-0.4769825050594085,-0.3186140425656946,-0.7956740007963455,32.63433345435984,35.33552698967306,48.757751511732764,tremor
196,6904677,1.472,-0.48018764673273684,-0.32001771692116865,-0.7894179011179465,32.51180727646796,35.537453891573925,47.96177776547352,tremor
197,6904682,1.477,-0.48288269340748463,-0.32130736438007057,-0.783313133498931,32.39106042366449,35.58531959671184,47.16392061558967,tremor
198,6904691,1.486,-0.4850671472318694,-0.3224808082796316,-0.7773943936637957,32.27297428386157,35.48170527436846,46.36706115081258,tremor
199,6904696,1.491,-0.4867445985828661,-0.32353703186689503,-0.7716950603857079,32.15815538578815,35.230525793806095,45.573727730504245,tremor
200,6904701,1.496,-0.4879224810879596,-0.3244761629724194,-0.76624700612642,32.04694344042792,34.83691107703326,44.78609997500328,tremor
201,6904728,1.523,-0.48861181184303737,-0.32529944823378104,-0.7610804121958652,31.93942201527489,34.30708217675217,44.00601511235139,tremor
202,6904732,1.527,-0.4888269282294745,-0.3260092185706923,-0.7562235861719119,31.835431011601685,33.648227894558524,43.23497593368028,tremor
203,6904737,1.532,-0.4885852308971366,-0.32660884755935293,-0.7517027801261258,31.734580160879183,32.868387037727565,42.474159766869604,tremor
204,6904752,1.547,-0.48790694009139834,-0.32710270421213206,-0.7475420094268802,31.636262852239632,31.976340330942342,41.724428083191285,tremor
205,6904757,1.552,-0.4868148696991362,-0.32749610144701485,-0.7437628734163687,31.53966974997668,30.9815145931937,40.98633658451884,tremor
206,6904761,1.556,-0.4853342203549736,-0.3277952412405526,-0.7403843808775636,31.44380184818776,29.893900178289577,40.26014585271802,tremor
207,6904771,1.566,-0.48349238990667365,-0.3280071571134651,-0.7374227846655423,31.347482822325105,28.723981025301402,39.54583284946125,tremor
208,6904776,1.571,-0.48131879671455574,-0.3281396542182256,-0.734891430945466,31.249370759033003,27.48267513110233,38.84310371210503,tremor
209,6904781,1.576,-0.47884470885470415,-0.32820124690551905,-0.7328006290191206,31.147969560838895,26.18128197998526,38.15140838815113,tremor
210,6904791,1.586,-0.4761030704770945,-0.3282010932682032,-0.7311575476967921,31.041640513357745,24.831432569057537,37.469957682480334,tremor
211,6904796,1.591,-0.47312831547950207,-0.32814892582745864,-0.7299661436202345,30.928614650969266,23.44503723714636,36.797743256127504,tremor
212,6904800,1.595,-0.4699561584183041,-0.328054977269469,-0.7292271259584198,30.807006644679962,22.034226565132695,36.133561013688244,tremor
213,6904805,1.6,-0.4666233532882441,-0.32792989999820366,-0.7289379606116466,30.674830948106756,20.61128115131253,35.47603815263027,tremor
214,6904810,1.605,-0.4631674125193739,-0.3277846782738126,-0.7290929156168326,30.530020867130425,19.18854703458532,34.82366393023546,tremor
215,6904820,1.615,-0.4596262812353173,-0.32763053187851493,-0.7296831479826874,30.37045107037628,17.778334868543205,34.17482394578658,tremor
216,6904825,1.62,-0.4560379653829029,-0.32747881060035394,-0.7306968308118704,30.19396384286543,16.392802547617077,33.52783745269412,tremor
217,6904856,1.651,-0.4524401166030933,-0.3273408793466776,-0.7321193183828619,29.998399115334077,15.043822752334917,32.88099692500193,tremor
218,6904861,1.656,-0.44886958139582744,-0.3272279943765666,-0.733933345939043,29.781627990442843,13.742838676507596,32.23260883076892,tremor
219,6904866,1.661,-0.4453619267787502,-0.3271511719284184,-0.7361192602923314,29.541589159975295,12.500712793437366,31.581034353837868,tremor
220,6904871,1.666,-0.44195095859494543,-0.3271210513319655,-0.7386552769515572,29.27632730281596,11.327574624181995,30.92472870639746,tremor
221,6904876,1.671,-0.43866825124016495,-0.3271477554331588,-0.7415177592359663,28.984032309068095,10.232673911499207,30.262277714832866,tremor
222,6904885,1.68,-0.4355427084995077,-0.3272407517456897,-0.7446815146303302,28.663078011737685,9.22424542233153,29.592430523322587,tremor
223,6904890,1.685,-0.43260017441542054,-0.3274087181311722,-0.7481201034150048,28.312059030169042,8.30939097462615,28.914127499152606,tremor
224,6904895,1.69,-0.42986311088307055,-0.32765941698302414,-0.7518061543472616,27.929824342521975,7.493983360288264,28.226522699343544,tremor
225,6904900,1.695,-0.427350355293261,-0.32799958183835765,-0.7557116819076893,27.515506312203794,6.782595698648656,27.529000540181077,tremor
226,6904905,1.7,-0.4250769673514244,-0.3284348200669176,-0.7598083994112028,27.06854409179102,6.178458472897869,26.82118657733677,tremor
227,6904910,1.705,-0.42305416953923713,-0.3289695347994673,-0.7640680221762495,26.58870060068811,5.683445163030155,26.102952539481425,tremor
228,6904914,1.709,-0.4212893808893912,-0.3296068685902161,-0.7684625550024121,26.076072593628073,5.298086088278506,25.374415955869623,tremor
229,6904919,1.714,-0.41978633912309166,-0.3303486705034235,-0.7729645584709732,25.53109367816271,5.02160889255412,24.635934876257686,tremor
230,6904924,1.719,-0.41854530203014817,-0.3311954874261272,-0.7775473890895588,24.954530473301883,4.8520031117864715,23.888098298001445,tremor
231,6904929,1.724,-0.41756331550139175,-0.33214657949076964,-0.7821854090683582,24.347472402904245,4.786105499673747,23.131712987982635,tremor
232,6904934,1.729,-0.4168345330716381,-0.3331999585932862,-0.786854162535827,23.71131586446014,4.819702288654484,22.367787414998798,tremor
233,6904939,1.734,-0.41635057036654854,-0.3343524481616861,-0.7915305162467747,23.04774369036147,4.947644334564328,21.597513493048297,tremor
234,6904944,1.739,-0.41610087755647707,-0.3355997616147271,-0.7961927642575882,22.35870091523212,5.163971121110961,20.822246782181793,tremor
235,6904949,1.744,-0.4160731138048606,-0.3369365963943726,-0.8008206975811218,21.64636787748576,5.462039849108336,20.043485708507745,tremor
236,6904975,1.77,-0.4162535096809852,-0.33835674009676653,-0.805395641412083,20.913131621739392,5.834656257119758,19.262850258602302,tremor
237,6904980,1.775,-0.41662720642167134,-0.33985318509306206,-0.8099004640264359,20.161556444128927,6.274204353586472,18.482060489950044,tremor
238,6904985,1.78,-0.41717856446883544,-0.34141824813799915,-0.814319562742725,19.394354254692992,6.77277281027924,17.70291509565768,tremor
239,6904990,1.785,-0.41789143741931317,-0.34304369179784067,-0.8186388331796108,18.614355244672673,7.322276295261767,16.92727018464738,tremor
240,6904994,1.789,-0.4187494108922608,-0.3447208450399022,-0.8228456282762077,17.82447916813192,7.914570455968849,16.157018394836676,tremor
241,6904999,1.794,-0.4197360084693609,-0.3464407209334775,-0.826928713110506,17.027707398557563,8.541559583750649,15.394068441971909,tremor
242,6905004,1.799,-0.4208348686254604,-0.3481941300292117,-0.8308782205454361,16.227055814207777,9.195296213744804,14.64032521075982,tremor
243,6905009,1.804,-0.422029897433465,-0.3499717885355251,-0.8346856113148982,15.425548503066107,9.868072061521636,13.897670508830107,tremor
244,6905024,1.819,-0.42330540187195903,-0.3517644208413894,-0.8383436405064214,14.626192255374745,10.552499793917159,13.167944621525992,tremor
245,6905028,1.823,-0.42464620791685415,-0.353562856213033,-0.8418463306685726,13.83195182235402,11.241585198790174,12.452928820885042,tremor
246,6905033,1.828,-0.42603776645149816,-0.3553581196125312,-0.8451889501417791,13.045725955181265,11.92878938188321,11.754328989014505,tremor
247,6905038,1.833,-0.42746624863466565,-0.35714151656837967,-0.8483679938628278,12.270324287466002,12.608080703741491,11.073760508646412,tremor
248,6905043,1.838,-0.4289186309902088,-0.35890471191089646,-0.8513811629826176,11.508445175779714,13.27397629320484,10.412734550798147,tremor
249,6905048,1.843,-0.43038276934622344,-0.3606398020181878,-0.85422733924831,10.762654657596878,13.921573137691505,9.772645856086147,tremor
250,6905052,1.847,-0.4318474599960569,-0.3623393800532781,-0.8569065502387688,10.03536671990752,14.546568940683976,9.154762069610232,tremor
251,6905057,1.852,-0.4333024861486391,-0.36399659355498254,-0.8594199221578226,9.328825093679418,15.145273133006306,8.560214654403937,tremor
252,6905062,1.857,-0.4347386478990553,-0.36560519370330447,-0.8617696179080669,8.645086799405812,15.714608605919555,7.989991377469946,tremor
253,6905072,1.867,-0.43614777455084264,-0.3671595756241301,-0.8639587594934279,7.986007666593828,16.25210488217833,7.444930337958383,tremor
254,6905097,1.892,-0.43752271907477314,-0.36865480922364724,-0.8659913353151367,7.353230033023811,16.755883539582992,6.9257154946715325,tremor
255,6905102,1.897,-0.43885733564890933,-0.3700866602395251,-0.8678720944838519,6.748172795885498,17.22463673743091,6.432873656585607,tremor
256,6905107,1.902,-0.44014644237663364,-0.3714516014460348,-0.8696064316703658,6.172023939549991,17.65759966790549,5.966772925648161,tremor
257,6905112,1.907,-0.44138577217068664,-0.3727468142266643,-0.871200267027971,5.625735614652236,18.05451767996753,5.527622613209895,tremor
258,6905117,1.912,-0.44257191522681344,-0.37397018099633667,-0.8726599261649894,5.11002180273953,18.41560873647938,5.115474671528001,tremor
259,6905122,1.917,-0.4437022564447128,-0.3751202691842943,-0.8739920249887495,4.625358573894493,18.741521797869947,4.73022667931844,tremor
260,6905127,1.922,-0.44477491068786124,-0.3761963076557683,-0.8752033635807125,4.1719869252609625,19.033291694877484,4.3716263975266285,tremor
261,6905132,1.927,-0.44578865807356505,-0.37719815654498834,-0.8763008322570144,3.7499181670519515,19.292291063090715,4.03927787631315,tremor
262,6905136,1.931,-0.4467428807083972,-0.37812627149414985,-0.8772913317782688,3.358941793312321,19.52017996059931,3.7326490535987005,tremor
263,6905146,1.941,-0.4476375015576974,-0.3789816632522186,-0.8781817084320093,2.9986357358399807,19.718853870384656,3.4510807436380198,tremor
264,6905156,1.951,-0.44847292555559987,-0.37976585350053227,-0.8789787035342222,2.668378853253199,19.890390890577578,3.193796873614998,tremor
265,6905161,1.956,-0.4492499826897122,-0.38048082766095354,-0.8796889158853549,2.367365457735002,20.03699902294459,2.959915789406498,tremor
266,6905165,1.96,-0.4499698726645265,-0.3811289853320505,-0.8803187749653841,2.094621635158629,20.160964562296225,2.7484624212640316,tremor
267,6905170,1.965,-0.4506341108519689,-0.38171308891313566,-0.8808745222323745,1.8490230752918997,20.264602645384382,2.558381079370104,tremor
268,6905175,1.97,-0.4512444755278478,-0.38223621092996485,-0.8813621978200364,1.6293141007807312,20.35021102219735,2.3885486400209572,tremor
269,6905185,1.98,-0.4518029567924837,-0.3827016805716128,-0.8817876301758012,1.4341275672492415,20.420028059647912,2.237787885539655,tremor
270,6905190,1.985,-0.4523117079925125,-0.38311302997692903,-0.8821564266668972,1.2620053009782324,20.4761958770188,2.1048807741917988,tremor
271,6905195,1.99,-0.4527730008056266,-0.38347394085704056,-0.8824739638162079,1.111418743783094,20.520729345155804,1.9885814403314863,tremor
272,6905221,2.016,-0.4531891853335215,-0.3837881920922282,-0.8827453765163538,0.9807894861237544,20.555491462181955,1.8876287593748704,tremor
273,6905225,2.02,-0.45356265650592437,-0.38405960898247143,-0.8829755462168057,0.8685093891315906,20.582175361546867,1.8007583538242313,tremor
274,6905230,2.025,-0.45389582781029186,-0.38429201484811487,-0.8831690886026214,0.7729600246404331,20.602292937656195,1.726713958997111,tremor
275,6905235,2.03,-0.4541911128619959,-0.3844891856604183,-0.8833303416216984,0.692531199536197,20.617169818098674,1.6642581032109485,tremor
276,6905240,2.035,-0.45445091469414856,-0.3846548083263024,-0.8834633548422086,0.6256383743981957,20.627946191880646,1.6121820825827275,tremor
277,6905250,2.045,-0.4546776219646986,-0.38479244315979566,-0.8835718810517956,0.5707388307146078,20.635582831347595,1.569315224965781,tremor
278,6905255,2.05,-0.4548736106349772,-0.3849054909535848,-0.8836593708008865,0.5263464789632493,20.640871523549638,1.53453344277876,tremor
