sample,t_ms,t_s,ax,ay,az,gx,gy,gz,tremor
0,6893434,0.0,-0.4568973282723776,-0.3814163485890398,-0.8961377574430601,7.534144811078753,85.04420200208251,-10.849241497363256,tremor
1,6893440,0.006,-0.4549995279412986,-0.3817560765984638,-0.8952790369362251,7.813406461174774,78.66506779009724,-9.434623525899093,tremor
2,6893444,0.01,-0.45253868764121596,-0.382241659866479,-0.894051593966028,8.045132895862372,72.30189675222647,-8.07953435578829,tremor
3,6893449,0.015,-0.44956469866941823,-0.38289309441799346,-0.8924005039648011,8.226202066562951,65.97087377543056,-6.791575730039398,tremor
4,6893454,0.02,-0.4462572510550093,-0.38370509058376956,-0.8903311482728069,8.353490478277914,59.687918360894095,-5.578189903794944,tremor
5,6893459,0.025,-0.44284335893619853,-0.38465650072225016,-0.8878858178277326,8.423882281857738,53.46858571859493,-4.446608062394511,tremor
6,6893464,0.03,-0.4395352413786869,-0.38572070081873383,-0.8851183938069299,8.434281682116803,47.327968467849686,-3.4037978908304005,tremor
7,6893468,0.034,-0.4365039492445737,-0.3868719124715894,-0.8820792001336271,8.38162895982764,41.28059951410141,-2.45641057968097,tremor
8,6893473,0.039,-0.4338763038633936,-0.3880877829811427,-0.8788090508442827,8.262920287243015,35.34035674996126,-1.610727602185321,tremor
9,6893478,0.044,-0.4317417442251878,-0.3893497865887331,-0.8753385851936546,8.075231386227388,29.5203703017464,-0.8726076521960923,tremor
10,6893483,0.049,-0.43016121822562403,-0.3906427065907109,-0.871689796576241,7.8157449403967965,23.832933113251737,-0.24743419298020516,tremor
11,6893488,0.054,-0.4291748742798462,-0.39195389149406273,-0.867878071769269,7.481781532205103,18.289415729563675,0.2599358690578532,tremor
12,6893493,0.059,-0.42880776634316964,-0.39327257794603065,-0.8639140389050401,7.070833736164358,12.900186219041169,0.6452218062139223,tremor
13,6893498,0.064,-0.4290737622769991,-0.39458936484055396,-0.8598050281534511,6.580602863050017,7.674536253095168,0.9047663450448197,tremor
14,6893502,0.068,-0.4299781001439834,-0.39589583570182696,-0.8555561583845855,6.009037719270713,2.6206144489291052,1.0355799012481028,tremor
15,6893527,0.093,-0.43151901441192253,-0.39718429910783515,-0.8511711269359516,5.354374623642229,-2.25463183818706,1.0353810440839006,tremor
16,6893532,0.098,-0.4336887567700249,-0.39844761451215016,-0.8466527836275851,4.615177817240126,-6.945505025752617,0.9026324484908916,tremor
17,6893536,0.102,-0.4364742397521545,-0.3996790766714824,-0.8420035547460454,3.7903793236378056,-11.447594856013254,0.636571608264576,tremor
18,6893541,0.107,-0.4398574562359442,-0.4008723390883543,-0.8372257644002341,2.8793172819268196,-15.757803784036,0.23723562766412898,tremor
19,6893546,0.112,-0.44381577483183504,-0.40202136304121616,-0.8323218850820603,1.8817717896512687,-19.874359132125228,-0.29452052115522714,tremor
20,6893556,0.122,-0.4483221754011129,-0.40312038337196054,-0.8272947376328457,0.7979973475466667,-23.796811135443345,-0.9570127988810747,tremor
21,6893561,0.127,-0.45334546533139936,-0.4041638853808316,-0.8221476527330497,-0.3712489248788164,-27.526016227851695,-1.747724383312165,tremor
22,6893566,0.132,-0.4588505017278388,-0.40514658926713926,-0.8168846007120746,-1.6246840475127986,-31.064105148604632,-2.663309759343461,tremor
23,6893571,0.137,-0.464798434524966,-0.4060634398700609,-0.8115102931631064,-2.960481565075305,-34.41443567858888,-3.699606831164438,tremor
24,6893576,0.142,-0.47114697881550016,-0.4069096002643265,-0.8060302579404915,-4.37626011656101,-37.58153003349727,-4.8516571654336,tremor
25,6893581,0.147,-0.4778507202191615,-0.40768044823917926,-0.800450888160736,-5.869078640406137,-40.570997146228876,-6.113734364877888,tremor
26,6893586,0.152,-0.4848614541011188,-0.4083715749648258,-0.7947794654944067,-7.435438552202624,-43.38944025785499,-7.479380461765265,tremor
27,6893590,0.156,-0.49212855739599237,-0.4089787853126605,-0.7890241580929411,-9.071293106932677,-46.04435040211441,-8.941450110970232,tremor
28,6893605,0.171,-0.49959939037704254,-0.4094980993957187,-0.7831939937806522,-10.772064023866971,-48.543986510784144,-10.492162253304844,tremor
29,6893620,0.186,-0.5072197247242588,-0.4099257549631344,-0.7772988095466713,-12.53266531130897,-50.89724298838087,-12.123158811546192,tremor
30,6893625,0.191,-0.5149341935553121,-0.41025821032944915,-0.7713491788159914,-14.347534084040682,-53.113505713424914,-13.825569875289577,tremor
31,6893651,0.217,-0.5226867585969976,-0.41049214754811275,-0.7653563184102581,-16.210668024560402,-55.202497539765616,-15.59008472903305,tremor
32,6893661,0.227,-0.5304211893223927,-0.41062447554603004,-0.7593319775006935,-18.11566900543999,-57.17411452566782,-17.40702798355766,tremor
33,6893666,0.232,-0.5380815486104844,-0.4106523329231495,-0.7532883112075706,-20.055792266596224,-59.038254343146626,-19.266439985691235,tremor
34,6893670,0.236,-0.5456126792708506,-0.41057309009465115,-0.7472377418300367,-22.02400042816473,-60.80463863626636,-21.15816060770148,tremor
35,6893676,0.242,-0.5529606856021377,-0.4103843504235661,-0.7411928110130029,-24.013021517742875,-62.482631501046455,-23.071915456023916,tremor
36,6893680,0.246,-0.5600734040130586,-0.41008394996765635,-0.7351660264765195,-26.015410100913144,-64.08105672153499,-24.99740348853687,tremor
37,6893690,0.256,-0.5669008566256029,-0.4096699554519554,-0.7291697072348251,-28.023610525588474,-65.60801687529408,-26.924384986960423,tremor
38,6893695,0.261,-0.5733956817051415,-0.40914066008161637,-0.7232158314945104,-30.03002122303459,-67.07071788041574,-28.842768794514576,tremor
39,6893700,0.266,-0.5795135347334125,-0.4084945768327327,-0.7173158916161737,-32.02705895327288,-68.475302965994,-30.742697701243923,tremor
40,6893709,0.275,-0.5852134539797086,-0.40773042890588307,-0.7114807606226663,-34.00722184489345,-69.82670038127642,-32.61463084635528,tremor
41,6893719,0.285,-0.5904581845615197,-0.40684713710186415,-0.7057205747144154,-35.96315006521034,-71.12848938656585,-34.44942201471841,tremor
42,6893724,0.29,-0.595214455253839,-0.4058438039834549,-0.7000446360889463,-37.887682973522494,-72.38278915834982,-36.23839273767919,tremor
43,6893733,0.299,-0.5994532027520769,-0.40471969482167636,-0.6944613400409688,-39.773911668483116,-73.59017515490494,-37.973399169520164,tremor
44,6893738,0.304,-0.6031497387712591,-0.4034742154892949,-0.6889781298263691,-41.615225950909284,-74.74962719608381,-39.646891802183056,tremor
45,6893743,0.309,-0.6062838563249,-0.40210688765651886,-0.6836014821008441,-43.405354889405125,-75.8585130025448,-41.251967202164295,tremor
46,6893748,0.314,-0.6088398728042399,-0.40061732186125837,-0.678336924897544,-45.13840039181772,-76.91261022774104,-42.78241110336623,tremor
47,6893775,0.341,-0.6108066090781917,-0.3990051892653727,-0.673189089105481,-46.80886343888767,-77.90616912293085,-44.232732366439485,tremor
48,6893780,0.346,-0.6121773057248707,-0.39727019316272144,-0.6681617932756988,-48.41166291394967,-78.83201692288053,-45.59818751543702,tremor
49,6893785,0.351,-0.6129494796087623,-0.39541204156054577,-0.6632581603429906,-49.94214725006437,-79.68170384831767,-46.87479577891458,tremor
50,6893795,0.361,-0.6131247262075649,-0.39343042238802367,-0.6584807635406422,-51.396099397773526,-80.44568932286545,-48.05934478258496,tremor
51,6893799,0.365,-0.6127084752131501,-0.391324983064533,-0.6538317974496172,-52.76973587405029,-81.11356565542555,-49.14938724878188,tremor
52,6893804,0.37,-0.611709708821295,-0.3890953162587431,-0.6493132688255805,-54.05970086553022,-81.67431512215762,-50.14322923920654,tremor
53,6893809,0.375,-0.6101406536382232,-0.38674095366974326,-0.6449272006670095,-55.263056509907436,-82.11659516794897,-51.039910620863445,tremor
54,6893819,0.385,-0.6080164581476054,-0.3842613695522922,-0.6406758420060493,-56.37727056081641,-82.42904538154369,-51.83917853672146,tremor
55,6893823,0.389,-0.605354868116601,-0.38165599548751183,-0.636561875186391,-57.400202654834004,-82.60060900295389,-52.541454724538006,tremor
56,6893828,0.394,-0.6021759121352777,-0.3789242475741778,-0.6325886119888008,-58.33009034875925,-82.62086101210112,-53.14779755376727,tremor
57,6893833,0.399,-0.5985016086846264,-0.3760655667969475,-0.6287601699154064,-59.16553598502275,-82.48033434415044,-53.65985964544839,tremor
58,6893838,0.404,-0.5943557047608123,-0.3730794728337035,-0.6250816202764131,-59.9054952788374,-82.17083549609356,-54.07984190848536,tremor
59,6893848,0.414,-0.5897634542346968,-0.36996563101624336,-0.6215591004417612,-60.54926831275012,-81.68574073241682,-54.41044477614276,tremor
60,6893857,0.423,-0.5847514419149433,-0.36672393158287536,-0.6181998837038251,-61.096493385366294,-81.02026425767612,-54.654817369366704,tremor
61,6893867,0.433,-0.5793474568491475,-0.3633545797893476,-0.6150124016073658,-61.547143903840784,-80.17169010151996,-54.816505258393306,tremor
62,6893872,0.438,-0.5735804158956292,-0.35985819491312815,-0.6120062152898661,-61.90152824724779,-79.13956007656432,-54.89939744813217,tremor
63,6893900,0.466,-0.5674803361926803,-0.3562359157349251,-0.6091919342732002,-62.160292275756014,-77.92581104848524,-54.907673179480426,tremor
64,6893905,0.471,-0.5610783529869372,-0.3524895097423863,-0.6065810831667809,-62.32442393715732,-76.53485591235653,-54.845749116725706,tremor
65,6893915,0.481,-0.5544067774468312,-0.348621483087506,-0.6041859187685784,-62.395259246514335,-74.97360408170984,-54.71822747348352,tremor
66,6893920,0.486,-0.5474991875964094,-0.344635188231919,-0.602019201959136,-62.374488800580636,-73.25141891999833,-54.529845603970166,tremor
67,6893925,0.491,-0.540390544314076,-0.34053492620556036,-0.6000939304728352,-62.26416393903729,-71.38001131065951,-54.285427540003404,tremor
68,6893930,0.496,-0.5331173233721209,-0.3363260404499001,-0.5984230400496883,-62.06670166837849,-69.37327040192761,-53.98983788097838,tremor
69,6893934,0.5,-0.5257176536670684,-0.3320149992887772,-0.5970190826175418,-61.7848875029717,-67.24703442551878,-53.6479383490055,tremor
70,6893939,0.505,-0.5182314510535371,-0.3276094641538686,-0.595893891044165,-61.42187543619576,-65.01880634834298,-53.26454721598449,tremor
71,6893944,0.51,-0.5107005365282634,-0.32311834079010543,-0.5950582406364785,-60.98118432566471,-62.7074209540855,-52.844401703414626,tremor
72,6893949,0.515,-0.5031687269343371,-0.31855181079365646,-0.5945215179337222,-60.466690058993315,-60.3326717324219,-52.39212335170659,tremor
73,6893954,0.52,-0.49568188591577705,-0.3139213410150329,-0.5942914074079126,-59.88261295939546,-57.91490761932312,-51.91218624985653,tremor
74,6893959,0.525,-0.4882879226217381,-0.30923966862055047,-0.594373606410198,-59.233499990192,-55.474611103326836,-51.408887903082025,tremor
75,6893968,0.534,-0.4810367257308894,-0.30452075997308126,-0.5947715780621011,-58.52420141810919,-53.031970398377084,-50.88632239327516,tremor
76,6893973,0.539,-0.47398002084617075,-0.2997797419847285,-0.5954863507878155,-57.75984169001938,-50.60645918022911,-50.348355362090174,tremor
77,6893978,0.544,-0.46717114031365714,-0.2950328052124179,-0.5965163718460935,-56.94578436109862,-48.21643766634755,-49.79860024080823,tremor
78,6893983,0.549,-0.46066469616795674,-0.29029707869880905,-0.5978574206028827,-56.08759098451239,-45.87878846212209,-49.24039509676154,tremor
79,6893988,0.554,-0.4545161493129027,-0.2855904773756177,-0.5995025854705489,-55.19097394179965,-43.60859952983239,-48.67677948978,tremor
80,6893993,0.559,-0.4487812712937518,-0.2809315237009086,-0.6014423065276193,-54.26174327327465,-41.41890488743208,-48.11047084321582,tremor
81,6894026,0.592,-0.44351549914716404,-0.27633914604520987,-0.6036644839265984,-53.30574767652758,-39.32049130400686,-47.54384002713592,tremor
82,6894030,0.596,-0.43877318879669575,-0.2718324571244794,-0.6061546503781595,-52.32880999887856,-37.32177644581543,-46.97888611289235,tremor
83,6894035,0.601,-0.43460677811725534,-0.26743051646298205,-0.6088962043146187,-51.33665777741069,-35.42876078835947,-46.41721056678215,tremor
84,6894040,0.606,-0.4310658767458621,-0.2631520814350825,-0.6118706987886874,-50.33484968744595,-33.64505233323671,-45.85999147424654,tremor
85,6894045,0.611,-0.4281963054569657,-0.25901535188075886,-0.6150581797198266,-49.32869912818526,-31.97195996279621,-45.30795869051307,tremor
86,6894050,0.616,-0.42603911295381974,-0.2550377136297874,-0.6184375657039166,-48.32319655580595,-30.408648327013864,-44.76137107168238,tremor
87,6894060,0.626,-0.42462960187254317,-0.25123548652015487,-0.6219870602079656,-47.32293251777861,-28.952344640857927,-44.21999713444981,tremor
88,6894064,0.63,-0.4239963983683734,-0.2476236826592131,-0.625684585579352,-46.33202361042153,-27.598585788622827,-43.68310060851031,tremor
89,6894069,0.635,-0.4241606006137082,-0.24421578073197842,-0.6295082269715531,-45.35404375009934,-26.34149277329535,-43.14943236674605,tremor
90,6894074,0.64,-0.4251350407004561,-0.2410235220743217,-0.6334366731512512,-44.39196319702602,-25.17405888375464,-42.61723013011465,tremor
91,6894079,0.645,-0.42692369175401773,-0.2380567339620155,-0.637449640365762,-43.44809768759556,-24.08843799980369,-42.08422714617794,tremor
92,6894083,0.649,-0.429521247666597,-0.23532318509385092,-0.6415282651688831,-42.524069817838274,-23.076220169314443,-41.5476707527328,tremor
93,6894088,0.654,-0.4329128970246453,-0.2328284775592131,-0.6456554524478278,-41.62078448642568,-22.128682896118118,-41.00435139444826,tremor
94,6894093,0.659,-0.4370743058836605,-0.23057597868207333,-0.6498161659440818,-40.73841976341162,-21.237008392447613,-40.45064229120194,tremor
95,6894103,0.669,-0.441971816383714,-0.22856679503889749,-0.6539976503559021,-39.876434020442964,-20.39245928985754,-39.88254957864967,tremor
96,6894107,0.673,-0.44756286014839813,-0.22679978968305964,-0.6581895766414451,-39.03358956880067,-19.586507870479014,-39.29577235779307,tremor
97,6894112,0.678,-0.4537965773304397,-0.22527164221379772,-0.6623841053428908,-38.207992436261236,-18.81091667821326,-38.68577169892924,tremor
98,6894117,0.683,-0.46061462443432344,-0.22397694986215405,-0.6665758664902223,-37.39714730203363,-18.05777130506654,-38.047847248263444,tremor
99,6894142,0.708,-0.4679521470012286,-0.22290836630311062,-0.6707618587155109,-36.59802602532825,-17.319469125620323,-37.377219694225126,tremor
100,6894147,0.713,-0.4757388871589016,-0.22205677352867914,-0.6749412743338606,-35.80714767066821,-16.588670627894658,-36.66911699069729,tremor
101,6894152,0.718,-0.48390039118058853,-0.22141148093668742,-0.6791152609484254,-35.020667482175895,-15.858222501587623,-35.91886195034224,tremor
102,6894157,0.723,-0.4923592788677413,-0.2209604449231468,-0.6832866331729394,-34.23447192684968,-15.121063450009268,-35.121958668980575,tremor
103,6894162,0.728,-0.5010365350325583,-0.2206905018021872,-0.6874595499760685,-33.44427673962905,-14.370124546737271,-34.274175259381344,tremor
104,6894167,0.733,-0.5098527836734591,-0.22058760683030315,-0.6916391738190771,-32.64572486244843,-13.598235873358002,-33.371620552723456,tremor
105,6894171,0.737,-0.5187295074587908,-0.22063707242046623,-0.6958313273123803,-31.834481262614194,-12.798050349549833,-32.41081272464453,tremor
106,6894176,0.742,-0.5275901786170184,-0.22082379920681178,-0.7000421618064427,-31.006321832135626,-11.961994316424777,-31.38873817031159,tremor
107,6894181,0.747,-0.5363612720393229,-0.22113249438206894,-0.7042778504078951,-30.157213900048454,-11.082252708871927,-30.30289935295429,tremor
108,6894186,0.752,-0.5449731371194126,-0.22154787261855513,-0.7085443155841359,-29.283386316973296,-10.150794651420805,-29.151350762420158,tremor
109,6894191,0.757,-0.5533607113672058,-0.22205483585785374,-0.712846998962054,-28.381387569180454,-9.159443109088507,-27.932722535724515,tremor
110,6894195,0.761,-0.5614640658916876,-0.22263862928459902,-0.7171906782769516,-27.448130921277425,-8.099989883547494,-26.646231706856486,tremor
111,6894200,0.766,-0.569228780173973,-0.22328497186314342,-0.7215793337921699,-26.480926149429035,-6.96435482577728,-25.2916814646668,tremor
112,6894205,0.771,-0.5766061508428308,-0.22398016089161107,-0.726016063965572,-25.477497992208207,-5.744785700771338,-23.86944919887331,tremor
113,6894220,0.786,-0.5835532461137954,-0.2247111510935299,-0.7305030477397164,-24.435991997411502,-4.43409275892713,-22.38046449490142,tremor
114,6894236,0.802,-0.5900328238358972,-0.22546560979196045,-0.7350415486203961,-23.354968961792963,-3.0259098392429604,-20.82617858288494,tremor
115,6894241,0.807,-0.5960131363150025,-0.22623195064415708,-0.7396319537379843,-22.233389616940137,-1.5149719015513468,-19.208527028708104,tremor
116,6894267,0.833,-0.6014676487605273,-0.22699934918134032,-0.7442738394520927,-21.07059156265945,0.10260253155348945,-17.529887639530788,tremor
117,6894272,0.838,-0.6063746998683496,-0.2277577439176971,-0.7489660538989454,-19.866260642168974,1.8290362433882466,-15.793035612023958,tremor
118,6894277,0.843,-0.6107171325198413,-0.22849782701431554,-0.7537068063388224,-18.62039897244625,3.6646376125019846,-14.001097870189431,tremor
119,6894286,0.852,-0.6144819200810145,-0.22921102840726798,-0.758493753342056,-17.333291711728787,5.607575569326697,-12.157508337400982,tremor
120,6894291,0.857,-0.6176598098729786,-0.2298894969805608,-0.76332407276574,-16.00547441342721,7.653695026661281,-10.265965598205678,tremor
121,6894296,0.862,-0.6202450006770942,-0.23052608185916143,-0.7681945180062776,-14.6377025295807,9.7963807978155,-8.33039407364704,tremor
122,6894301,0.867,-0.6222348661769799,-0.2311143162986169,-0.7731014469583926,-13.230924319551445,12.026476067910043,-6.354909500198602,tremor
123,6894306,0.872,-0.6236297314338816,-0.2316484060280884,-0.7780408222421107,-11.786258106544823,14.332259503300538,-4.343789190161009,tremor
124,6894311,0.877,-0.6244327051064402,-0.23212322330975962,-0.7830081813896902,-10.30497451183319,16.699483132176486,-2.301447266131268,tremor
125,6894315,0.881,-0.6246495662931574,-0.23253430743035192,-0.7879985776878048,-8.78848398782306,19.111471240357634,-0.23241480240794196,tremor
126,6894320,0.886,-0.6242887016362081,-0.23287787184300626,-0.7930064941677802,-7.2383296716783185,21.549278726314967,1.8586754283898683,tremor
127,6894325,0.891,-0.6233610856713064,-0.23315081772410914,-0.7980257347819338,-5.656185300311306,23.991905665163443,3.967100112954767,tremor
128,6894330,0.896,-0.6218802953120182,-0.2333507532906475,-0.8030492980716661,-4.043857676717332,26.416563247025607,6.088053147695216,tremor
129,6894340,0.906,-0.6198625477819735,-0.23347601783237035,-0.808069239608996,-2.403292965186004,28.79898477849237,8.216650818757568,tremor
130,6894349,0.915,-0.6173267502218523,-0.2335257090502812,-0.813076530164062,-0.7365859209295963,31.113774074190573,10.347935361562623,tremor
131,6894354,0.92,-0.6142945485882253,-0.23349971197106853,-0.818060916891944,0.9540089712192192,33.33478235721539,12.476877918818607,tremor
132,6894359,0.925,-0.6107903633530094,-0.23339872744804102,-0.8230107948054426,2.666065557960496,35.43550381404783,14.598381931001871,tremor
133,6894390,0.956,-0.6068413999576772,-0.2332242980894409,-0.827913095373571,4.396974413845759,37.38947931802944,16.7072879500655,tremor
134,6894395,0.961,-0.6024776230251242,-0.23297882939898742,-0.8327531982642672,6.1439326749309116,39.17069764316599,18.798380770009775,tremor
135,6894400,0.966,-0.5977316850075435,-0.23266560398561675,-0.8375148711073888,7.903936331723131,40.753983814554545,20.866399622036568,tremor
136,6894405,0.971,-0.5926388022349722,-0.23228878689704907,-0.8421802408281245,9.673775896102859,42.115365128688474,22.90605198656635,tremor
137,6894409,0.975,-0.587236574151362,-0.2318534204332627,-0.8467297987481194,11.450036234945264,43.23240678731049,24.91203133076548,tremor
138,6894414,0.98,-0.5815647447355099,-0.23136540716647458,-0.8511424403897554,13.22910122471906,44.08451087149928,26.87903880288173,tremor
139,6894419,0.985,-0.5756649085077722,-0.2308314802984086,-0.8553955398039143,15.00716371618843,44.65317434439902,28.801808627895653,tremor
140,6894429,0.995,-0.5695801669236534,-0.2302591608980754,-0.8594650572832058,16.78024109676256,44.92220376339608,30.675136675679106,tremor
141,6894434,1.0,-0.563354744173839,-0.22965670197245122,-0.8633256785098906,18.544196496888063,44.87788631605086,32.49391143114981,tremor
142,6894439,1.005,-0.5570335742689804,-0.22903301972866769,-0.8669509825008812,20.294765413038565,44.50911860024257,34.253146403283324,tremor
143,6894444,1.01,-0.5506618735946756,-0.2283976127968607,-0.8703136351268539,22.027587229610592,43.807496179966485,35.948012884031584,tremor
144,6894448,1.014,-0.5442847146995073,-0.22776047060512877,-0.8733856044722689,23.738240835724408,42.767368304975065,37.57387192074227,tremor
145,6894468,1.034,-0.5379466178067868,-0.2271319725327249,-0.8761383938449063,25.42228326993368,41.38586324182322,39.126304395622334,tremor
146,6894473,1.039,-0.5316911763576342,-0.22652277990128616,-0.8785432878286044,27.075290106653462,39.66289038273731,40.601138202541605,tremor
147,6894478,1.044,-0.5255607317524157,-0.22594372326209378,-0.8805716064217924,28.692896150277793,37.6011256137184,41.99447166348069,tremor
148,6894483,1.049,-0.5195961103130314,-0.22540568774545885,-0.8821949620727473,30.270834955895893,35.20598627047967,43.3026925255263,tremor
149,6894488,1.054,-0.5138364323545672,-0.22491949940043407,-0.8833855143821812,31.804975760791542,32.4856013846143,44.52249211537754,tremor
150,6894514,1.08,-0.508318999276951,-0.22449581543724442,-0.8841162174518605,33.291356571908075,29.450781901332956,45.650874489095315,tremor
151,6894519,1.085,-0.5030792600499268,-0.22414502109245296,-0.8843610553413114,34.726212381488054,26.11499425067474,46.68516068457939,tremor
152,6894524,1.09,-0.4981508537570997,-0.22387713549445076,-0.8840952618539135,36.105997752942145,22.494339178854016,47.622988444879184,tremor
153,6894529,1.095,-0.4935657204271937,-0.22370172845552652,-0.8832955218844355,37.42740331615887,18.607536185379477,48.4623080121653,tremor
154,6894534,1.1,-0.48935426859699976,-0.2236278496038023,-0.881940152765047,38.6873660194419,14.4759123623736,49.2013747792967,tremor
155,6894538,1.104,-0.4855455851313065,-0.22366397073747202,-0.8800092653563336,39.88307328468438,10.123392992575345,49.83873972334514,tremor
156,6894543,1.109,-0.4821676707935178,-0.22381794176762537,-0.8774849059401537,41.01196148563496,5.576490003752886,50.37323863701866,tremor
157,6894548,1.114,-0.4792476838413927,-0.2240969601342766,-0.8743511811876296,42.071709403818254,0.8642833358397377,50.803981224701346,tremor
158,6894553,1.119,-0.47681217342653054,-0.22450755314271098,-0.8705943695231344,43.060227506865864,-3.98161053429723,51.13034114193166,tremor
159,6894558,1.124,-0.47488728473152697,-0.2250555722769246,-0.8662030230261855,43.975644040059855,-8.927089241028211,51.35194803077983,tremor
160,6894563,1.129,-0.4734989185307926,-0.22574619820319852,-0.8611680645632435,44.81628902845901,-13.935641014223002,51.46868253855763,tremor
161,6894567,1.133,-0.47267282916906533,-0.22658395487807753,-0.855482885090922,45.580677359505835,-18.968453743052017,51.48067520357039,tremor
162,6894572,1.138,-0.4724346467800788,-0.2275727309200403,-0.8491434460100467,46.26749215804529,-23.9845631790415,51.38830994974452,tremor
163,6894582,1.148,-0.4728098118784446,-0.2287158061932616,-0.8421483910825037,46.875569677543254,-28.941046374809076,51.19223275289515,tremor
164,6894587,1.153,-0.473823413211183,-0.23001588138840495,-0.834499171765135,47.40388690826273,-33.79326568725664,50.89336582563684,tremor
165,6894591,1.157,-0.47549992291969156,-0.2314751082779728,-0.826200188883647,47.85155303394574,-38.49516756751184,50.49292741566667,tremor
166,6894596,1.162,-0.4778628266160878,-0.23309511828675178,-0.8172589523811155,48.21780573921338,-42.99963889156296,49.99245702584662,tremor
167,6894601,1.167,-0.48093414989439376,-0.23487704706771623,-0.8076862594534567,48.50201317394205,-47.258921775874605,49.39384555218499,tremor
168,6894606,1.172,-0.4847338870293519,-0.23682155292352533,-0.7974963897661772,48.703682124848285,-51.225085740590984,48.6993695113626,tremor
169,6894610,1.176,-0.48927934208365365,-0.23892882717131855,-0.7867073146860457,48.82247264191774,-54.85055381740514,47.911728209669754,tremor
170,6894638,1.204,-0.4945843972312714,-0.24119859491723653,-0.7753409156220515,48.8582190306494,-58.08867683323033,47.03408240688622,tremor
171,6894643,1.209,-0.5006587276294151,-0.24363010518458955,-0.7634232047312594,48.81095676458655,-60.894347734448935,46.070092769960155,tremor
172,6894647,1.213,-0.5075069863292777,-0.246222109913416,-0.7509845395186155,48.680954521772584,-63.22464561127904,45.02395621647796,tremor
173,6894652,1.218,-0.5151279860728125,-0.24897283199345657,-0.7380598213930614,48.468750239532376,-65.03949724449028,43.9004381432931,tremor
174,6894657,1.223,-0.5235139069646033,-0.2518799231696614,-0.7246886671799895,48.175189843072175,-66.3023426707047,42.70489853438929,tremor
175,6894662,1.228,-0.5326495597353309,-0.2549404133261627,-0.7109155420188473,47.80146714139386,-66.98079044994898,41.44331003525548,tremor
176,6894667,1.233,-0.5425117336851901,-0.25815065326990666,-0.6967898420104368,47.349163289441925,-67.04724793972576,40.122266249694974,tremor
177,6894672,1.238,-0.5530686566080008,-0.2615062536639016,-0.6823659153976438,46.820284177895005,-66.47951187216725,38.7489787449267,tremor
178,6894677,1.243,-0.5642795912624753,-0.2650020231752646,-0.667703011934031,46.21729412541073,-65.26130487010106,37.33126153436295,tremor
179,6894682,1.248,-0.5760945894649608,-0.2686319091860458,-0.652865151385117,45.54314430745442,-63.38274420279339,35.8775021374896,tremor
180,6894686,1.252,-0.5884544207955071,-0.27238894455426804,-0.637920903782098,44.801294456096215,-60.840730046322086,34.39661868313306,tremor
181,6894691,1.257,-0.601290688390179,-0.27626520390522424,-0.6229430760641075,43.995726502350266,-57.639241757648215,32.89800291402622,tremor
182,6894696,1.262,-0.6145261394811278,-0.2802517727822346,-0.6080083020479988,43.1309490041721,-53.78953218526273,31.391449354356823,tremor
183,6894701,1.267,-0.6280751733754609,-0.2843387327020598,-0.5931965351866518,42.211991407621746,-49.31021181323066,29.88707130572307,tremor
184,6894706,1.272,-0.641844544553704,-0.2885151647594846,-0.5785904462409316,41.244387424382246,-44.22721655441182,28.395204728170885,tremor
185,6894711,1.277,-0.6557342536221377,-0.2927691739284147,-0.5642747307147353,40.23414707255436,-38.57365525189715,26.926301428358737,tremor
186,6894716,1.282,-0.669638614060224,-0.29708793563345803,-0.5503353336025173,39.18771721385883,-32.389535392133624,25.490813304037932,tremor
187,6894721,1.287,-0.6834474781459283,-0.30145776553430087,-0.5368586015860336,38.11193072209877,-25.721368153607088,24.0990696752193,tremor
188,6894725,1.291,-0.697047601197406,-0.30586421278994785,-0.5239303752011217,37.01394472788311,-18.621656679080957,22.761149965504544,tremor
189,6894730,1.296,-0.7103241194190847,-0.3102921763627678,-0.5116350355923123,35.90116869656755,-11.148274323911213,21.48675418296447,tremor
190,6894735,1.301,-0.7231621132555226,-0.3147260431924054,-0.5000545222184675,34.78118340403061,-3.3637425462392496,20.285073790295005,tremor
191,6894762,1.328,-0.7354482252932055,-0.3191498463245504,-0.48926733922400467,33.6616521728167,4.665578995697958,19.164665650382656,tremor
192,6894767,1.333,-0.7470722994667967,-0.3235474403291801,-0.479347569113263,32.55022601444976,12.87037480001526,18.13333178333589,tremor
193,6894772,1.338,-0.7579290067300497,-0.3279026906064448,-0.4703639128112545,31.4544445873638,21.179310560254773,17.19800766054957,tremor
194,6894782,1.348,-0.7679194216135854,-0.33219967248801857,-0.4623787750966412,30.381635118198968,29.52000531067422,16.364661664750713,tremor
195,6894787,1.353,-0.7769525143748831,-0.33642287543601795,-0.455447413707083,29.338811638101,37.82001811959633,15.638208136544756,tremor
196,6894796,1.362,-0.7849465248183373,-0.34055740715624305,-0.44961716916044975,28.33257703497446,46.00782863053965,15.022436096720204,tremor
197,6894801,1.367,-0.7918301863033828,-0.3445891921117661,-0.4449267905846973,27.369030481207215,54.01379136731425,14.5199552918324,tremor
198,6894806,1.372,-0.7975437719245677,-0.3485051587874078,-0.44140587070646375,26.453682724173444,61.77104501314941,14.132160695116285,tremor
199,6894811,1.377,-0.8020399393035641,-0.3522934101604121,-0.4390744007190464,25.591381504566076,69.21635974810478,13.859216055220033,tremor
200,6894816,1.382,-0.8052843558084885,-0.35594337221001804,-0.4379424531397191,24.786249010977777,76.29090803708495,13.700056563727887,tremor
201,6894820,1.386,-0.8072560921558628,-0.35944591595034364,-0.43800999807525565,24.041632830189087,82.94094683520575,13.652410233017232,tremor
202,6894825,1.391,-0.8079477790124407,-0.36279344936515745,-0.43926685563086876,23.360071359182115,89.11840187556008,13.712837151099253,tremor
203,6894830,1.396,-0.8073655280992488,-0.3659799767047542,-0.4416927845902804,22.7432741469131,94.7813474260068,13.876785418475402,tremor
204,6894834,1.4,-0.805528626087425,-0.3690011238074163,-0.44525770501177797,22.192117162688046,99.89437757535416,14.138662277256094,tremor
205,6894839,1.405,-0.8024690159422523,-0.37185412935838424,-0.44992205005706926,21.706652568051126,104.42886767381692,14.491918709769916,tremor
206,6894844,1.41,-0.7982305860099987,-0.37453780322446784,-0.45563724021211194,21.28613221342936,108.3631269485759,14.929145602888882,tremor
207,6894849,1.415,-0.7928682917738891,-0.3770524541334219,-0.4623462710778223,20.929043787278875,111.68244549223306,15.442179438711456,tremor
208,6894854,1.42,-0.7864471385944708,-0.3793997899447198,-0.4699844041056719,20.63315830311112,114.37904074799319,16.022215381917107,tremor
209,6894859,1.425,-0.779041055705528,-0.38158279453693467,-0.47847994803083005,20.395587408758193,116.45191027917835,16.659925592482793,tremor
210,6894885,1.451,-0.7707316921255838,-0.3836055858890948,-0.48775511731872545,20.212848838161168,117.9065990103694,17.3455806030726,tremor
211,6894915,1.481,-0.7616071639210145,-0.385473260254616,-0.49772695271251804,20.080938201737055,118.75489023357002,18.069171668918354,tremor
212,6894919,1.485,-0.7517607795126107,-0.3871917274346286,-0.5083082880303825,19.995405245739157,119.01443037194437,18.820532138252695,tremor
213,6894934,1.5,-0.7412897657354806,-0.38876754207791825,-0.5194087468832929,19.951432741848965,118.70829759885615,19.589456120902213,tremor
214,6894939,1.505,-0.7302940126220462,-0.39020773567866424,-0.5309357531692229,19.943916328841937,117.8645238121438,20.365813049324725,tremor
215,6894944,1.51,-0.7188748499667796,-0.3915196535047166,-0.5427955401443774,19.967543911738584,116.51557829732533,21.13965708956423,tremor
216,6894968,1.534,-0.7071338641892213,-0.3927108000653685,-0.5548941444719164,20.016873579447825,114.6978200208629,21.901330704849105,tremor
217,6894973,1.539,-0.6951717602387972,-0.39378869594388066,-0.5671383736368943,20.086409362517546,112.45092423318978,22.641561946530796,tremor
218,6894978,1.544,-0.6830872705757881,-0.3947607479425609,-0.5794367371644574,20.17067445474327,109.81728818932902,23.351555214608354,tremor
219,6894983,1.549,-0.6709761118634291,-0.3956341336152777,-0.5917003338799078,20.26428171346989,106.84142046638594,24.02307528371061,tremor
220,6895008,1.574,-0.6589299900563818,-0.3964157004933758,-0.603843688791404,20.362001311302414,103.56931859119014,24.64852434383714,tremor
221,6895013,1.579,-0.647035655971672,-0.39711187971384815,-0.6157855340005353,20.4588253600178,100.04784034414938,25.22101169588533,tremor
222,6895018,1.584,-0.6353740157890985,-0.3977286133624242,-0.6274495284475926,20.550029216161132,96.32407494399564,25.73441561661632,tremor
223,6895023,1.589,-0.6240193036644862,-0.3982712946522189,-0.6387649114569998,20.63122905124431,92.44472113709011,26.183436803288,tremor
224,6895028,1.594,-0.6130383261673997,-0.3987447200541613,-0.6496670851430222,20.69843515069684,88.45547989100605,26.563642744514357,tremor
225,6895032,1.598,-0.6024897901680408,-0.3991530526401495,-0.6600981208871547,20.748100301470668,84.4004698765391,26.871502345447265,tremor
226,6895047,1.613,-0.5924237269105708,-0.3994997961401016,-0.6700071853606167,20.777162539214203,80.3216742085159,27.104410158350174,tremor
227,6895052,1.618,-0.5828810252778236,-0.3997877794947834,-0.6793508819543127,20.783081456289313,76.25842699953867,27.260699631047018,tremor
228,6895057,1.623,-0.5738930866769669,-0.4000191519584074,-0.6880935040031413,20.763867234320507,72.24694813109011,27.339644887710758,tremor
229,6895062,1.628,-0.5654816125728567,-0.40019538902614665,-0.696207196863381,20.718101577523825,68.31993421156399,27.341450702288657,tremor
230,6895067,1.633,-0.5576585335227006,-0.40031730959988615,-0.7036720267286692,20.644949797862385,64.50621294289837,27.267230511136034,tremor
231,6895072,1.638,-0.5504260857506946,-0.40038510484487455,-0.7104759550467693,20.54416343786624,60.830467087535716,27.118972525577142,tremor
232,6895077,1.643,-0.5437770380303047,-0.40039837913000725,-0.716614718509848,20.416072998546852,57.31303298612418,26.899494231489594,tremor
233,6895081,1.647,-0.5376950681131698,-0.4003562032933811,-0.7220916158164542,20.26157055288508,53.96977718925317,26.61238578995903,tremor
234,6895086,1.652,-0.5321552843373011,-0.40025718024339635,-0.7269172037255561,20.082082257021973,50.81205327570929,26.261943074151066,tremor
235,6895091,1.657,-0.5271248845185116,-0.40009952260671766,-0.731108906322209,19.879531011616443,47.84673936337724,25.85309128900125,tremor
236,6895096,1.662,-0.5225639409062781,-0.39988114178296313,-0.7346905428674139,19.656289767437556,45.07635520154725,25.391300318528426,tremor
237,6895101,1.667,-0.5184262969658966,-0.3995997473793109,-0.737691781084709,19.415126206540943,42.499256088914194,24.882493126249393,tremor
238,6895106,1.672,-0.5146605590994179,-0.39925295559423,-0.7401475242136256,19.159139758596776,40.10989921400186,24.33294869352602,tremor
239,6895134,1.7,-0.5112111641823891,-0.398838404715841,-0.7420972416016597,18.89169212602716,37.89917639034636,23.749201117074957,tremor
240,6895139,1.705,-0.5080195020097483,-0.39835387551545426,-0.7435842539641631,18.61633268374628,35.85480559174081,23.137936599143973,tremor
241,6895149,1.715,-0.5050250704647803,-0.39779741397332957,-0.7446549856367829,18.336720276222685,33.96177223405117,22.505890147287626,tremor
242,6895153,1.719,-0.502166640516385,-0.3971674534990526,-0.7453581970669921,18.056543041576873,32.20280986576763,21.85974384758345,tremor
243,6895158,1.724,-0.4993834080508633,-0.3964629336278116,-0.7457442113324336,17.77943794545337,30.558908882305673,21.206028580970443,tremor
244,6895168,1.734,-0.4966161100210998,-0.39568341209868446,-0.7458641485763593,17.508911719153883,29.009841110869793,20.5510310186343,tremor
245,6895173,1.739,-0.4938080833523384,-0.39482916725093875,-0.7457691819162959,17.248264885642673,27.534687648737464,19.900707661690145,tremor
246,6895183,1.749,-0.4909062463797481,-0.3939012878026952,-0.7455098276453163,17.00052053253288,26.1123572077035,19.260607580231948,tremor
247,6895188,1.754,-0.48786198425515886,-0.3929017472974089,-0.7451352814451395,16.768359447412287,24.72208246793107,18.63580534840217,tremor
248,6895192,1.758,-0.48463192175410946,-0.39183346081309084,-0.7446928109076038,16.554063152904916,23.343882626578576,18.030845456192846,tremor
249,6895197,1.763,-0.4811785692839797,-0.39070032192094467,-0.7442272129689449,16.359466250634767,21.958981464454247,17.449699202276687,tremor
250,6895202,1.768,-0.47747083068592244,-0.38950721834456864,-0.7437803429698606,16.18591929486828,20.55017182196172,16.895734741645892,tremor
251,6895207,1.773,-0.47348436465488336,-0.3882600252959074,-0.7433907200451327,16.034263168186875,19.10211929991295,16.37170059107384,tremor
252,6895212,1.778,-0.4692017952510214,-0.38696557603662196,-0.7430932115047926,15.90481563201332,17.601600181150378,15.879722501750829,tremor
253,6895217,1.783,-0.4646127709846489,-0.385631609820263,-0.7429187968756202,15.797370386886792,16.03767090373257,15.421313209096741,tremor
254,6895222,1.788,-0.45971387623455157,-0.3842666979980281,-0.7428944103950025,15.711208612851129,14.401768816268092,14.997394180010838,tremor
255,6895227,1.793,-0.4545084031811065,-0.38288014970465745,-0.7430428590362244,15.645122579091618,12.687746333724494,14.60832811138116,tremor
256,6895232,1.798,-0.44900599684619846,-0.38148189916618713,-0.7433828116226834,15.59745052328721,10.891842916038266,14.253960604430127,tremor
257,6895259,1.825,-0.4432221900522233,-0.38008237727171074,-0.7439288532723233,15.566121615153222,9.01260143342787,13.933669162742854,tremor
258,6895264,1.83,-0.4371778489106522,-0.37869237060550526,-0.7446915983121709,15.548709451634075,7.0507373469423875,13.646417456781174,tremor
259,6895268,1.834,-0.43089855247813047,-0.37732287160859107,-0.745677853932848,15.542492214917225,5.008970538775032,13.390812692290684,tremor
260,6895273,1.839,-0.4244139320194815,-0.37598492387999144,-0.746890826243506,15.544517403600135,2.8918303686602624,13.165163944286963,tremor
261,6895278,1.844,-0.417756995515851,-0.37468946679082366,-0.7483303600670316,15.551668955206736,0.7054445200127027,12.967539477912709,tremor
262,6895283,1.849,-0.4109634615777578,-0.3734471835490686,-0.7499932037905294,15.560734614079946,-1.5426784622356284,12.795821339051283,tremor
263,6895288,1.854,-0.4040711240124976,-0.37226835663069635,-0.7518732908406301,15.568471534774785,-3.8438641464797425,12.64775581236643,tremor
264,6895293,1.859,-0.39711926434801853,-0.37116273411059364,-0.7539620298620807,15.571668317000842,-6.1884772969640665,12.520998680033454,tremor
265,6895297,1.863,-0.3901481250228888,-0.3701394099130566,-0.7562485964163425,15.567201924150561,-8.566111249140853,12.413154559184779,tremor
266,6895302,1.868,-0.3831984510558636,-0.36920672038449187,-0.7587202199566117,15.552088233206424,-10.965757498261459,12.321809945168125,tremor
267,6895312,1.878,-0.3763111030997842,-0.3683721589002616,-0.7613624609415662,15.52352529296407,-13.375953244564666,12.244559933597344,tremor
268,6895317,1.883,-0.36952674010852005,-0.3676423094863765,-0.7641594741789238,15.478928722711649,-15.784906474653924,12.179028924780376,tremor
269,6895322,1.888,-0.3628855656161966,-0.36702279970118784,-0.7670942557893142,15.415959053553442,-18.180599903013185,12.122885913078616,tremor
270,6895327,1.893,-0.3564271280399744,-0.3665182723200066,-0.7701488724887205,15.332541183755907,-20.55087661851736,12.073855212291155,tremor
271,6895332,1.898,-0.35019016263891617,-0.3661323747313505,-0.7733046731339748,15.226876468430126,-22.88351145780636,12.029723648900218,tremor
272,6895336,1.902,-0.34421246091710456,-0.3658677644142682,-0.7765424835902278,15.097448270618964,-25.16627288904657,11.988345354999844,tremor
273,6895341,1.907,-0.3385307524329377,-0.3657261284399842,-0.7798427868997122,14.943022042628552,-27.38698051272736,11.947645303855317,tremor
274,6895346,1.912,-0.3331805842195845,-0.3657082146386873,-0.7831858914088654,14.762641162403822,-29.53356317318735,11.905622651003918,tremor
275,6895355,1.921,-0.32819618435286224,-0.36581387189894143,-0.7865520899112275,14.555619804381411,-31.594122143106034,11.86035477896361,tremor
276,6895384,1.95,-0.32361029860719354,-0.366042097025953,-0.7899218129615183,14.321534069205375,-33.55700292900444,11.810002710908927,tremor
277,6895389,1.955,-0.31945399254788964,-0.36639108568090933,-0.7932757792935211,14.060212433193675,-35.41087801553524,11.752818285009763,tremor
278,6895394,1.96,-0.31575641562349166,-0.36685828516354474,-0.7965951457257862,13.771726325094365,-37.14484144081026,11.687153200218951,tremor
279,6895398,1.964,-0.31254452845711495,-0.3674404471807116,-0.7998616580934171,13.45638133576031,-38.74851464830247,11.611469789000106,tremor
280,6895403,1.969,-0.30984279906146256,-0.3681336792365324,-0.8030578036803074,13.114709266791614,-40.21216176073976,11.524353164115446,tremor
281,6895408,1.974,-0.30767287761755235,-0.3689334938297082,-0.8061669644628703,12.74746096354197,-41.526811361530875,11.424524230627805,tremor
282,6895413,1.979,-0.30605326243027825,-0.36983485518618736,-0.8091735693392613,12.355599670149976,-42.68438106970431,11.310852947478239,tremor
283,6895418,1.984,-0.3049989715616786,-0.37083222373555264,-0.8120632425132323,11.94029449168391,-43.67780065182947,11.182371162673409,tremor
284,6895423,1.989,-0.30452123543673876,-0.37191959891970616,-0.8148229444078274,11.502913452153052,-44.501129133135365,11.03828433175766,tremor
285,6895427,1.993,-0.3046272254867544,-0.37309056118203643,-0.817441100955756,11.045015597514007,-45.14966135653339,10.877981459213037,tremor
286,6895432,1.998,-0.3053198327568325,-0.3743383141173195,-0.8199077168845894,10.568341606107552,-45.62001968456061,10.701042672285118,tremor
287,6895437,2.003,-0.30659750850057094,-0.3756557277714113,-0.8222144687018831,10.074802426573205,-45.91022701536114,10.507243939980041,tremor
288,6895442,2.008,-0.3084541762792855,-0.3770353839787201,-0.8243547734854157,9.566465555026596,-46.019757944318584,10.296558578616652,tremor
289,6895447,2.013,-0.31087922215131025,-0.3784696244350352,-0.8263238302729738,9.045538680258002,-45.94956569873026,10.069155330190501,tremor
290,6895451,2.017,-0.31385756636086226,-0.37995060194908276,-0.8281186317768255,8.514350560470437,-45.70208335745179,9.8253929519121,tremor
291,6895456,2.022,-0.31736981669265496,-0.38147033502592265,-0.8297379452531516,7.975329141015692,-45.28119879841106,9.565811406836836,tremor
292,6895461,2.027,-0.3213925005070328,-0.3830207656359127,-0.8311822625585907,7.430977073657506,-44.692203756330564,9.291119889284072,tremor
293,6895466,2.032,-0.32589836954486007,-0.3845938197378951,-0.8324537206448238,6.883844948022317,-43.94171828592989,9.002182047064712,tremor
294,6895470,2.036,-0.3308567690002498,-0.38618146987283564,-0.8335559949011628,6.336502688314508,-43.03759277744005,8.699998868366851,tremor
295,6895476,2.042,-0.33623406018816115,-0.3877757989368944,-0.8344941687850088,5.79150969555869,-41.98879042464163,8.385689780639254,tremor
296,6895480,2.046,-0.3419940844480841,-0.38936906408752264,-0.8352745840210196,5.251384420371975,-40.80525366522589,8.060472561636198,tremor
297,6895506,2.072,-0.34809865477374946,-0.39095375963438445,-0.8359046762524857,4.71857412778175,-39.497758571637696,7.72564268947263,tremor
298,6895511,2.077,-0.35450806108960015,-0.39252267771746624,-0.8363928013545319,4.195425657773426,-38.07776144523845,7.382552757750123,tremor
299,6895516,2.082,-0.3611815751708602,-0.3940689655764591,-0.8367480576457608,3.6841579829734843,-36.557241925177706,7.032592549803396,tremor
300,6895521,2.087,-0.3680779419912409,-0.3955861782685361,-0.8369801089651815,3.186837307142172,-34.948546730385004,6.677170299561879,tremor
301,6895530,2.096,-0.3751558457885716,-0.39706832579554013,-0.837099013051107,2.705355334704381,-33.264237712946034,6.317695567932922,tremor
302,6895540,2.106,-0.3823743412586104,-0.39850991375214917,-0.837115058937273,2.2414111884648267,-31.51694728157446,5.955564043350187,tremor
303,6895545,2.111,-0.38969324281295054,-0.3999059767955255,-0.8370386162561908,1.7964972831350612,-29.719243551651836,5.592144446784239,tremor
304,6895550,2.116,-0.39707346751630485,-0.401252104453661,-0.8368799984978125,1.3718892949746169,-27.88350687230439,5.228767596677915,tremor
305,6895555,2.121,-0.40447732991033236,-0.40254445902207764,-0.8366493414849008,0.9686402139540079,-26.02181872031263,4.866717576410082,tremor
306,6895564,2.13,-0.41186878924205206,-0.4037797855335028,-0.8363564976416406,0.5875783302620987,-24.14586336346368,4.5072248517118325,tremor
307,6895569,2.135,-0.41921365151918044,-0.40495541400912644,-0.8360109460680042,0.22930889431765955,-22.266842198712975,4.151461111258721,tremor
308,6895574,2.14,-0.4264797302495834,-0.4060692544006274,-0.8356217179890189,-0.1057808992630141,-20.39540027753883,3.800535552934185,tremor
309,6895579,2.145,-0.4336369706656114,-0.4071197847988979,-0.835197336817828,-0.4175140151499986,-18.541564257976642,3.4554923136774076,tremor
310,6895584,2.15,-0.4406575426927436,-0.40810603361096287,-0.8347457718449423,-0.7059132128617789,-16.714690877937016,3.117308743189784,tremor
311,6895588,2.154,-0.4475159079302086,-0.40902755648792777,-0.8342744044318099,-0.9711886652266377,-14.923425016881813,2.7868942475782337,tremor
312,6895598,2.164,-0.45418886552846677,-0.40988440882486044,-0.8337900055308732,-1.2137239941396307,-13.1756664763777,2.4650894713403892,tremor
313,6895603,2.169,-0.46065558114881927,-0.4106771146517678,-0.8332987233614209,-1.4340611243464871,-11.478544734387564,2.1526656374162214,tremor
314,6895629,2.195,-0.46689760225779353,-0.4114066326978664,-0.832806080124991,-1.6328843108290199,-9.838401086832562,1.8503239189894218,tremor
315,6895634,2.2,-0.47289886194297454,-0.41207432034528296,-0.8323169767284867,-1.8110036449560039,-8.260777758313251,1.5586947685675892,tremor
316,6895638,2.204,-0.4786456723622472,-0.4126818961021966,-0.8318357045780224,-1.9693382955420775,-6.75041371540125,1.278337176185093,tremor
317,6895643,2.209,-0.4841267079952132,-0.41323140113148465,-0.8313659635921673,-2.1088996993043567,-5.311247025284151,1.0097378670204162,tremor
318,6895648,2.214,-0.48933297816866805,-0.4137251602816069,-0.8309108856450704,-2.230774883732018,-3.946423656498222,0.7533104784823237,tremor
319,6895653,2.219,-0.49425778792406744,-0.41416574299031345,-0.8304730626831692,-2.3361100823396206,-2.6583126216201753,0.5093947787016448,tremor
320,6895658,2.224,-0.4988966861613154,-0.41455592437201155,-0.8300545787683848,-2.4260947837619287,-1.4485273283415911,0.2782560034260048,tremor
321,6895663,2.229,-0.5032474000742447,-0.4148986467558215,-0.8296570452951925,-2.5019463396924504,-0.31795294758942994,0.0600843967219532,tremor
322,6895668,2.234,-0.5073097551316645,-0.4151969819113414,-0.8292816386187325,-2.5648952419123665,0.733220466974784,-0.14500495721827714,tremor
323,6895672,2.238,-0.5110855802050369,-0.41545409417998996,-0.828929139325136,-2.6161711659710445,1.7054594584254703,-0.3369719272179528,tremor
324,6895677,2.243,-0.5145785978582595,-0.4156732047182635,-0.8285999723809352,-2.6569898688702787,2.599843684282432,-0.5158506760386465,tremor
325,6895687,2.253,-0.5177943002611479,-0.4158575570523513,-0.828294247421445,-2.6885410207407414,3.418017998952624,-0.6817484810136267,tremor
326,6895692,2.258,-0.5207398116357006,-0.4160103841390962,-0.8280117984817335,-2.711977045677515,4.1621407070335055,-0.8348439774768303,tremor
327,6895697,2.263,-0.5234237385667504,-0.41613487712522107,-0.827752222538964,-2.728403043207924,4.834828660464958,-0.9753847814393295,tremor
328,6895701,2.267,-0.5258560098829733,-0.41623415599519403,-0.8275149163191873,-2.7388678575442547,5.43909992371914,-1.1036844637583048,tremor
329,6895706,2.272,-0.5280477081222127,-0.4163112422989133,-0.8272991109199648,-2.744356355687414,5.978314766700089,-1.2201188660666027,tremor
330,6895711,2.277,-0.5300108948263854,-0.4163690341541307,-0.8271039039056789,-2.7457829670591862,6.456115765911923,-1.3251217678822835,tremor
331,6895716,2.282,-0.5317584320642662,-0.41641028372471567,-0.826928288638261,-2.7439865263656755,6.876367800982527,-1.419179932769125,tremor
332,6895720,2.286,-0.5333038026592584,-0.41643757738264436,-0.8267711807070862,-2.739726447790263,7.24309872461478,-1.5028275774487123,tremor
333,6895725,2.291,-0.5346609316097714,-0.4164533187660128,-0.8266314414148396,-2.7336802425922038,7.56044145802106,-1.576640320376208,tremor
334,6895751,2.317,-0.5358440111375145,-0.41645971494376943,-0.826507898359987,-2.726442374210761,7.832578220707648,-1.64122867512798,tremor
335,6895756,2.322,-0.5368673316882654,-0.4164587658861426,-0.8263993632308394,-2.7185244258912262,8.063687545257725,-1.697231159278521,tremor
336,6895765,2.331,-0.5377451210443536,-0.41645225741350755,-0.8263046469903669,-2.7103565367563154,8.257894659136031,-1.745307092767107,tremor
337,6895770,2.336,-0.5384913934938302,-0.41644175775175374,-0.8262225726828244,-2.702290044058494,8.419225742148427,-1.7861291635637513,tremor
338,6895780,2.346,-0.5391198107487506,-0.41642861775763795,-0.8261519861300406,-2.694601252487702,8.551566493805272,-1.820375844244333,tremor
339,6895785,2.351,-0.5396435560307004,-0.41641397479597075,-0.8260917648049132,-2.6874962357916212,8.658625370042827,-1.8487237500485258,tremor
340,6895790,2.356,-0.5400752224642353,-0.4163987601583668,-0.8260408251723336,-2.681116561357863,8.743901773251501,-1.8718400353193272,tremor
