sample,t_ms,t_s,ax,ay,az,gx,gy,gz,tremor
0,6912981,0.0,-0.260281552808973,-0.3899757347302207,-0.927263224239228,3.192078171766111,-10.114061452228073,6.321990522148074,tremor
1,6912985,0.004,-0.26149785415242444,-0.3901521879268044,-0.9269178703476441,3.410082699723275,-11.325256182295199,6.387400539517178,tremor
2,6912990,0.009,-0.2633248234540603,-0.39041152260248396,-0.9263605840750988,3.5985935678211503,-12.529082348326764,6.390749495925541,tremor
3,6912995,0.014,-0.2659019381759305,-0.39077029854308204,-0.9255231156695675,3.7551588091789427,-13.718146971395935,6.32700320405648,tremor
4,6913000,0.019,-0.2692823843277871,-0.3912328512947957,-0.9243603260689363,3.877439325156331,-14.884815493849493,6.191258525850927,tremor
5,6913005,0.024,-0.2734543967798351,-0.39179510286909464,-0.922849160694939,3.9632318145321013,-16.021276336183895,5.978786742710704,tremor
6,6913010,0.029,-0.2783739383811699,-0.39244942890017065,-0.9209808953231393,4.01049176616842,-17.119613607024867,5.685077966417939,tremor
7,6913015,0.034,-0.2839878834756287,-0.3931878415026951,-0.9187539735367752,4.01735630870556,-18.171887805952114,5.305886243678221,tremor
8,6913019,0.038,-0.29024549408678846,-0.3940034106371983,-0.9161695436911927,3.9821666912059737,-19.17022421409311,4.837274975708864,tremor
9,6913029,0.048,-0.2971019723266641,-0.3948905816201909,-0.9132293816573914,3.9034901493330625,-20.106908509879407,4.275662243936829,tremor
10,6913039,0.058,-0.3045180439267338,-0.39584498297883136,-0.9099352878899447,3.780140892136801,-20.974488975337273,3.61786560263645,tremor
11,6913044,0.063,-0.3124580881849368,-0.39686307591944425,-0.9062892116417564,3.6111999249113405,-21.765884467669945,2.8611458680109845,tremor
12,6913049,0.068,-0.32088806138845366,-0.39794180714483096,-0.9022936533289572,3.3960334044248253,-22.474497115858508,2.003249400415878,tremor
13,6913074,0.093,-0.3297737060375619,-0.39907832131542526,-0.8979521197929345,3.134309204822295,-23.094328459038223,1.0424483433698377,tremor
14,6913079,0.098,-0.3390791721752545,-0.4002697416384989,-0.8932695367135264,2.8260113567995786,-23.620097476916367,-0.02242174733906359,tremor
15,6913084,0.103,-0.34876602899984616,-0.40151300963314807,-0.888252586919731,2.471452011246686,-24.04735868725802,-1.1919274746882567,tremor
16,6913089,0.108,-0.3587926003139586,-0.4028047712499459,-0.8829099714833042,2.0712805740692133,-24.372618222012168,-2.4660069746126587,tremor
17,6913094,0.113,-0.3691135552589532,-0.4041412977540854,-0.877252600654077,1.6264896632331882,-24.59344555858519,-3.8439436960827953,tremor
18,6913099,0.118,-0.3796796977280553,-0.40551843237514107,-0.8712937238810022,1.1384175528235219,-24.708578382917825,-5.324345176433404,tremor
19,6913103,0.122,-0.3904379120128623,-0.40693155625146377,-0.8650490072578532,0.608746792275289,-24.718017897112436,-6.90512737596504,tremor
20,6913113,0.132,-0.4013312344398672,-0.4083755692223465,-0.8585365649503276,0.03949872253350995,-24.623111757688736,-8.583505098959334,tremor
21,6913118,0.137,-0.4122990300223935,-0.40984488250685,-0.8517769494073951,-0.5669763450577177,-24.426621745355202,-10.355988979206877,tremor
22,6913123,0.142,-0.42327725969579116,-0.4113334213409163,-0.8447931037437207,-1.2080134678787746,-24.132773230983467,-12.218389446435879,tremor
23,6913128,0.147,-0.4341988280578192,-0.4128346363322983,-0.8376102786603792,-1.8806520491555756,-23.74728352652769,-14.16582801622337,tremor
24,6913133,0.152,-0.4449940042488744,-0.414341522730687,-0.8302559156127255,-2.5816595072644213,-23.277366307324435,-16.19275616111828,tremor
25,6913138,0.157,-0.45559091013355696,-0.4158466470717057,-0.8227594975762991,-3.3075596216519725,-22.731709476839985,-18.292981925246412,tremor
26,6913147,0.166,-0.4659160706340912,-0.4173421807917815,-0.8151523686439839,-4.054665465053464,-22.120424129419934,-20.45970433864162,tremor
27,6913152,0.171,-0.4758950211709836,-0.4188199404641904,-0.807467523759968,-4.819116749601195,-21.45496266354858,-22.685555571479608,tremor
28,6913157,0.176,-0.4854529668660698,-0.4202714343010225,-0.7997393701189034,-5.59692132357178,-20.74800462016101,-24.962650643364398,tremor
29,6913161,0.18,-0.4945154875810514,-0.42168791451927845,-0.7920034621019719,-6.3840004567210595,-20.013309479447102,-27.282644369952546,tremor
30,6913166,0.185,-0.5030092820829984,-0.423060435093745,-0.7842962120620756,-7.17623744749159,-19.265536449811894,-29.63679508924825,tremor
31,6913171,0.19,-0.5108629436998918,-0.4243799143225056,-0.7766545797895484,-7.969528976737221,-18.5200322147149,-32.01603456302993,tremor
32,6913198,0.217,-0.5180077587879505,-0.4256372015182652,-0.769115744071295,-8.759838521463292,-17.792588646525434,-34.41104329498375,tremor
33,6913203,0.222,-0.5243785182059794,-0.4268231470148389,-0.7617167603802848,-9.543251031055327,-17.099173626874084,-36.812330347728924,tremor
34,6913208,0.227,-0.529914330817964,-0.4279286745496351,-0.754494209365623,-10.316027963440941,-16.455639300673873,-39.21031658214779,tremor
35,6913213,0.232,-0.5345594268816867,-0.42894485495911616,-0.747483841404896,-11.074661687751354,-15.877413293197765,-41.59542009518182,tremor
36,6913218,0.237,-0.5382639380999406,-0.4298629800156536,-0.7407202229744236,-11.815928188411746,-15.379179576638178,-43.9581425063872,tremor
37,6913223,0.242,-0.5409846401794727,-0.4306746351496628,-0.7342363909498014,-12.536936951599886,-14.974556715224193,-46.28915464190024,tremor
38,6913228,0.247,-0.5426856430160187,-0.4313717697462113,-0.7280635211505536,-13.235176873690408,-14.675782080453533,-48.57938008496667,tremor
39,6913233,0.252,-0.5433390131506686,-0.43194676368488166,-0.7222306174797515,-13.90855699991767,-14.493411255158108,-50.82007500507309,tremor
40,6913242,0.261,-0.5429253129783294,-0.4323924888105126,-0.7167642278718589,-14.555440882005106,-14.436042188972252,-53.00290264944578,tremor
41,6913247,0.266,-0.5414340414073167,-0.4327023640866683,-0.7116881929403739,-15.174673344438359,-14.510073675942932,-55.120000894420734,tremor
42,6913252,0.271,-0.5388639613737088,-0.4328704033000456,-0.7070234327064052,-15.765598488866491,-14.719507328716608,-57.16404132957493,tremor
43,6913257,0.276,-0.5352233009283333,-0.43289125435835324,-0.70278777608945,-16.328067871338042,-15.06580134733945,-59.128278504886914,tremor
44,6913262,0.281,-0.5305298166429784,-0.43276022945944237,-0.6989958369557079,-16.86243797993097,-15.547782986988338,-61.006588218777345,tremor
45,6913272,0.291,-0.5248107108734827,-0.4324733257042215,-0.6956589394590719,-17.369556425180306,-16.16162476036006,-62.79349405153115,tremor
46,6913276,0.295,-0.5181023979526233,-0.4320272360741139,-0.692785094197897,-17.850736617879456,-16.900887175427535,-64.48418173133452,tremor
47,6913282,0.301,-0.510450118591184,-0.4314193510848389,-0.6903790253780285,-18.307721124268877,-17.756628334035227,-66.07450133565133,tremor
48,6913286,0.305,-0.501907406512917,-0.4306477518459748,-0.6884422477571558,-18.74263433257953,-18.71757812000248,-67.56095775813847,tremor
49,6913291,0.31,-0.4925354164499846,-0.4297111956781614,-0.6869731906892723,-19.157925514440684,-19.770372102462048,-68.94069028961484,tremor
50,6913296,0.315,-0.4824021278385469,-0.42860909584064855,-0.6859673651332446,-19.5563037979129,-20.899837784165406,-70.21144254906692,tremor
51,6913323,0.342,-0.471581443599617,-0.42734149727203585,-0.6854175680783816,-19.940666963759877,-22.089323541388502,-71.37152433744554,tremor
52,6913328,0.347,-0.46015220792504197,-0.42590905051134686,-0.6853141175275159,-20.314026305330803,-23.321058663892174,-72.41976725183615,tremor
53,6913333,0.352,-0.4481971705327894,-0.42431298609670326,-0.6856451100609182,-20.67943001217867,-24.576531530642644,-73.35547605956754,tremor
54,6913343,0.362,-0.4358019268113966,-0.4225550916767324,-0.6863966922311263,-21.03988759629318,-25.83687241820876,-74.17837785704367,tremor
55,6913353,0.372,-0.4230538631636859,-0.42063769377395704,-0.6875533367672791,-21.398297749680367,-27.083227860576734,-74.8885709177004,tremor
56,6913358,0.377,-0.4100411346172607,-0.418563645614904,-0.6890981148955602,-21.757381723493552,-28.297114731751503,-75.48647489894651,tremor
57,6913363,0.382,-0.39685169776575385,-0.41633632174208557,-0.6910129570162143,-22.11962390416842,-29.460744045106765,-75.97278377892185,tremor
58,6913372,0.391,-0.3835724169308594,-0.4139596193255924,-0.693278895444863,-22.487220784225634,-30.55730663967261,-76.348422568563,tremor
59,6913377,0.396,-0.3702882556848611,-0.41143796527461246,-0.6958762847931795,-22.862039028389198,-31.57121530508724,-76.61450851401088,tremor
60,6913382,0.401,-0.3570815600617029,-0.4087763274836033,-0.6987849976487213,-23.245582855851318,-32.48830034964904,-76.77231718197642,tremor
61,6913387,0.406,-0.3440314343372982,-0.4059802279008226,-0.7019845953055384,-23.638970524488794,-33.29595800916031,-76.8232535157254,tremor
62,6913392,0.411,-0.331213205496564,-0.4030557546351187,-0.705454475197686,-24.04291932795229,-33.98325332058766,-76.76882766767024,tremor
63,6913397,0.416,-0.3186979686173901,-0.4000095700574651,-0.7091739982486807,-24.45773820641232,-34.540981062273666,-76.61063516140155,tremor
64,6913406,0.425,-0.30655220247039494,-0.39684891182204846,-0.7131226004841338,-24.883326828602918,-34.96169001633294,-76.35034072148505,tremor
65,6913411,0.43,-0.2948374426856414,-0.39358158392837683,-0.7172798939198206,-25.31917983563102,-35.239677051683046,-75.9896649507796,tremor
66,6913416,0.435,-0.2836099989094301,-0.3902159353640366,-0.7216257619144462,-25.764394863016744,-35.37095826183294,-75.53037295363703,tremor
67,6913421,0.44,-0.272920702533337,-0.38676082449432564,-0.7261404538628344,-26.217682994394067,-35.353224545590635,-74.97426401649773,tremor
68,6913449,0.468,-0.2628146728992878,-0.38322556817597847,-0.7308046833246578,-26.677380455285707,-35.185788577055845,-74.32316156877835,tremor
69,6913454,0.473,-0.253331092398641,-0.3796198755242103,-0.7355997325032536,-27.14146061893977,-34.86952912366265,-73.57890284281851,tremor
70,6913463,0.482,-0.24450298451588157,-0.37595376728465,-0.7405075645289031,-27.60754574625305,-34.4068372130028,-72.74332790804976,tremor
71,6913473,0.492,-0.23635699339034655,-0.37223748275907986,-0.7455109434206363,-28.07291828778345,-33.801566811051764,-71.81826804572775,tremor
72,6913478,0.497,-0.22891316847496465,-0.3684813771078124,-0.7505935600590735,-28.53453199700309,-33.05899061577715,-70.80553372887361,tremor
73,6913483,0.502,-0.22218476280762847,-0.364695812527487,-0.7557401611191437,-28.989023491186938,-32.18575954328734,-69.70690274559945,tremor
74,6913488,0.507,-0.21617805769630105,-0.3608910472414367,-0.7609366767550462,-29.432725206369675,-31.189862749155743,-68.52410922241246,tremor
75,6913493,0.512,-0.21089222978554203,-0.3570771264309455,-0.7661703419342432,-29.861680902450644,-30.080583743939933,-67.25883444867193,tremor
76,6913497,0.516,-0.2063192782526722,-0.35326377919234747,-0.7714298056974596,-30.27166497978411,-28.86844736852743,-65.91270046906895,tremor
77,6913502,0.521,-0.20244403020056714,-0.3494603253541046,-0.7767052222867497,-30.658206872544593,-27.565152076547474,-64.4872673993475,tremor
78,6913512,0.531,-0.19924424122707515,-0.3456755955616736,-0.78198831804783,-31.016621688635826,-26.18348211542493,-62.984035334075436,tremor
79,6913517,0.536,-0.19669080578656448,-0.3419178674654347,-0.787272428302196,-31.34204807127196,-24.737194802481294,-61.40445155875116,tremor
80,6913522,0.541,-0.19474808847661126,-0.3381948201527166,-0.792552499039151,-31.629493966001675,-23.240879143602335,-59.74992355991754,tremor
81,6913527,0.546,-0.19337438295751894,-0.3345135081710259,-0.7978250493416982,-31.873890598515445,-21.709783494927713,-58.02183805586594,tremor
82,6913531,0.55,-0.19252250004249785,-0.3308803556200874,-0.8030880919526991,-32.07015452364561,-20.159611746992866,-56.221585957626985,tremor
83,6913536,0.555,-0.19214048081060534,-0.3273011698751334,-0.8083410112753161,-32.213257122619254,-18.606289524560506,-54.35059282837901,tremor
84,6913546,0.565,-0.19217242463960332,-0.3237811735790294,-0.8135844002957682,-32.29830043098405,-17.065704059762272,-52.410354053573506,tremor
85,6913577,0.596,-0.19255941608464452,-0.3203250526483923,-0.8188198602864692,-32.32059769670474,-15.553423632160689,-50.402473578075764,tremor
86,6913582,0.601,-0.19324052884188128,-0.31693701723429607,-0.8240497695119836,-32.27575662541841,-14.08440464013318,-48.32870473142716,tremor
87,6913587,0.606,-0.19415388007090265,-0.3136208719410749,-0.8292770292533084,-32.159762916852344,-12.672696192357492,-46.19099138999547,tremor
88,6913597,0.616,-0.19523770467741686,-0.3103800912309509,-0.8345047969618307,-31.969061495511035,-11.33115320595025,-43.99150757525034,tremor
89,6913602,0.621,-0.1964314172865702,-0.30721789589244713,-0.8397362169980641,-31.70063282898545,-10.071169120226898,-41.73269360406412,tremor
90,6913607,0.626,-0.19767662978775571,-0.30413732672146115,-0.8449741591549911,-31.352061897366074,-8.902438536353756,-39.41728708427898,tremor
91,6913612,0.631,-0.19891809441245858,-0.3011413120853453,-0.8502209741708006,-30.921597681898334,-7.832758633256584,-37.04834734107792,tremor
92,6913616,0.635,-0.2001045460509675,-0.2982327267186387,-0.8554782739472783,-30.40820143346041,-6.86787635022133,-34.6292722142985,tremor
93,6913621,0.64,-0.2011894225804486,-0.29541443985151616,-0.8607467424355671,-29.811582427253924,-6.01138624847715,-32.16380654372058,tremor
94,6913626,0.645,-0.20213144797984808,-0.2926893515376694,-0.8660259813034655,-29.13222038464539,-5.264681792427715,-29.65604203215341,tremor
95,6913631,0.65,-0.20289506954062553,-0.29006041678507866,-0.8713143926805657,-28.37137422637574,-4.626960619623672,-27.11040852833617,tremor
96,6913636,0.655,-0.20345074715291386,-0.2875306577717656,-0.8766090995727319,-27.531077293890384,-4.095282275409556,-24.531657093240856,tremor
97,6913646,0.665,-0.2037750990887889,-0.28510316502831196,-0.881905902999597,-26.61411961760342,-3.664674948237128,-21.924835497766328,tremor
98,6913650,0.669,-0.20385091457093887,-0.28278108897313015,-0.8871992735728745,-25.624018204814075,-3.328286028607789,-19.295257040775784,tremor
99,6913655,0.674,-0.2036670483528482,-0.28056762357843934,-0.8924823741278812,-24.56497665038392,-3.0775699024536562,-16.648463764836265,tremor
100,6913660,0.679,-0.2032182161928354,-0.2784659842061106,-0.8977471091754089,-23.441835625378534,-2.902505348945246,-13.990185271855907,tremor
101,6913665,0.684,-0.20250471220635868,-0.27647938176778647,-0.9029841963818376,-22.260015960252314,-2.7918342883285105,-11.326294395980439,tremor
102,6913670,0.689,-0.20153206953098812,-0.2746109953281091,-0.9081832550240374,-21.02545610369733,-2.733313420610114,-8.662760980184151,tremor
103,6913697,0.716,-0.20031068462215337,-0.2728639450895665,-0.9133329064008221,-19.744545705929966,-2.713970490510213,-6.005604935815664,tremor
104,6913706,0.725,-0.19885542302259962,-0.2712412673840478,-0.9184208815136291,-18.424056949045525,-2.7203574945854228,-3.360849650000812,tremor
105,6913711,0.73,-0.19718522090607388,-0.26974589286474077,-0.9234341319661172,-17.071075034962888,-2.7387941062588697,-0.7344766481965448,tremor
106,6913726,0.745,-0.19532269246661757,-0.2683806285667549,-0.9283589409825989,-15.692928962770706,-2.7555959019934546,1.867617780876203,tremor
107,6913731,0.75,-0.19329374875672697,-0.2671481439277862,-0.9331810326675236,-14.297123415831551,-2.757283536052688,4.439663526281608,tremor
108,6913735,0.754,-0.19112722931471451,-0.2660509602920293,-0.9378856789949146,-12.891272273754897,-2.730770685717451,6.976054940837371,tremor
109,6913745,0.764,-0.18885454423096382,-0.2650914429286735,-0.9424578053319107,-11.483033993418873,-2.663530221996735,9.471386487941311,tremor
110,6913750,0.769,-0.18650932143078933,-0.26427179423403746,-0.94688209637218,-10.080048876999667,-2.543739543882497,11.92048596517144,tremor
111,6913754,0.773,-0.18412705201285023,-0.2635940465780741,-0.9511431050574893,-8.689878063354419,-2.360407278281422,14.318445670892586,tremor
112,6913764,0.783,-0.18174472548577456,-0.2630600531974234,-0.9552253673511127,-7.319943942167696,-2.103484534512079,16.66065197439497,tremor
113,6913774,0.793,-0.17940044664725216,-0.26267147560754306,-0.9591135256015554,-5.977471603045197,-1.763964547941982,18.94281378222765,tremor
114,6913784,0.803,-0.1771330265998418,-0.26242976618060293,-0.9627924627401392,-4.669430905425218,-1.333974775550604,21.160990355281406,tremor
115,6913789,0.808,-0.1749815419751967,-0.2623361447926061,-0.9662474487562955,-3.4024788070331264,-0.8068652275737781,23.311618814351636,tremor
116,6913794,0.813,-0.17298485885609324,-0.26239156876957775,-0.9694642998706466,-2.1829017348656117,-0.17729597327164304,25.391541472928072,tremor
117,6913821,0.84,-0.17118112114654452,-0.26259669575341293,-0.9724295496650194,-1.0165580249253527,0.5586746171940677,27.398032864019715,tremor
118,6913826,0.845,-0.16960720714728938,-0.26295183955979945,-0.9751306302158651,0.09117922703177844,1.4035010715702416,29.3288260118303,tremor
119,6913831,0.85,-0.16829816255481775,-0.2634569196035726,-0.9775560600969913,1.135478215525248,2.3580634628738766,31.182137190254835,tremor
120,6913841,0.86,-0.16728662251919751,-0.2641114049983109,-0.9796956350532448,2.1121023659683162,3.421585138305404,32.95668816922828,tremor
121,6913846,0.865,-0.166602239197662,-0.2649142549615813,-0.9815406162739498,3.017460903447945,4.591560365364621,34.65172481770218,tremor
122,6913851,0.87,-0.16627113395963772,-0.26586385763091425,-0.9830839105660547,3.8486546288088443,5.863697438178116,36.2670309108448,tremor
123,6913855,0.874,-0.16631539475378695,-0.26695796977199837,-0.9843202363721656,4.603515420078798,7.231883026614805,37.802936056186525,tremor
124,6913860,0.879,-0.16675263903877485,-0.26819366010100953,-0.9852462695134067,5.28063800535916,8.688173379047141,39.26031678379498,tremor
125,6913865,0.884,-0.16759566116962435,-0.2695672590260315,-0.985860762763248,5.879402657257232,10.22281746941135,40.640590019871254,tremor
126,6913870,0.889,-0.16885218041086877,-0.27107431753564815,-0.986164633864129,6.399987624989134,11.824316374816283,41.94569836740876,tremor
127,6913880,0.899,-0.1705247020694991,-0.2727095777360735,-0.9861610173632013,6.843370338109181,13.479522132386904,43.17808684339388,tremor
128,6913885,0.904,-0.17261049987315258,-0.27446695717819913,-0.9858552766421851,7.2113166784570915,15.173778087935533,44.34067096514205,tremor
129,6913890,0.909,-0.17510172293771356,-0.27633954864392885,-0.9852549737195848,7.506357917716074,16.89110134517339,45.436796334619004,tremor
130,6913894,0.913,-0.1779856257569506,-0.2783196365032047,-0.9843697957725078,7.731755247874039,18.614406389360774,46.47019013306064,tremor
131,6913899,0.918,-0.18124491487073582,-0.28039873013910815,-0.983211438808724,7.89145217847114,20.325767337776817,47.444905201992384,tremor
132,6913904,0.923,-0.1848582014368945,-0.2825676142992393,-0.9817934504546986,7.990015424076742,22.00671461047373,48.36525764438499,tremor
133,6913910,0.929,-0.18880054498240478,-0.2848164155960093,-0.9801310353434363,8.03256524680695,23.638560170375943,49.235759124719465,tremor
134,6913915,0.934,-0.1930440702249453,-0.28713468377158147,-0.9782408280174038,8.024696545381953,25.202743902876726,50.06104527093791,tremor
135,6913942,0.961,-0.19755863609156935,-0.28951148578684316,-0.9761406395360217,7.972392290589295,26.681192243197152,50.84580177355258,tremor
136,6913952,0.971,-0.2023125339883575,-0.29193551030907455,-0.9738491850164194,7.88193118990156,28.056678899201334,51.59468992196265,tremor
137,6913957,0.976,-0.20727319113277803,-0.29439517978324237,-0.9713858000489375,7.759791701601717,29.31317663336014,52.312273391636076,tremor
138,6913967,0.986,-0.2124078545624642,-0.29687876700181615,-0.9687701542242321,7.612554677771385,30.436188808519,53.00294807127591,tremor
139,6913971,0.99,-0.21768423246435617,-0.29937451295589823,-0.9660219698412207,7.446806965339518,31.413049931084206,53.670876585522926,tremor
140,6913976,0.995,-0.2230710717466938,-0.30187074275967596,-0.963160753274465,7.2690482259366025,32.23318567881291,54.3199289450501,tremor
141,6913981,1.0,-0.2285386541310369,-0.3043559765808292,-0.9602055455788896,7.085603061350233,32.88832464652809,54.95363047815187,tremor
142,6913986,1.005,-0.23405919719116147,-0.30681903276692657,-0.9571746978303086,6.902540274914209,33.37265604606115,55.575117896319924,tremor
143,6913991,1.01,-0.23960715140773634,-0.30924912071797833,-0.9540856755466076,6.7256007846496,33.68292969657806,56.18710403758928,tremor
144,6913996,1.015,-0.24515938915827878,-0.31163592150411845,-0.9509548953726755,6.560135352548197,33.818496734823036,56.791851525864026,tremor
145,6914001,1.02,-0.25069528636845506,-0.3139696547488549,-0.947797596078388,6.411052921833183,33.781291482179064,57.39115529258551,tremor
146,6914006,1.025,-0.25619670209462386,-0.31624113087398814,-0.9446277448311984,6.282779974091274,33.57575675511382,57.986333641468406,tremor
147,6914010,1.029,-0.26164786540031815,-0.3184417884115909,-0.9414579786722316,6.179230946844449,33.20871653190265,58.578227310197526,tremor
148,6914015,1.034,-0.26703518236941015,-0.32056371670898365,-0.9382995801531985,6.103789406996683,32.68920124139786,59.167205805323434,tremor
149,6914020,1.039,-0.2723469788304023,-0.32259966496013376,-0.9351624851883559,6.059299372132324,32.02823199192967,59.75318016457995,tremor
150,6914025,1.044,-0.27757319624176985,-0.3245430390646949,-0.9320553203535701,6.048065921522131,31.238570801431493,60.33562123605214,tremor
151,6914030,1.049,-0.2827050591277299,-0.32638788831421606,-0.9289854661424117,6.071864050508337,30.334444325598717,60.913582553000126,tremor
152,6914034,1.053,-0.28773473240396796,-0.32812888430159415,-0.9259591420905704,6.131954602026385,29.33124872143805,61.48572692047314,tremor
153,6914039,1.058,-0.29265498587141603,-0.3297612947133997,-0.9229815092281102,6.229106061189809,28.245243153635478,62.05035590672092,tremor
154,6914066,1.085,-0.2974588811124367,-0.33128095476988506,-0.9200567850340324,6.363621023221756,27.093239088353062,62.605441537777104,tremor
155,6914071,1.09,-0.30213949312007177,-0.33268423900669225,-0.9171883659655251,6.535366235247643,25.892291975347977,63.14865961225017,tremor
156,6914076,1.095,-0.3066896754920093,-0.333968035836184,-0.9143789527281602,6.743805251646519,24.65940126481402,63.677424165097186,tremor
157,6914081,1.1,-0.31110187433407455,-0.3351297268897088,-0.9116306737481376,6.988032902310885,23.411224021874755,64.18892269333728,tremor
158,6914086,1.105,-0.3153679925893411,-0.3361671725552249,-0.9089452027892337,7.266810921139018,22.163806757235246,64.6801518028531,tremor
159,6914091,1.11,-0.31947930367100663,-0.33707870444717386,-0.9063238672858225,7.578604195354368,20.932339516094054,65.14795294903172,tremor
160,6914096,1.115,-0.3234264111820666,-0.3378631248537168,-0.9037677446831925,7.921617167675653,19.730935749398594,65.58904793916786,tremor
161,6914101,1.12,-0.327199250168042,-0.33851971257392116,-0.9012777448317691,8.293829958880242,18.572441004004897,66.00007385395406,tremor
162,6914105,1.124,-0.33078712471554506,-0.3390482340425111,-0.8988546772286494,8.693033789866798,17.468272981639696,66.37761703767707,tremor
163,6914110,1.129,-0.33417877668342943,-0.33944895828128735,-0.8964993026085876,9.11686528176721,16.42829500434338,66.7182458090219,tremor
164,6914115,1.134,-0.33736248080356684,-0.3397226740313723,-0.8942123690413395,9.562839208501572,15.460724363080937,67.01854156297819,tremor
165,6914120,1.139,-0.34032616215499734,-0.3398707074030419,-0.8919946332872919,10.02837927356401,14.572076396133033,67.27512797392325,tremor
166,6914125,1.144,-0.3430575329244368,-0.33989493850482755,-0.889846868697541,10.510846485488166,13.767144428347851,67.48469807310478,tremor
167,6914135,1.154,-0.34554424624786395,-0.3397978157441472,-0.8877698614165374,11.007564719214692,13.049014893443816,67.64403906054743,tremor
168,6914139,1.158,-0.347774065627061,-0.33958236678657094,-0.885764397047741,11.515843081386747,12.419116067877312,67.75005481825917,tremor
169,6914144,1.163,-0.34973504879404094,-0.3392522054768594,-0.8838312402566518,12.032994757317045,11.87729789749739,67.79978621071767,tremor
170,6914149,1.168,-0.3514157448421,-0.3388115343194937,-0.8819711099800239,12.556352117034292,11.421939449310493,67.79042938000829,tremor
171,6914154,1.173,-0.3528054028897716,-0.3382651423522869,-0.8801846529514692,13.083278004398663,11.050079634204504,67.71935235769722,tremor
172,6914159,1.178,-0.35389418950446266,-0.33761839839866015,-0.8784724181202967,13.611173326831143,10.757566090504573,67.58411041586231,tremor
173,6914164,1.183,-0.3546734106777267,-0.3368772397419204,-0.8768348342288582,14.137481296602227,10.53921656242379,67.38246065568956,tremor
174,6914191,1.21,-0.3551357324698382,-0.3360481562303433,-0.8752721923364982,14.659688932677335,10.388986821868468,67.11237636823881,tremor
175,6914196,1.215,-0.35527539275962,-0.33513816970802496,-0.8737846344667214,15.175326684020575,10.300139238676966,66.77206167838355,tremor
176,6914201,1.22,-0.35508839520981483,-0.3341548085023447,-0.8723721488709321,15.681967225059077,10.265406579661247,66.3599668803805,tremor
177,6914210,1.229,-0.3545726760720053,-0.3331060765330927,-0.8710345717442106,16.177224533896215,10.277146555567175,65.87480468567297,tremor
178,6914215,1.234,-0.35372823522060953,-0.33200041649943224,-0.8697715946992387,16.658754258568994,10.327483967330124,65.31556735139114,tremor
179,6914220,1.239,-0.3525572249166875,-0.33084666659851486,-0.868582776969457,17.124256133610963,10.408438816400574,64.68154439001876,tremor
180,6914225,1.244,-0.35106399297499985,-0.32965401036171976,-0.8674675611814722,17.57147889423241,10.512040182089837,63.97234033036742,tremor
181,6914234,1.253,-0.3492550807343658,-0.3284319194645837,-0.8664252915768262,17.998227805977532,10.630426854175143,63.18789184151426,tremor
182,6914244,1.263,-0.34713917996113586,-0.32719008975354763,-0.8654552337199508,18.40237461540159,10.755936564504442,62.328483455130616,tremor
183,6914249,1.268,-0.34472705603326464,-0.3259383711919676,-0.8645565949386036,18.781869452010124,10.881186151381797,61.39476112561246,tremor
184,6914254,1.273,-0.3420314469920038,-0.32468669289538926,-0.8637285449399181,19.13475399826954,10.999145077387812,60.387742945464765,tremor
185,6914263,1.282,-0.33906694893993755,-0.3234449848293473,-0.8629702361725962,19.459175123634175,11.103204387022037,59.30882647343171,tremor
186,6914268,1.287,-0.3358498976295499,-0.32222309801507054,-0.8622808235282254,19.75339817467757,11.187242483032,58.159792314037524,tremor
187,6914273,1.292,-0.3323982539896849,-0.3210307251766343,-0.861659482885717,20.0158192362253,11.245688134163325,56.94280378459538,tremor
188,6914287,1.306,-0.3287314980406211,-0.31987732363091764,-0.8611054278229072,20.24497592379886,11.27358003973972,55.6604026985878,tremor
189,6914314,1.333,-0.32487053155119855,-0.3187720418573892,-0.8606179235908887,20.439556614295153,11.266621208552118,54.31550146664641,tremor
190,6914319,1.338,-0.3208375854439053,-0.31772365062000496,-0.8601962972353444,20.598408412855413,11.221225541079027,52.91137184723011,tremor
191,6914323,1.342,-0.3166561241048949,-0.31674047884169804,-0.8598399426447452,20.720544485780422,11.134553570994303,51.45163073771754,tremor
192,6914328,1.347,-0.3123507362486232,-0.3158303538000837,-0.8595483193989073,20.8051515472401,11.004534512091388,49.94022336080681,tremor
193,6914333,1.352,-0.30794700143453196,-0.31500054477046346,-0.8593209446293365,20.851598219971695,10.829872548884158,48.38140408548833,tremor
194,6914338,1.357,-0.3034713228312667,-0.31425770907674566,-0.8591573776554225,20.859444742765422,10.610036459375339,46.77971497702807,tremor
195,6914348,1.367,-0.2989507199788054,-0.3136078396281221,-0.8590571978377405,20.828454162538875,10.345232869654374,45.13996204925261,tremor
196,6914353,1.372,-0.29441257948525773,-0.3130562133706498,-0.8590199767795488,20.758604799388426,10.03636450883371,43.46718912316267,tremor
197,6914357,1.376,-0.28988436615887264,-0.31260734059779105,-0.8590452466016393,20.650103450494598,9.684975655588932,41.766649183308395,tremor
198,6914362,1.381,-0.2853933014104665,-0.3122649156640056,-0.8591324664191734,20.50339853125547,9.29318749607607,40.04377316124978,tremor
199,6914367,1.386,-0.28096601935930726,-0.31203177025025286,-0.8592809892939983,20.319192162375188,8.863626345153712,38.30413615321804,tremor
200,6914372,1.391,-0.27662821358459555,-0.3119098308652141,-0.8594900317974181,20.098450114225955,8.399347659553916,36.553421183649256,tremor
201,6914377,1.396,-0.27240428870778755,-0.31190008267055186,-0.8597586479203274,19.842408520455475,7.903758551461721,34.7973807437342,tremor
202,6914381,1.4,-0.2683170309465243,-0.31200254194985527,-0.8600857084724514,19.55257637138582,7.380541146559139,33.04179645189002,tremor
203,6914386,1.405,-0.2643873105584511,-0.31221623957339417,-0.8604698864051094,19.230732987785796,6.833578667676998,31.292437290309763,tremor
204,6914391,1.41,-0.26063382690396353,-0.31253921763262876,-0.8609096477653493,18.878919942151143,6.26688561169152,29.555016958608405,tremor
205,6914396,1.415,-0.2570729039740187,-0.31296854102987154,-0.8614032473338937,18.499427213310298,5.684542877493022,27.835150942638226,tremor
206,6914401,1.42,-0.253718340951785,-0.31350032522225885,-0.8619487274958416,18.094773698265108,5.090638253774155,26.138313917068952,tremor
207,6914411,1.43,-0.2505813190090813,-0.3141297805619324,-0.8625439186085029,17.667682525297383,4.489212337750106,24.46979808363813,tremor
208,6914436,1.455,-0.24767036238592716,-0.31485127279186287,-0.8631864391167612,17.221051877592878,3.884209764517557,22.834672999105067,tremor
209,6914441,1.46,-0.2449913491832078,-0.3156583983279451,-0.8638736939520277,16.757922215279383,3.2794355907203934,21.23774737938936,tremor
210,6914451,1.47,-0.2425475655311935,-0.31654407210823465,-0.8646028703214337,16.281440857225494,2.678516764746082,19.6835332956079,tremor
211,6914455,1.474,-0.240339796093099,-0.3175006251705234,-0.8653709307683168,15.794824858381912,2.084868753493428,18.176213121792962,tremor
212,6914460,1.479,-0.23836644418943023,-0.31851990883950515,-0.866174604223937,15.301323027839173,1.5016674928181597,16.71960956307638,tremor
213,6914465,1.484,-0.2366236758771386,-0.3195934024738474,-0.8670103765213601,14.804177822267084,0.9318268295982185,15.31715908237935,tremor
214,6914470,1.489,-0.23510558364965717,-0.32071232205893485,-0.867874482389146,14.306587751896162,0.37798152814242,13.971889039227406,tremor
215,6914475,1.494,-0.23380436665992319,-0.3218677274152624,-0.8687629012250371,13.81167086348792,-0.157524241761979,12.686398844165574,tremor
216,6914480,1.499,-0.23271052527332503,-0.323050626319403,-0.869671358957982,13.322429814920547,-0.6726431928981269,11.462845410582112,tremor
217,6914484,1.503,-0.23181306822885578,-0.3242520743262858,-0.8705953380639471,12.84171902322216,-1.1656264074721858,10.302933150459024,tremor
218,6914489,1.508,-0.2310997307212491,-0.3254632694894314,-0.8715300973520104,12.372214345622439,-1.6350205815943257,9.20790871068524,tremor
219,6914494,1.513,-0.2305572013855621,-0.32667564147614825,-0.8724707025396583,11.916385733948761,-2.0796616813569986,8.17856058217455,tremor
220,6914499,1.518,-0.23017135558890833,-0.3278809347627444,-0.8734120679518095,11.476473278563528,-2.498665711883008,7.215223636935762,tremor
221,6914504,1.523,-0.22992749175292335,-0.32907128567923094,-0.8743490089664467,11.054467022113304,-2.891417298708107,6.317788562146905,tremor
222,6914509,1.528,-0.2298105667832151,-0.33023929307200883,-0.8752763041445235,10.652090869975687,-3.257556731305373,5.485716070333582,tremor
223,6914514,1.533,-0.22980542618865854,-0.3313780822915047,-0.8761887653690981,10.270790849995668,-3.5969660261401804,4.718055676415308,tremor
224,6914518,1.537,-0.22989702422786434,-0.33248136211849394,-0.8770813138166187,9.911727880349087,-3.9097544404869464,4.013468749936654,tremor
225,6914523,1.542,-0.230070629486183,-0.3335434741483559,-0.8779490592211273,9.575775097975388,-4.196243722312025,3.3702554765731967,tremor
226,6914528,1.547,-0.23031201169344342,-0.33455943408581135,-0.8787873796870562,9.263519689570895,-4.456953231156624,2.786385298029326,tremor
227,6914533,1.552,-0.23060760632897784,-0.33552496438718166,-0.8795919992605371,8.975269059490033,-4.692584922554267,2.259530344438964,tremor
228,6914558,1.577,-0.23094465457215213,-0.3364365177363058,-0.880359060571379,8.71106106888111,-4.904008063083214,1.7871013290119613,tremor
229,6914568,1.587,-0.23131131734732704,-0.33729129095465143,-0.8810851900872709,8.470677992522067,-5.092243444760724,1.3662853418360705,tremor
230,6914573,1.592,-0.23169676344062465,-0.33808722911230393,-0.8817675538509542,8.253663770154816,-5.258446812772848,0.9940849604717732,tremor
231,6914578,1.597,-0.23209123275647467,-0.33882301979804347,-0.8824039019678004,8.059344083994384,-5.403891228943372,0.6673580921561966,tremor
232,6914582,1.601,-0.23248607657750162,-0.33949807769281926,-0.8829926005419025,7.886848775220809,-5.529948171368504,0.38285797695716584,tremor
233,6914587,1.606,-0.23287377712000396,-0.3401125197489943,-0.8835326501947558,7.735136113889567,-5.638067301685467,0.13727280956901705,tremor
234,6914592,1.611,-0.23324794876821095,-0.3406671314003872,-0.8840236907217646,7.603018449768494,-5.729754985821593,-0.07273552657561284,tremor
235,6914597,1.616,-0.2336033232114389,-0.34116332432045976,-0.8844659918359119,7.489188789873962,-5.806551806139896,-0.2504940805670204,tremor
236,6914601,1.62,-0.23393572039736893,-0.34160308631870856,-0.8848604303081843,7.392247869543273,-5.870009437295193,-0.39928323929965565,tremor
237,6914606,1.625,-0.23424200683776997,-0.34198892402982173,-0.885208454138032,7.310731306459289,-5.921667366849836,-0.5223033066113459,tremor
238,6914611,1.63,-0.23452004242826846,-0.3423237991163465,-0.885512034674924,7.243136449237397,-5.963030020965457,-0.6226436077239099,tremor
239,6914616,1.635,-0.23476861662180915,-0.34261105878100995,-0.8857736078671299,7.187948551935689,-5.995544904199091,-0.7032544326539086,tremor
