sample,t_ms,t_s,ax,ay,az,gx,gy,gz,tremor
0,10166717,0.0,-0.361020265055146,-0.2435875003062919,0.826435617953596,0.5645041471823479,1.0693272168732368,0.02915738124961947,no_tremor
1,10166772,0.055,-0.36098104703654,-0.24354387494675891,0.8264416077462913,0.4271427578126907,1.020717432854115,-0.021059646265632722,no_tremor
2,10166783,0.066,-0.3609339908166403,-0.2434850487724121,0.8264571670733047,0.2933498133568209,0.9701723336380786,-0.0743430450578114,no_tremor
3,10166794,0.077,-0.36088530956928,-0.24341227626393233,0.826485217268559,0.1672831219576479,0.9179864559529723,-0.12991948527850028,no_tremor
4,10166817,0.1,-0.36084550094377843,-0.24333116901285406,0.826526860404115,0.05262573320936464,0.8645782222003321,-0.18705839890901182,no_tremor
5,10166828,0.111,-0.3608263103216237,-0.24324972893221106,0.8265814503907302,-0.04757581582593876,0.8105029717450307,-0.24509864948307056,no_tremor
6,10166871,0.154,-0.36083825917192525,-0.24317642758144173,0.826647517501759,-0.1310341547493484,0.7564484700525664,-0.30345920285661965,no_tremor
7,10166882,0.165,-0.3608893152762129,-0.24311906252341559,0.8267237332162751,-0.19629898439631277,0.703213897431785,-0.3616330662759607,no_tremor
8,10166894,0.177,-0.3609843774678248,-0.24308426267419705,0.8268095408756655,-0.2427881628447924,0.6516763517553527,-0.41916660480558754,no_tremor
9,10166905,0.188,-0.3611251733826317,-0.24307733973878667,0.826905408387014,-0.27077299625012297,0.6027503113235632,-0.47562877065637665,no_tremor
10,10166916,0.199,-0.3613103391636229,-0.24310226411887895,0.8270127863264447,-0.2813210707481954,0.5573451514040061,-0.5305761521091145,no_tremor
11,10166927,0.21,-0.3615356009723841,-0.24316165725745972,0.8271338692948543,-0.2762015469183566,0.5163242898881715,-0.583520057108207,no_tremor
12,10166939,0.222,-0.3617940541685101,-0.24325676871841798,0.8272712388829734,-0.25775896093431727,0.4804678203854111,-0.6339014029819641,no_tremor
13,10166961,0.244,-0.36207655669609334,-0.24338744432083118,0.8274274468403051,-0.22876260337359786,0.45043934196366675,-0.6810781164112519,no_tremor
14,10166993,0.276,-0.3623722455986778,-0.24355210497318516,0.8276045851862007,-0.1922398262774982,0.42675725832328226,-0.7243280310882273,no_tremor
15,10167005,0.288,-0.3626691674852979,-0.2437477558804005,0.8278038850165267,-0.15130314135535686,0.4097707380609408,-0.7628680744287887,no_tremor
16,10167016,0.299,-0.36295499466388825,-0.24397003995761005,0.8280253839068064,-0.10898204755366742,0.3996405847106823,-0.7958883528353689,no_tremor
17,10167027,0.31,-0.3632177832400292,-0.2442133422777234,0.8282676986050964,-0.06807027139298055,0.396325673685574,-0.8225981090236716,no_tremor
18,10167039,0.322,-0.3634467201399103,-0.24447094689466392,0.8285279315698273,-0.03099729963191191,0.3995764404134842,-0.8422796393640037,no_tremor
19,10167050,0.333,-0.3636328038719719,-0.24473524435580402,0.8288017259546235,0.00026956742663857133,0.40893756475907145,-0.854345947116701,no_tremor
20,10167061,0.344,-0.3637694088119861,-0.24499798717732768,0.8290834659850385,0.02428903907968692,0.4237616770854313,-0.8583977678142216,no_tremor
21,10167084,0.367,-0.3638526934900501,-0.24525059014087872,0.8293666019615534,0.04017423592150411,0.4432343686963813,-0.8542753013554729,no_tremor
22,10167115,0.398,-0.363881827399543,-0.24548447078387223,0.8296440647552983,0.047586562479814555,0.4664086352230843,-0.8420996804222841,no_tremor
23,10167126,0.409,-0.3638590257536897,-0.24569142163211505,0.8299087258344163,0.0466981413964727,0.49224516168112065,-0.8222995093962113,no_tremor
24,10167138,0.421,-0.3637893956316718,-0.24586399960969468,0.8301538564826946,0.038127881428354944,0.519654322463043,-0.7956190450967107,no_tremor
25,10167149,0.432,-0.3636806091956073,-0.2459959113182059,0.830373543739295,0.022857742334181214,0.5475364135158655,-0.7631063860287752,no_tremor
26,10167160,0.443,-0.3635424296511953,-0.24608236788514354,0.8305630294145879,0.002136681241786505,0.5748178584284716,-0.7260818421628372,no_tremor
27,10167171,0.454,-0.36338612300304174,-0.24612038151449195,0.8307189501704119,-0.022619947698788376,0.6004822851595623,-0.6860882742576017,no_tremor
28,10167183,0.466,-0.36322379327558413,-0.24610897804669685,0.8308394687430009,-0.04992825602764713,0.623596137729972,-0.6448265995234878,no_tremor
29,10167194,0.477,-0.3630676809552265,-0.24604930509740408,0.8309242971467489,-0.07832489347300291,0.6433288881702813,-0.6040807193583118,no_tremor
30,10167205,0.488,-0.3629294644293389,-0.24594462276257315,0.8309746211821953,-0.10644296497852158,0.6589681290415813,-0.5656366897741996,no_tremor
31,10167248,0.531,-0.3628196026451017,-0.2458001726707974,0.8309929414408324,-0.13307219222384015,0.6699300664940201,-0.5312010753553694,no_tremor
32,10167259,0.542,-0.36274675443554416,-0.24562293075871952,0.8309828492083284,-0.15720221424302333,0.6757663524035321,-0.5023232601053985,no_tremor
33,10167270,0.553,-0.3627173059840022,-0.24542125886302912,0.8309487564506627,-0.17804893783853762,0.6761686545959557,-0.4803261075192248,no_tremor
34,10167282,0.565,-0.36273503231019244,-0.24520447891231978,0.8308955981035586,-0.19506445731970226,0.6709723118103058,-0.4662487656360873,no_tremor
35,10167293,0.576,-0.3628009109591614,-0.24498239970885943,0.8308285232455029,-0.20793153530851066,0.6601594251570727,-0.4608046304819174,no_tremor
36,10167305,0.588,-0.36291309635602703,-0.2447648289656878,0.8307525904607924,-0.21654421256127723,0.643860202063151,-0.4643565418342568,no_tremor
37,10167316,0.599,-0.3630670525708493,-0.24456110229041167,0.8306724823379722,-0.2209769271189951,0.6223502975764075,-0.476910166699128,no_tremor
38,10167327,0.61,-0.36325583204446915,-0.2443796568406607,0.8305922544640675,-0.2214455806326974,0.5960420013574682,-0.4981252923369223,no_tremor
39,10167359,0.642,-0.36347047947233174,-0.244227671323854,0.8305151347186266,-0.21826504831836802,0.565468350037175,-0.5273436210556453,no_tremor
40,10167370,0.653,-0.3637005341452915,-0.2441107867382095,0.8304433879805317,-0.21180819077554636,0.5312609827170075,-0.563630817720891,no_tremor
41,10167381,0.664,-0.36393460047128423,-0.2440329147483292,0.8303782583052548,-0.2024710771664104,0.49412396086159416,-0.6058300208995757,no_tremor
42,10167393,0.676,-0.36416095459290565,-0.24399613421237346,0.8303199945198279,-0.19064786707833925,0.45480613511363116,-0.6526236949495093,no_tremor
43,10167404,0.687,-0.36436815445441434,-0.24400067245628168,0.8302679565088412,-0.17671695300909104,0.4140738053654963,-0.7026004691801744,no_tremor
44,10167415,0.698,-0.3645456211718447,-0.24404496679538382,0.8302207899840951,-0.1610379422264764,0.3726840389830213,-0.7543234502720281,no_tremor
45,10167427,0.71,-0.36468416127410813,-0.24412580241027823,0.8301766495159046,-0.14395726993924626,0.33135816185404654,-0.8063964262037104,no_tremor
46,10167438,0.721,-0.3647764026353352,-0.24423852288449735,0.8301334448454354,-0.12581909469205776,0.29075522917941077,-0.8575243692907435,no_tremor
47,10167449,0.732,-0.3648171220109716,-0.2443773076582923,0.8300890848086531,-0.10697787326313879,0.25144638529045144,-0.9065647031738598,no_tremor
48,10167481,0.764,-0.3648034490704904,-0.24453550585164502,0.83004169648459,-0.0878095829904156,0.2138920514926825,-0.9525661468423394,no_tremor
49,10167492,0.775,-0.36473494020703207,-0.2447060095124196,0.82998980357422,-0.06871962564154467,0.1784241575184429,-0.9947928051213326,no_tremor
50,10167503,0.786,-0.3646135240908986,-0.24488164356502948,0.8299324559220086,-0.05014657524917013,0.1452351255004805,-1.0327324332639976,no_tremor
51,10167515,0.798,-0.3644433285587408,-0.2450555467451698,0.8298693093996379,-0.0325617944668803,0.11437451807356194,-1.066089179287383,no_tremor
52,10167526,0.809,-0.36423040409535296,-0.24522151869279912,0.8298006602315947,-0.016465437987645673,0.0857536925649716,-1.094762460157975,no_tremor
53,10167537,0.82,-0.3639823628669968,-0.24537431271542787,0.8297274395626829,-0.0023795221904331504,0.05915856981194445,-1.118814900712185,no_tremor
54,10167549,0.832,-0.3637079546253516,-0.24550986001079927,0.8296511733262018,0.009161407445316428,0.03427036475185933,-1.1384332591586939,no_tremor
55,10167560,0.843,-0.36341660240037676,-0.24562541758972506,0.8295739107472447,0.017621875110171832,0.010693445819779136,-1.1538866992345405,no_tremor
56,10167571,0.854,-0.36311792183306946,-0.24571963745316894,0.829498123624902,0.022479614687295275,-0.012011484515652537,-1.1654864880251725,no_tremor
57,10167603,0.886,-0.36282124794891585,-0.24579255820826298,0.8294265788876928,0.023242621095075352,-0.034291413417621854,-1.1735502358966141,no_tremor
58,10167626,0.909,-0.3625351919181448,-0.2458455225197933,0.8293621889657676,0.019469102599134487,-0.05656479948608313,-1.178372447769688,no_tremor
59,10167637,0.92,-0.36226724825858697,-0.24588102551496055,0.8293078474811375,0.010789655076039002,-0.07918700439631339,-1.1802020008712122,no_tremor
60,10167649,0.932,-0.3620234707910426,-0.24590250165050975,0.8292662602811363,-0.0030695709272407557,-0.1024183878969781,-1.1792266915240186,no_tremor
61,10167660,0.943,-0.36180823371260684,-0.2459140612569211,0.8292397828552306,-0.022264104292607157,-0.12639576401073993,-1.1755651293746296,no_tremor
62,10167671,0.954,-0.3616240915289211,-0.2459201925455655,0.8292302744421701,-0.04681009351481478,-0.151108582635046,-1.1692664913833624,no_tremor
63,10167682,0.965,-0.36147174693379075,-0.24592544896342136,0.8292389771078812,-0.0765662485676019,-0.17638230704215915,-1.1603185475236673,no_tremor
64,10167694,0.977,-0.36135012856392595,-0.2459341440004883,0.8292664254560886,-0.11122020859988287,-0.2018719154212079,-1.148663792109632,no_tremor
65,10167726,1.009,-0.3612565718654574,-0.2459500751007861,0.8293123901695628,-0.15028073588704594,-0.22706766578478363,-1.134222582164945,no_tremor
66,10167737,1.02,-0.36118708790379767,-0.2459762951580154,0.8293758570041401,-0.19307679306283598,-0.25131358312219265,-1.1169212595067335,no_tremor
67,10167748,1.031,-0.3611366983525325,-0.2460149447590884,0.829455042624983,-0.23876409766037743,-0.27383749928224455,-1.0967226572520894,no_tremor
68,10167759,1.042,-0.3610998106884514,-0.24606715187375078,0.82954744954384,-0.2863393829022043,-0.29379068683865756,-1.0736561612071769,no_tremor
69,10167771,1.054,-0.361070605704824,-0.24613299929656138,0.8296499633459736,-0.334662281371459,-0.31029511785425656,-1.047844375070363,no_tremor
70,10167782,1.065,-0.3610434097794262,-0.24621155497746208,0.8297589950233614,-0.38248439782256766,-0.3224962365915987,-1.0195233515879754,no_tremor
71,10167793,1.076,-0.36101302717283695,-0.2463009572301161,0.8298706686147271,-0.42848481315519477,-0.3296179730815594,-0.9890535165601122,no_tremor
72,10167805,1.088,-0.3609750132028178,-0.24639854592935143,0.8299810494091442,-0.4713110229691143,-0.3310145610899506,-0.9569190989736509,no_tremor
73,10167816,1.099,-0.36092587700285594,-0.24650103176498378,0.8300864014033664,-0.5096241170373247,-0.3262116139657278,-0.923715186438991,no_tremor
74,10167848,1.131,-0.360863211327938,-0.24660469734319043,0.8301834556898797,-0.5421468252534011,-0.3149284324069022,-0.8901233114980732,no_tremor
75,10167859,1.142,-0.3607857542862543,-0.24670562502960894,0.8302696654300956,-0.5677128450738388,-0.2970759148286353,-0.8568783114843104,no_tremor
76,10167882,1.165,-0.3606933915115293,-0.24679994567975722,0.8303434196860723,-0.5853154637500727,-0.2727296392940014,-0.8247304719870717,no_tremor
77,10167893,1.176,-0.3605871058209045,-0.24688409926587562,0.8304041892658914,-0.5941528626345759,-0.24208387870945278,-0.7944072502821476,no_tremor
78,10167916,1.199,-0.3604688761574452,-0.2469550934834898,0.8304525837781049,-0.5936669720825105,-0.20539690106534692,-0.7665782639040052,no_tremor
79,10167938,1.221,-0.3603415226070062,-0.24701074142235427,0.830490309760441,-0.5835727932607926,-0.16293926819691232,-0.741826122551378,no_tremor
80,10167970,1.253,-0.3602084936921197,-0.2470498564213721,0.8305200330257037,-0.5638759280887321,-0.11495522864972094,-0.7206244371593643,no_tremor
81,10167981,1.264,-0.36007359729533117,-0.24707238276323298,0.8305451612452992,-0.5348775088065184,-0.06164404072895987,-0.7033231369871634,no_tremor
82,10167993,1.276,-0.35994068540021895,-0.24707944517228078,0.8305695720592916,-0.49716731004707077,-0.003164209753206216,-0.6901401683700842,no_tremor
83,10168060,1.343,-0.3598133120941127,-0.247073307406051,0.8305973154257326,-0.45160691708292205,0.06034040649991383,-0.6811578636458914,no_tremor
84,10168092,1.375,-0.3596943915199442,-0.24705723921961073,0.8306323164864338,-0.3993050492359005,0.12869745579879222,-0.6763219183411492,no_tremor
85,10168104,1.387,-0.3595858863999615,-0.24703529989688572,0.8306780992970124,-0.34158668605976555,0.20165356692190803,-0.6754411617124944,no_tremor
86,10168115,1.398,-0.3594885577442246,-0.24701205372046742,0.8307375456357522,-0.2799569764069545,0.2788212814891016,-0.6781871232896252,no_tremor
87,10168126,1.409,-0.3594018023407598,-0.24699223750251542,0.8308126990127815,-0.21606031925069147,0.35963349337867967,-0.6840934568425566,no_tremor
88,10168138,1.421,-0.35932359719718493,-0.2469804031501282,0.8309046221697929,-0.15163459226975187,0.44331096197237,-0.6925562474225604,no_tremor
89,10168149,1.432,-0.35925056035996117,-0.2469805598785724,0.8310133154180753,-0.08846040659220317,0.5288453934553446,-0.7028369979639794,no_tremor
90,10168171,1.454,-0.3591781269354628,-0.246995841065946,0.83113770133126,-0.028305608834808337,0.6149983205770105,-0.7140705837083154,no_tremor
91,10168214,1.497,-0.3591008293925131,-0.24702821947063305,0.8312756775044619,0.027134063874855008,0.7003151411921662,-0.7252804682214568,no_tremor
92,10168237,1.52,-0.35901266380913915,-0.24707829165785994,0.8314242333742016,0.07629649790482661,0.7831536784506294,-0.7354029269360547,no_tremor
93,10168248,1.531,-0.3589075191421223,-0.24714514851950273,0.8315796203798465,0.11781453637528055,0.8617266970777376,-0.7433211475015645,no_tremor
94,10168271,1.554,-0.35877964430302656,-0.24722634417946965,0.8317375582685571,0.15057429545883397,0.9341576281013059,-0.7479091817314715,no_tremor
95,10168282,1.565,-0.35862412693697254,-0.24731797049051643,0.8318934554995064,0.1737673691958516,0.9985483190052195,-0.7480849018624529,no_tremor
96,10168293,1.576,-0.35843735762486567,-0.24741483869010458,0.8320426201061993,0.1869338377138084,1.053056788272859,-0.7428701417825405,no_tremor
97,10168304,1.587,-0.3582174531171272,-0.2475107634169969,0.8321804403276062,0.18999331039508624,1.0959815885863031,-0.7314548604576663,no_tremor
98,10168335,1.618,-0.35796461159219317,-0.2475989368881672,0.8323025218188195,0.1832617786194974,1.1258478571814459,-0.7132606621945895,no_tremor
99,10168347,1.63,-0.35768137201610317,-0.2476723725059751,0.8324047787109368,0.16745256857175406,1.1414891867208985,-0.6879979357843535,no_tremor
100,10168358,1.641,-0.35737274983848344,-0.24772438830275426,0.8324834868287667,0.1436600297186479,1.1421194259835934,-0.6557106573895244,no_tremor
101,10168369,1.652,-0.35704622435731337,-0.2477490933030335,0.8325353167889126,0.1133249790706823,1.1273891645459233,-0.6168034996645831,no_tremor
102,10168380,1.663,-0.3567115601994248,-0.24774183624431165,0.8325573707553708,0.07818163626697637,1.0974226211667366,-0.5720470568521981,no_tremor
103,10168392,1.675,-0.3563804562165319,-0.24769957747000776,0.8325472479048447,0.04018681757537275,1.0528318405119894,-0.5225586192936454,no_tremor
104,10168414,1.697,-0.35606602861818826,-0.24762115127983367,0.8325031590778197,0.0014333156595264763,0.9947065749664721,-0.4697580159493853,no_tremor
105,10168426,1.709,-0.3557821503184478,-0.24750739674157318,0.8324241003600876,-0.0359493588883555,0.924580082641975,-0.4153005053058396,no_tremor
106,10168457,1.74,-0.35554268428693536,-0.2473611484425216,0.8323100794468028,-0.06990228703269348,0.8443732907933214,-0.3609912738584189,no_tremor
107,10168468,1.751,-0.35536066353387047,-0.24718709285114018,0.8321623702104505,-0.09854648282634072,0.7563220312206665,-0.30868841903348343,no_tremor
108,10168480,1.763,-0.3552474814592694,-0.24699150853475432,0.8319837540866895,-0.12028725175268623,0.6628936926346582,-0.2602028657112311,no_tremor
109,10168491,1.774,-0.3552121603826261,-0.24678191738239103,0.8317786965542286,-0.13390643282239537,0.5666999903081217,-0.21720395654322408,no_tremor
110,10168502,1.785,-0.3552607608767546,-0.24656667807378918,0.8315534069244618,-0.13863611427070374,0.4704114438971855,-0.18113820180398163,no_tremor
111,10168513,1.796,-0.35539598008403217,-0.24635455235153408,0.8313157409586226,-0.134208503450025,0.3766770718918727,-0.15316620523265115,no_tremor
112,10168525,1.808,-0.35561696590562214,-0.24615427015596936,0.8310749265104105,-0.12087778112051266,0.28805061920261016,-0.13411988310314377,no_tremor
113,10168536,1.819,-0.3559193497684057,-0.24597411287756146,0.8308411184289327,-0.09941112191842813,0.20692304088418764,-0.12447952781824079,no_tremor
114,10168547,1.83,-0.35629547799240185,-0.2458215267603467,0.8306248156224448,-0.07104789329113531,0.13546021452248916,-0.12436846404357511,no_tremor
115,10168579,1.862,-0.3567348044553017,-0.24570277302067794,0.8304361959368421,-0.03742848545837942,0.07554485271317682,-0.13356211287073344,no_tremor
116,10168590,1.873,-0.3572243977287465,-0.2456226194239189,0.8302844393982494,-0.0004971734226644241,0.028722174606199566,-0.15150812812557377,no_tremor
117,10168601,1.884,-0.3577495147289569,-0.24558408049029284,0.8301771142912368,0.037613651291538826,-0.003850076837243149,-0.17735473040934394,no_tremor
118,10168613,1.896,-0.3582941990071571,-0.24558821881047319,0.8301196918763462,0.07470849097399235,-0.021445380642000553,-0.2099852912441383,no_tremor
119,10168624,1.907,-0.3588418727017126,-0.2456340253929944,0.8301152353769305,0.10865309152969815,-0.023802726652760144,-0.24805839695765008,no_tremor
120,10168635,1.918,-0.3593759038947689,-0.2457183999125017,0.8301642815306344,0.1374892568019441,-0.011147335621496035,-0.2900536075231496,no_tremor
121,10168657,1.94,-0.35988014258140133,-0.2458362506394844,0.830264904915245,0.15953336466652535,0.01580625843978241,-0.33432343146916893,no_tremor
122,10168668,1.951,-0.3603394259314412,-0.24598072803064755,0.8304129326399607,0.1734543831706701,0.05587178084484561,-0.3791514979849764,no_tremor
123,10168701,1.984,-0.3607400552178814,-0.24614359509986564,0.8306022640860663,0.17832949243442123,0.1074308281332383,-0.42281574521949084,no_tremor
124,10168712,1.995,-0.3610702426180336,-0.24631572207264082,0.8308252486420724,0.17367699512900314,0.16849413141267658,-0.4636540819762901,no_tremor
125,10168723,2.006,-0.36132051805129445,-0.24648767448196987,0.8310730822974909,0.15946715424406072,0.23678231031422678,-0.5001288521900936,no_tremor
126,10168734,2.017,-0.3614840777074411,-0.24665034691809143,0.8313361975795404,0.13611237610111376,0.3098222547638232,-0.5308858587409366,no_tremor
127,10168746,2.029,-0.3615570502315321,-0.24679558381921962,0.831604635700169,0.10443885363356521,0.3850538349142674,-0.5548038280589824,no_tremor
128,10168757,2.04,-0.36153865556202514,-0.24691672698749617,0.8318684008493932,0.0656420309377709,0.4599406100731055,-0.5710309284803003,no_tremor
129,10168768,2.051,-0.3614312355509329,-0.24700903715169265,0.8321178022034983,0.021227780304319873,0.5320776236545431,-0.5790059806706226,no_tremor
130,10168779,2.062,-0.3612401441740724,-0.24706995186828357,0.8323437891881508,-0.027059634167353564,0.5992893600251119,-0.5784630673787553,no_tremor
131,10168791,2.074,-0.360973497231871,-0.24709916121974188,0.832538280858795,-0.07732184127780967,0.659711723071503,-0.569419516305988,no_tremor
132,10168822,2.105,-0.3606417952778261,-0.24709850280636025,0.8326944825963232,-0.1276004366016318,0.7118535832232473,-0.5521490324787593,no_tremor
133,10168834,2.117,-0.3602574469537742,-0.24707169560844341,0.8328071747501575,-0.17597579906261274,0.7546358448268239,-0.5271439266580332,no_tremor
134,10168845,2.128,-0.35983423048685387,-0.24702394640836584,0.8328729508698521,-0.22066354550782805,0.7874085142996456,-0.4950720674028485,no_tremor
135,10168856,2.139,-0.3593867363411457,-0.24696147135320703,0.8328903802183736,-0.2601010105451744,0.8099480398877724,-0.45673452626881217,no_tremor
136,10168868,2.151,-0.35892983226896114,-0.24689097834181162,0.8328600718150918,-0.2930170525509533,0.8224377506390395,-0.41302875612055934,no_tremor
137,10168879,2.162,-0.3584781833882905,-0.24681915350209707,0.8327846250048245,-0.31848042701773965,0.8254339441896904,-0.3649201040438938,no_tremor
138,10168890,2.173,-0.3580458464850702,-0.2467521882887878,0.8326684627898662,-0.3359245870078875,0.8198199655413616,-0.31342223675487824,no_tremor
139,10168913,2.196,-0.35764594277188083,-0.24669537455442817,0.8325175568203111,-0.34514943209290444,0.8067509384186187,-0.25958510929697654,no_tremor
140,10168945,2.228,-0.35729040026557907,-0.2466527853213284,0.8323390650989638,-0.34630255484436395,0.7875922638165107,-0.2044876386725968,no_tremor
141,10168967,2.25,-0.35698974848414444,-0.246627050508181,0.8321409132378804,-0.3398437371847597,0.7638549292812472,-0.14923145168690602,no_tremor
142,10168978,2.261,-0.3567529456820739,-0.24661923047003462,0.8319313555907256,-0.32649701128937136,0.7371300259430159,-0.09493220317289153,no_tremor
143,10168990,2.273,-0.3565872221909456,-0.24662878607028862,0.8317185523911027,-0.30719465003331536,0.7090242950534649,-0.04270597252843664,no_tremor
144,10169012,2.295,-0.35649793116654077,-0.24665364161328154,0.8315101931593161,-0.2830170754404964,0.6810985173562397,0.006350351469815135,no_tremor
145,10169024,2.307,-0.3564884079103396,-0.24669033538538998,0.8313131867825893,-0.2551321415411783,0.6548108491882256,0.051184558957434505,no_tremor
146,10169035,2.318,-0.3565598483425552,-0.24673425072648705,0.8311334274904617,-0.22473686959338543,0.6314672442183823,0.09081939884954293,no_tremor
147,10169066,2.349,-0.35671122372791697,-0.24677991753109707,0.830975635997247,-0.19300449052800936,0.6121807642202725,0.12438566686946433,no_tremor
148,10169078,2.361,-0.35693925075749566,-0.2468213692428705,0.8308432680899511,-0.16103928204914078,0.5978411757084687,0.15115523797807714,no_tremor
149,10169089,2.372,-0.3572384333229808,-0.24685253397913226,0.8307384795867448,-0.12984091580944523,0.589095982650571,0.17057075711410316,no_tremor
150,10169100,2.383,-0.3576011859820251,-0.24686763192082656,0.8306621366301893,-0.1002789095946135,0.5863438212192854,0.18226918385323113,no_tremor
151,10169111,2.394,-0.35801804114259145,-0.24686154695802454,0.8306138627393845,-0.07307665168084572,0.5897405046804152,0.18609766331846572,no_tremor
152,10169123,2.406,-0.35847793411935575,-0.24683014089911537,0.8305921175312341,-0.04880363900262926,0.5992166305605181,0.18212156582295091,no_tremor
153,10169134,2.417,-0.3589685535171526,-0.24677048403281054,0.8305943051625533,-0.027874102087432504,0.6145038100893477,0.1706252447238198,no_tremor
154,10169145,2.428,-0.35947673955773346,-0.24668098560878512,0.8306169124498217,-0.010550078847864235,0.6351651564231504,0.15210589423476892,no_tremor
155,10169188,2.471,-0.3599889106913465,-0.2465614200133586,0.8306556770732862,0.0030525913144333577,0.6606256000935405,0.127260303000729,no_tremor
156,10169200,2.483,-0.36049149977752476,-0.24641285694521575,0.8307057855219413,0.01295589634089087,0.6901989854571888,0.09696395714718588,no_tremor
157,10169222,2.505,-0.3609713851667511,-0.24623751487583617,0.8307620987250457,0.019308280428801314,0.7231109029893271,0.06224207504670919,no_tremor
158,10169234,2.517,-0.3614163076845122,-0.24603856504320698,0.8308194004875127,0.022368984752659173,0.7585178868534307,0.024232445743444297,no_tremor
159,10169245,2.528,-0.3618152694473174,-0.24581991712650644,0.830872659578491,0.022487098217676766,0.7955246212285236,-0.01585984994458999,no_tremor
160,10169256,2.539,-0.3621589127113112,-0.24558601710226668,0.830917290917966,0.02007544295520511,0.8332012412529082,-0.05681540320130374,no_tremor
161,10169268,2.551,-0.3624398759578243,-0.24534168285585264,0.8309493962183743,0.015580848479865524,0.870602676028137,-0.0974598679817725,no_tremor
162,10169279,2.562,-0.3626531206259233,-0.24509199479694954,0.8309659618312721,0.009453507784310138,0.9067911732962248,-0.13672726791201933,no_tremor
163,10169322,2.605,-0.3627962162371389,-0.24484224804568855,0.8309649931848194,0.0021185404020583397,0.9408618841076944,-0.17372336442865524,no_tremor
164,10169333,2.616,-0.36286956530273967,-0.24459796072337897,0.830945571515311,-0.006047496127790913,0.9719701908265668,-0.20778412216118214,no_tremor
165,10169344,2.627,-0.3628765440324604,-0.24436492095329998,0.8309078284920873,-0.014733330954225857,0.9993587581439748,-0.23852365554558908,no_tremor
166,10169356,2.639,-0.3628235326004408,-0.24414924571878388,0.8308528455721503,-0.023702172897437177,1.022382154300896,-0.2658660540612183,no_tremor
167,10169367,2.65,-0.36271981128009234,-0.24395742033767825,0.8307824948743523,-0.03279355981025173,1.0405271704520647,-0.29005637958040004,no_tremor
168,10169378,2.661,-0.36257730641679,-0.24379628933775183,0.8306992448092607,-0.041918897945097025,1.0534275089779663,-0.31164797692878604,no_tremor
169,10169389,2.672,-0.3624101817807273,-0.24367297729382958,0.8306059553685327,-0.05105235346922066,1.0608722185110615,-0.3314658165384118,no_tremor
170,10169401,2.684,-0.3622342845006406,-0.24359472961129944,0.8305056847700758,-0.06021895882966702,1.0628079312118064,-0.35054844380927075,no_tremor
171,10169432,2.715,-0.362066468696325,-0.24356867579662045,0.8304015221309384,-0.06948152008787015,1.0593353657701559,-0.3700737077944257,no_tremor
172,10169444,2.727,-0.36192383236172826,-0.243601529189697,0.8302964520273081,-0.07892735128837627,1.050700662641085,-0.39127525808595026,no_tremor
173,10169455,2.738,-0.36182291224732,-0.2436992456940779,0.8301932487872117,-0.08865527936629006,1.037282104966069,-0.4153574031677202,no_tremor
174,10169466,2.749,-0.36177888589225404,-0.24386666859277267,0.8300943935329129,-0.09876297087609787,1.019572824744934,-0.44341513936350246,no_tremor
175,10169489,2.772,-0.36180482880306547,-0.24410718679260793,0.8300020065630942,-0.10933457756937229,0.9981602341146142,-0.47636426107186086,no_tremor
176,10169500,2.783,-0.36191106865736744,-0.24442243059588006,0.8299177910896811,-0.12042900467036957,0.9737030874830593,-0.514884175156194,no_tremor
177,10169511,2.794,-0.36210466919886586,-0.2448120241170345,0.8298429895786924,-0.13206960842694293,0.9469071461362788,-0.5593742099232183,no_tremor
178,10169522,2.805,-0.3623890665752872,-0.2452734088329816,0.829778358412284,-0.1442365150593707,0.9185002805957305,-0.6099233513336277,no_tremor
179,10169554,2.837,-0.3627638721980659,-0.24580174996227888,0.8297241682210384,-0.15686274731699978,0.8892075963755716,-0.6662934303096177,no_tremor
180,10169565,2.848,-0.3632248496518866,-0.2463899365763521,0.8296802351847606,-0.16983490672721185,0.8597271474980922,-0.7279164246161676,no_tremor
181,10169587,2.87,-0.3637640685084347,-0.24702868633572342,0.8296459835029872,-0.1829984604851877,0.8307072538044278,-0.7939072866954784,no_tremor
182,10169610,2.893,-0.36437023397626084,-0.24770676449053938,0.8296205329616104,-0.19616694992725597,0.8027270210360149,-0.8630941796144089,no_tremor
183,10169633,2.916,-0.36502918648215804,-0.24841132240436142,0.8296028004014383,-0.20913388813053876,0.776281638469517,-0.9340677778327017,no_tremor
184,10169644,2.927,-0.36572455797477726,-0.24912835260132746,0.8295916017106094,-0.2216858937066313,0.7517731101947861,-1.0052500631064303,no_tremor
185,10169675,2.958,-0.366438561480765,-0.2498432461255369,0.829585742204993,-0.23361569750184671,0.729505827408001,-1.074980909933866,no_tremor
186,10169687,2.97,-0.36715287833481014,-0.2505414260882961,0.829584087042157,-0.2447339300060527,0.7096856838052038,-1.1416181034094517,no_tremor
