sample,t_ms,t_s,ax,ay,az,gx,gy,gz,tremor
0,10003991,0.0,-0.17846610237924748,-0.1729953176932814,0.8962437447647386,-0.8197582185572051,0.7259707897588605,0.7307247216928449,no_tremor
1,10003996,0.005,-0.17826191805480204,-0.17295813682789626,0.8964797408595191,-0.7418124040679417,0.705668151125169,0.7111710369520898,no_tremor
2,10004001,0.01,-0.1779842244679125,-0.17290921846052346,0.8967979352426602,-0.6661492505216008,0.6840171452431368,0.6904211495416672,no_tremor
3,10004015,0.024,-0.17762958195494316,-0.17284890092179017,0.8972005039352501,-0.593111088180898,0.6610326564326642,0.6685591663170778,no_tremor
4,10004020,0.029,-0.17720871309327227,-0.17277994358514254,0.8976733615487121,-0.5230189815277674,0.6367365777163844,0.6456700890473969,no_tremor
5,10004025,0.034,-0.17673923647494574,-0.17270601321965462,0.8981948916604898,-0.4561692603018754,0.6111579189978191,0.6218384247750528,no_tremor
6,10004030,0.039,-0.17623932372607878,-0.17263051842753507,0.8987433305460183,-0.39283035379249104,0.5843328811861559,0.5971469066233376,no_tremor
7,10004035,0.044,-0.1757245139806101,-0.17255610436877,0.8993003569793101,-0.33323998407741806,0.5563048955172223,0.5716753561702073,no_tremor
8,10004040,0.049,-0.17520687664148782,-0.17248458655106913,0.8998519395694943,-0.27760276462869743,0.5271246267671063,0.5454997115697836,no_tremor
9,10004044,0.053,-0.17469532721424247,-0.17241707601885906,0.9003878748329719,-0.22608824051571563,0.49684993865217597,0.5186912378250075,no_tremor
10,10004049,0.058,-0.17419630412937792,-0.17235414802862398,0.9009009412228014,-0.17882939601676026,0.4655458196680407,0.49131592763183307,no_tremor
11,10004078,0.087,-0.1737144336635673,-0.1722959918325585,0.9013860936307235,-0.13592164542689436,0.43328426832613165,0.46343409333903174,no_tremor
12,10004083,0.092,-0.17325305925340043,-0.17224252541262958,0.9018398322217754,-0.09742231374990172,0.4001441384427107,0.4351001427122945,no_tremor
13,10004088,0.097,-0.17281462366945405,-0.17219347776404534,0.9022597517059415,-0.06335060585798317,0.3662109470403013,0.40636252370482373,no_tremor
14,10004098,0.107,-0.17240093059237838,-0.17214844647375183,0.9026442356215915,-0.03368805533217104,0.3315766481734454,0.377263817413039,no_tremor
15,10004102,0.111,-0.17201331816525278,-0.1721069381560017,0.9029922551260458,-0.008379437403217246,0.2963393753812313,0.3478409546867766,no_tremor
16,10004107,0.116,-0.17165277215139688,-0.17206839761683418,0.9033032387188092,0.012665875816617269,0.2606031548586506,0.3181255302897348,no_tremor
17,10004112,0.121,-0.17131999921311583,-0.17203222987391165,0.9035769882610679,0.02957214542419008,0.22447759199133194,0.28814418844400336,no_tremor
18,10004117,0.126,-0.1710154745743806,-0.17199781777263248,0.9038136242843419,0.04249511440309476,0.18807753513743464,0.25791905474953314,no_tremor
19,10004121,0.13,-0.1707394736149466,-0.1719645369453905,0.904013549251769,0.05161951383724226,0.15152272098182162,0.2274681917239719,no_tremor
20,10004126,0.135,-0.17049209362906853,-0.17193176917987704,0.9041774213852494,0.0571562711802918,0.11493740440216409,0.1968060583035323,no_tremor
21,10004136,0.145,-0.17027326973725057,-0.17189891480525,0.9043061343304575,0.05933946981306405,0.07844997263871643,0.16594395742915935,no_tremor
22,10004141,0.15,-0.17008278745008934,-0.1718654044006091,0.9044007996890144,0.05842311180001944,0.04219253954257027,0.13489046038194577,no_tremor
23,10004145,0.154,-0.1699202934066773,-0.17183070992874297,0.9044627305981728,0.054677735808237,0.0063005120069040375,0.10365180170395105,no_tremor
24,10004150,0.159,-0.16978530517478999,-0.17179435526705786,0.9044934252902633,0.048386940407262206,-0.02908788162980349,0.0722322437144361,no_tremor
25,10004160,0.169,-0.16967722059024978,-0.1717559260262385,0.9044945500561071,0.03984386103548203,-0.0638321120985864,0.040634413912715855,no_tremor
26,10004164,0.173,-0.16959532685175963,-0.1717150785019239,0.904467921359898,0.029347647702875217,-0.09778992906545744,0.008859621401192197,no_tremor
27,10004169,0.178,-0.16953880942504157,-0.17167154758604708,0.9044154870662772,0.017199989621194647,-0.1308180098779551,-0.023091839829732452,no_tremor
28,10004174,0.183,-0.16950676071385914,-0.17162515346551982,0.9043393068802544,0.0037017314444195686,-0.1627726857214576,-0.055220391335519675,no_tremor
29,10004179,0.188,-0.16949818840440414,-0.17157580695124908,0.9042415321900649,-0.010850376977187732,-0.19351075261021244,-0.08752686263214583,no_tremor
30,10004203,0.212,-0.16951202336965226,-0.1715235133056111,0.9041243855562547,-0.026166759518189597,-0.22289037318151478,-0.1200121608148934,no_tremor
31,10004208,0.217,-0.1695471270221652,-0.17146837446778707,0.903990140116415,-0.04196788869171617,-0.25077207296069925,-0.15267689987381647,no_tremor
32,10004213,0.222,-0.16960229802102902,-0.17141058961076408,0.9038410991801289,-0.05798692970177765,-0.2770198312765462,-0.18552097135408188,no_tremor
33,10004218,0.227,-0.16967627826688628,-0.17135045399908905,0.903679576277289,-0.07397213283799836,-0.3015022627012889,-0.21854304040279002,no_tremor
34,10004223,0.232,-0.16976775815527817,-0.1712883561513243,0.9035078758989773,-0.08968895901303883,-0.3240938806317071,-0.2517399572477669,no_tremor
35,10004232,0.241,-0.1698753811000874,-0.17122477334521183,0.9033282751377064,-0.10492192770048855,-0.3446764308812533,-0.28510608283674893,no_tremor
36,10004237,0.246,-0.16999774738297768,-0.171160265536985,0.9031430063969607,-0.11947617959664632,-0.363140279715097,-0.3186325367634773,no_tremor
37,10004246,0.255,-0.17013341742831914,-0.17109546779921325,0.9029542413018968,-0.13317874838340993,-0.37938583750877375,-0.3523063836400044,no_tremor
38,10004261,0.27,-0.1702809146429724,-0.17103108141369816,0.902764075906047,-0.14587953779893828,-0.39332499656564046,-0.38610977971766725,no_tremor
39,10004266,0.275,-0.1704387279934116,-0.17096786378623768,0.9025745172543855,-0.15745200254438327,-0.40488255983077637,-0.42001910528143366,no_tremor
40,10004271,0.28,-0.17060531451633543,-0.1709066173768189,0.9023874713321985,-0.16779353473794478,-0.41399763561914804,-0.4540041113926126,no_tremor
41,10004285,0.294,-0.17077910197120227,-0.17084817785987197,0.9022047324027956,-0.17682556166278843,-0.4206249711054466,-0.4880271128282637,no_tremor
42,10004290,0.299,-0.17095849184313033,-0.17079340174277605,0.9020279737162379,-0.18449336495067623,-0.4247361942806404,-0.5220422623876717,no_tremor
43,10004295,0.304,-0.1711418628925112,-0.17074315367579238,0.9018587395570017,-0.19076563517014494,-0.42632093159743073,-0.5559949439546594,no_tremor
44,10004324,0.333,-0.17132757542431734,-0.17069829368283407,0.9016984385917775,-0.19563377836706541,-0.4253877679881462,-0.5898213216007464,no_tremor
45,10004334,0.343,-0.17151397641657173,-0.17065966453065134,0.9015483384796953,-0.19911099270474591,-0.42196501799026015,-0.6234480792758011,no_tremor
46,10004339,0.348,-0.17169940560543265,-0.170628079435799,0.9014095617151247,-0.20123113476806306,-0.4161012810561721,-0.6567923806319224,no_tremor
47,10004344,0.353,-0.17188220257630987,-0.17060431028668616,0.901283082685289,-0.20204739665574084,-0.4078657597464921,-0.68976207119297,no_tremor
48,10004349,0.358,-0.1720607148596091,-0.17058907653475794,0.9011697259378587,-0.2016308164665851,-0.39734832518477026,-0.7222561350916644,no_tremor
49,10004354,0.363,-0.17223330697943015,-0.17058303488640664,0.901070165664307,-0.20006864605599323,-0.38465931904842143,-0.7541654069703505,no_tremor
50,10004363,0.372,-0.1723983703565931,-0.17058676990652039,0.9009849264109423,-0.19746260103696042,-0.3699290853321012,-0.785373528604842,no_tremor
51,10004368,0.377,-0.1725543339258369,-0.17060078562588393,0.9009143850298978,-0.19392701887506372,-0.35330722845654633,-0.8157581305807106,no_tremor
52,10004378,0.387,-0.17269967529269228,-0.17062549822788703,0.9008587738761121,-0.18958695155808583,-0.3349615975032568,-0.8451922115617565,no_tremor
53,10004388,0.397,-0.17283293223000235,-0.1706612298750905,0.9008181852429158,-0.18457621977931132,-0.3150770000641277,-0.8735456810222786,no_tremor
54,10004398,0.407,-0.17295271429861725,-0.1707082037231024,0.9007925770080503,-0.17903545566027285,-0.29385365395071933,-0.900687026211728,no_tremor
55,10004403,0.412,-0.17305771437210918,-0.17076654015783854,0.9007817794343009,-0.1731101601984889,-0.27150539083122316,-0.9264850609773744,no_tremor
56,10004447,0.456,-0.1731467198514827,-0.1708362542823028,0.9007855030357191,-0.1669487995091882,-0.2482576321374324,-0.9508107127763481,no_tremor
57,10004452,0.461,-0.17321862337205848,-0.17091725466991753,0.9008033473840703,-0.16070096078405713,-0.22434516343310784,-0.9735388045468132,no_tremor
58,10004457,0.466,-0.17327243282917187,-0.17100934339226564,0.9008348106947861,-0.15451558522446243,-0.20000973824428964,-0.9945497902170728,no_tremor
59,10004466,0.475,-0.17330728057912376,-0.17111221731882822,0.9008793000027416,-0.14853929140335553,-0.1754975459845697,-1.0137314068548002,no_tremor
60,10004476,0.485,-0.17332243170347456,-0.17122547067396995,0.9009361417204335,-0.14291479890238593,-0.15105658120000395,-1.0309802126243406,no_tremor
61,10004481,0.49,-0.17331729125501763,-0.17134859882138878,0.9010045923665604,-0.13777945904135658,-0.12693395317554573,-1.046202986857277,no_tremor
62,10004486,0.495,-0.17329141042997195,-0.17148100322827003,0.901083849260616,-0.13326389733584995,-0.10337317648295362,-1.0593179755971334,no_tremor
63,10004510,0.519,-0.17324449163127678,-0.17162199754073945,0.9011730609964993,-0.12949077107262194,-0.08061148453527625,-1.0702559724592753,no_tremor
64,10004515,0.524,-0.1731763924016191,-0.17177081467987362,0.9012713375327851,-0.12657364502209398,-0.05887720859936544,-1.0789612303364258,no_tremor
65,10004519,0.528,-0.1730871282123697,-0.17192661484542482,0.9013777597665342,-0.12461598847668977,-0.038387262365214676,-1.0853922039621207,no_tremor
66,10004529,0.538,-0.17297687409715656,-0.172088494295236,0.9014913884885601,-0.1237102969342023,-0.019344767276882013,-1.0895221261064532,no_tremor
67,10004538,0.547,-0.17284596511792588,-0.1722554947545132,0.9016112726482363,-0.12393734145766197,-0.0019368487141338492,-1.091339421151155,no_tremor
68,10004543,0.552,-0.17269489564867213,-0.1724266133018241,0.9017364568831925,-0.12536554801708738,0.013667370544390352,-1.0908479597237224,no_tremor
69,10004568,0.577,-0.17252431745909166,-0.17260081257757984,0.9018659882924134,-0.12805050793511472,0.027318555780266512,-1.088067158162713,no_tremor
70,10004573,0.582,-0.17233503657853166,-0.17277703116478477,0.9019989224499244,-0.13203461882956388,0.03888870361345939,-1.0830319275496476,no_tremor
71,10004583,0.592,-0.17212800892074173,-0.1729541939999011,0.9021343286707967,-0.13734685331398525,0.04827242503403565,-1.0757924786640836,no_tremor
72,10004587,0.596,-0.17190433465269417,-0.17313122268277967,0.9022712945525553,-0.14400265048809013,0.05538795316667621,-1.0664139908370784,no_tremor
73,10004592,0.601,-0.17166525129637272,-0.17330704556773485,0.9024089298244066,-0.15200392306605331,0.06017786354649587,-1.0549761537040006,no_tremor
74,10004597,0.606,-0.17141212556087432,-0.17348060753187836,0.9025463695449476,-0.16133917093257488,0.06260949735942967,-1.0415725908175688,no_tremor
75,10004602,0.611,-0.1711464439131711,-0.17365087933065373,0.9026827766968203,-0.1719836904301654,0.06267508105560744,-1.0263101727337949,no_tremor
76,10004606,0.615,-0.17086980190915255,-0.1738168664632865,0.902817344234531,-0.18389986853398946,0.060391539419533936,-1.0093082249403156,no_tremor
77,10004611,0.62,-0.17058389232186866,-0.1739776174821347,0.9029492966496796,-0.19703755255830116,0.05580000371171072,-0.9906976339242445,no_tremor
78,10004616,0.625,-0.17029049212102867,-0.1741322316896292,0.9030778911263001,-0.2113344883726147,0.048965021503123526,-0.9706198535778034,no_tremor
79,10004621,0.63,-0.169991448376559,-0.17427986617481403,0.9032024183679295,-0.22671682203092422,0.03997347956080335,-0.9492258137715897,no_tremor
80,10004626,0.635,-0.16968866317913547,-0.1744197421487452,0.903322203187198,-0.24309966076695175,0.02893325494859296,-0.9266747325903664,no_tremor
81,10004631,0.64,-0.1693840776917752,-0.17455115054449472,0.9034366049576725,-0.2603876901045349,0.01597161226396734,-0.9031328334405174,no_tremor
82,10004636,0.645,-0.169079655468446,-0.17467345685342525,0.9035450180355561,-0.2784758451520502,0.0012333670992484191,-0.8787719687478209,no_tremor
83,10004650,0.659,-0.16877736519780212,-0.17478610517479531,0.9036468722643765,-0.2972500360434469,-0.015121162022095451,-0.8537681537136161,no_tremor
84,10004655,0.664,-0.16847916305198002,-0.17488862146053222,0.9037416336771349,-0.31658792936959446,-0.03291838856001232,-0.8283000162098045,no_tremor
85,10004660,0.669,-0.1681869748409253,-0.17498061594101946,0.903828805504999,-0.33635978877260203,-0.0519738524255764,-0.8025471717634429,no_tremor
86,10004665,0.674,-0.16790267819062682,-0.17506178472089653,0.9039079295867597,-0.3564293785929293,-0.07209474394868552,-0.7766885356306047,no_tremor
87,10004689,0.698,-0.16762808497759657,-0.17513191053635085,0.9039785882471727,-0.3766549347448828,-0.0930825243024676,-0.7509005875141173,no_tremor
88,10004694,0.703,-0.16736492426117736,-0.17519086266795592,0.9040404066755535,-0.3968902067086633,-0.1147356061287382,-0.7253556085398015,no_tremor
89,10004699,0.708,-0.16711482595956126,-0.17523859600733832,0.9040930557920902,-0.4169855732158308,-0.13685205514106116,-0.7002199141066343,no_tremor
90,10004708,0.717,-0.16687930551469,-0.17527514928385501,0.9041362555438764,-0.43678923180837276,-0.15923227135830734,-0.6756521095217471,no_tremor
91,10004713,0.722,-0.16665974978541565,-0.17530064247034835,0.9041697785313175,-0.4561484595070799,-0.18168160742076528,-0.6518013975475065,no_tremor
92,10004718,0.727,-0.1664574043974334,-0.17531527340432834,0.904193453832031,-0.47491093873625767,-0.20401288083225927,-0.6288059680372253,no_tremor
93,10004728,0.737,-0.1662733627626022,-0.1753193136800876,0.9042071708648717,-0.4929261392703969,-0.22604873695895014,-0.6067914999481577,no_tremor
94,10004732,0.741,-0.16610855695930785,-0.17531310388503352,0.904210883120921,-0.5100467432151291,-0.24762382067614347,-0.5858698055484268,no_tremor
95,10004737,0.746,-0.1659637506393881,-0.1752970482671665,0.904204611580367,-0.526130096412767,-0.2685867171249081,-0.5661376455969678,no_tremor
96,10004742,0.751,-0.16583953409579932,-0.17527160892849786,0.9041884476335768,-0.5410396667624292,-0.28880162626427225,-0.5476757423098226,no_tremor
97,10004746,0.755,-0.16573632158884682,-0.17523729964084728,0.9041625553310669,-0.5546464877964327,-0.3081497417098894,-0.5305480137548064,no_tremor
98,10004756,0.765,-0.16565435098802148,-0.17519467937659805,0.9041271728004971,-0.5668305640350034,-0.3265303114980135,-0.5148010490816051,no_tremor
99,10004761,0.77,-0.1655936857422944,-0.17514434563919906,0.9040826126891229,-0.577482212835019,-0.34386136648120924,-0.5004638390954896,no_tremor
100,10004766,0.775,-0.16555421914544877,-0.17508692766849293,0.9040292615170429,-0.5865033158844191,-0.3600801103361856,-0.48754777137706595,no_tremor
101,10004770,0.779,-0.16553568081615108,-0.1750230795863282,0.9039675778595201,-0.5938084528594153,-0.3751429728275821,-0.47604689348998336,no_tremor
102,10004775,0.784,-0.16553764526642004,-0.1749534735399681,0.9038980893147822,-0.5993258905291795,-0.3890253347681372,-0.465938442049325,no_tremor
103,10004780,0.789,-0.16555954238817244,-0.17487879289545846,0.9038213882557419,-0.6029984026116793,-0.40172093942565784,-0.4571836300500687,no_tremor
104,10004785,0.794,-0.16560066964657588,-0.1747997255306358,0.9037381264084482,-0.6047838986851408,-0.4132410110090426,-0.4497286799715564,no_tremor
105,10004789,0.798,-0.16566020573177742,-0.17471695727766937,0.9036490083451004,-0.6046558446019703,-0.42361310562236126,-0.4435060851466355,no_tremor
106,10004814,0.823,-0.16573722538791313,-0.17463116556754077,0.9035547840234068,-0.6026034624259536,-0.4328797231729539,-0.4384360761498456,no_tremor
107,10004819,0.828,-0.1658307151111071,-0.17454301333313862,0.9034562405448929,-0.5986317047215158,-0.44109671061162964,-0.4344282628610144,no_tremor
108,10004824,0.833,-0.16593958938817815,-0.17445314323303648,0.9033541933394794,-0.59276100535468,-0.44833148858438293,-0.4313834174473328,no_tremor
109,10004829,0.838,-0.16606270713749724,-0.17436217226377765,0.9032494770082856,-0.5850268161832013,-0.4546611356458005,-0.42919535977143497,no_tremor
110,10004833,0.842,-0.1661988880150734,-0.17427068683386845,0.903142936067639,-0.5754789459275919,-0.4601703663385579,-0.4277529051171669,no_tremor
111,10004858,0.867,-0.16634692826304054,-0.17417923837713675,0.9030354158332513,-0.5641807240490098,-0.46494944109898523,-0.4269418344258881,no_tremor
112,10004876,0.885,-0.16650561580309695,-0.17408833958624284,0.9029277536653293,-0.5512080182926861,-0.4690920468919091,-0.42664684884818493,no_tremor
113,10004891,0.9,-0.16667374431229073,-0.17399846134829902,0.902820770764902,-0.536648139249473,-0.4726931877236077,-0.42675347284910575,no_tremor
114,10004901,0.91,-0.16685012606106658,-0.17391003046248568,0.902715264671006,-0.5205986683308422,-0.4758471234749272,-0.4271498733441147,no_tremor
115,10004906,0.915,-0.1670336033416136,-0.17382342821221364,0.9026120025601945,-0.5031662461551927,-0.47864539357552754,-0.4277285665839243,no_tremor
116,10004940,0.949,-0.16722305836521853,-0.17373898984945865,0.9025117153977411,-0.4844653557872565,-0.481174959346083,-0.42838798959773494,no_tremor
117,10004945,0.954,-0.1674174215564313,-0.17365700502464892,0.9024150929384872,-0.4646171297373332,-0.48351649616761316,-0.4290339182139726,no_tremor
118,10004960,0.969,-0.16761567821486018,-0.17357771916157635,0.9023227795300486,-0.4437482023335159,-0.48574286377826775,-0.42958071785602453,no_tremor
119,10005013,1.022,-0.16781687354866542,-0.17350133573461274,0.9022353706380579,-0.4219896214588484,-0.487917778672342,-0.42995241544820245,no_tremor
120,10005032,1.041,-0.16802011610674836,-0.17342801935841776,0.902153409996267,-0.3994758265616893,-0.4900947065923594,-0.4300835809607561,no_tremor
121,10005072,1.081,-0.16822457965360582,-0.1733578995541657,0.9020773872824197,-0.3763436935486487,-0.492315987352107,-0.42992000707742173,no_tremor
122,10005077,1.086,-0.16842950354971534,-0.17329107501913266,0.9020077362270342,-0.35273164163179827,-0.4946122004047882,-0.42941917747595315,no_tremor
123,10005111,1.12,-0.1686341917273424,-0.1732276182059831,0.9019448330688963,-0.3287787925112425,-0.4970017771435663,-0.4285505192569643,no_tremor
124,10005131,1.14,-0.16883801038654545,-0.17316758001770996,0.9018889952750104,-0.30462416884699495,-0.49949086327613174,-0.42729544208106124,no_tremor
125,10005136,1.145,-0.169040384572052,-0.17311099444096806,0.9018404804471081,-0.2804059173563478,-0.502073430912871,-0.425647173607008,no_tremor
126,10005146,1.155,-0.16924079381958954,-0.17305788296684155,0.9017994853480314,-0.25626054231448664,-0.5047316353185186,-0.42361040640382863,no_tremor
127,10005151,1.16,-0.16943876707393637,-0.17300825867589636,0.9017661450047627,-0.23232213759460513,-0.5074364061688205,-0.4212007749374082,no_tremor
128,10005185,1.194,-0.1696338770791235,-0.17296212988912313,0.9017405318817823,-0.2087216093573601,-0.5101482586386994,-0.4184441821611098,no_tremor
129,10005190,1.199,-0.16982573442663934,-0.1729195033077276,0.9017226551652658,-0.18558588670025425,-0.5128183065414854,-0.41537599373718576,no_tremor
130,10005219,1.228,-0.1700139814248675,-0.17288038658459975,0.9017124602479076,-0.1630371232474342,-0.515389457769359,-0.4120401148402453,no_tremor
131,10005224,1.233,-0.17019828592748476,-0.17284479029056532,0.9017098285461668,-0.14119189757773742,-0.5177977704141467,-0.40848796123698483,no_tremor
132,10005228,1.237,-0.17037833523514692,-0.17281272925996127,0.9017145778075396,-0.12016042363570348,-0.5199739455072658,-0.4047773339620871,no_tremor
133,10005233,1.242,-0.17055383016764067,-0.17278422332245666,0.9017264630701995,-0.10004578413771743,-0.5218449294389624,-0.4009712058662325,no_tremor
134,10005238,1.247,-0.17072447939514723,-0.17275929745070537,0.9017451784212558,-0.08094320148004414,-0.5233355963266226,-0.397136428944987,no_tremor
135,10005243,1.252,-0.1708899941173955,-0.17273798137564436,0.9017703596666394,-0.06293936202437697,-0.5243704784115721,-0.3933423740535539,no_tremor
136,10005262,1.271,-0.1710500831864581,-0.17272030874223493,0.9018015879798663,-0.04611181004100073,-0.5248755112951569,-0.38965951922197406,no_tremor
137,10005277,1.286,-0.17120444878005864,-0.17270631589701363,0.9018383945428048,-0.030528426314676588,-0.5247797605349447,-0.38615800838004527,no_tremor
138,10005302,1.311,-0.17135278274435262,-0.172696040413127,0.9018802661328252,-0.016247003707198053,-0.5240170965744642,-0.3829062076714099,no_tremor
139,10005307,1.316,-0.17149476373447153,-0.1726895194662749,0.901926651551785,-0.003314928495953916,-0.5225277857134656,-0.3799692906970702,no_tremor
140,10005312,1.321,-0.1716300552835785,-0.17268678817462949,0.9019769687393436,0.008231027468591553,-0.5202599654774234,-0.37740788632805733,no_tremor
141,10005316,1.325,-0.17175830492345504,-0.17268787800774227,0.9020306123730552,0.01836480233148253,-0.5171709734463024,-0.37527682284367914,no_tremor
142,10005326,1.335,-0.171879144460447,-0.1726928153558072,0.9020869617355555,0.027071028680255366,-0.513228499925196,-0.3736240001621022,no_tremor
143,10005331,1.34,-0.1719921914809501,-0.1727016203336834,0.9021453886258507,0.03434490901833479,-0.5084115373756771,-0.37248941825898396,no_tremor
144,10005335,1.344,-0.17209705212288595,-0.1727143058751118,0.9022052651044452,0.04019198391975437,-0.5027111035707631,-0.37190438507550977,no_tremor
145,10005340,1.349,-0.17219332510643062,-0.17273087715205995,0.9022659708865998,0.04462779366201368,-0.4961307207587269,-0.37189092185684175,no_tremor
146,10005355,1.364,-0.17228060697093145,-0.17275133133234122,0.9023269002303406,0.04767743483583353,-0.4886866389987286,-0.37246137844833355,no_tremor
147,10005360,1.369,-0.17235849841752743,-0.17277565766612324,0.9023874682025154,0.04937501704428753,-0.4804077976658544,-0.3736182658738516,no_tremor
148,10005364,1.373,-0.17242661161064077,-0.17280383786986692,0.9024471162441391,0.049763030353136166,-0.47133552494369574,-0.3753543083317416,no_tremor
149,10005369,1.378,-0.17248457824878505,-0.1728358467564725,0.9025053169926295,0.048891638992566114,-0.4615229812654898,-0.37765271109722753,no_tremor
150,10005374,1.383,-0.17253205817873385,-0.17287165304494329,0.9025615783509743,0.04681791926169984,-0.4510343592309741,-0.38048763444835865,no_tremor
151,10005379,1.388,-0.1725687482991599,-0.1729112202730611,0.9026154468210198,0.043605059905043715,-0.4399438591648336,-0.3838248568407224,no_tremor
152,10005384,1.393,-0.1725943914815749,-0.17295450773283624,0.9026665101395146,0.039321542442079215,-0.42833446547261933,-0.3876226036660329,no_tremor
153,10005393,1.402,-0.17260878522820608,-0.17300147135060354,0.9027143992713986,0.034040317858655966,-0.41629655369043106,-0.39183251165985233,no_tremor
154,10005398,1.407,-0.17261178978842934,-0.17305206444102797,0.902758789825323,0.027837994919408394,-0.40392636154588046,-0.39640069411617906,no_tremor
155,10005428,1.437,-0.17260333546755582,-0.17310623827620908,0.9027994029616945,0.02079405358575718,-0.39132435957133405,-0.40126886932297745,no_tremor
156,10005433,1.442,-0.1725834288840129,-0.17316394242647967,0.9028360058638268,0.012990093999436658,-0.37859355772240566,-0.4063755144934624,no_tremor
157,10005438,1.447,-0.17255215796259282,-0.17322512484674935,0.9028684118382951,0.004509127519826341,-0.36583778394883154,-0.41165700979826475,no_tremor
158,10005443,1.452,-0.172509695490837,-0.17328973169912337,0.902896480101898,-0.004565087456733153,-0.3531599690307039,-0.4170487414868861,no_tremor
159,10005448,1.457,-0.17245630111035373,-0.17335770691688873,0.9029201153006592,-0.014148664773916172,-0.34066046985426496,-0.42248613902927656,no_tremor
160,10005453,1.462,-0.17239232166233837,-0.17342899152565397,0.9029392667922587,-0.024158166136739108,-0.32843546121425776,-0.4279056280311271,no_tremor
161,10005462,1.471,-0.17231818985459302,-0.17350352274454772,0.9029539277084734,-0.03451113487390678,-0.3165754243380755,-0.43324548756893017,no_tremor
162,10005467,1.476,-0.17223442126426605,-0.17358123289472646,0.902964133799847,-0.04512658969409083,-0.30516375840809706,-0.4384466068617232,no_tremor
163,10005472,1.481,-0.17214160973501044,-0.17366204814496183,0.9029699620521195,-0.05592547996129857,-0.29427553911306276,-0.4434531413473889,no_tremor
164,10005477,1.486,-0.17204042126810157,-0.1737458871255899,0.9029715290541057,-0.06683110336042854,-0.28397644548977363,-0.4482130719021289,no_tremor
165,10005481,1.49,-0.17193158654323829,-0.17383265944324075,0.9029689890907969,-0.07776948600594519,-0.2743218730339358,-0.45267867298211895,no_tremor
166,10005486,1.495,-0.17181589223556587,-0.173922264129929,0.9029625319341843,-0.08866972441396158,-0.26535624748595527,-0.45680689608058955,no_tremor
167,10005491,1.5,-0.17169417132050538,-0.17401458806142797,0.9029523803078542,-0.0994642887852113,-0.2571125499774065,-0.4605596746615218,no_tremor
168,10005496,1.505,-0.17156729257703943,-0.1741095043812807,0.9029387870094098,-0.11008928807212759,-0.24961206023765445,-0.46390415637171784,no_tremor
169,10005506,1.515,-0.1714361495131319,-0.17420687096803825,0.9029220316864048,-0.12048469927837203,-0.2428643202594067,-0.4668128682603797,no_tremor
170,10005511,1.52,-0.17130164894408254,-0.17430652898398094,0.9029024172755133,-0.13059456583529508,-0.2368673165064593,-0.4692638208235378,no_tremor
171,10005516,1.525,-0.17116469945607607,-0.17440830154330292,0.9028802661295475,-0.14036717178616318,-0.23160787472863256,-0.47124055653345626,no_tremor
172,10005521,1.53,-0.17102619998320215,-0.17451199253625108,0.9028559158708621,-0.14975519895740477,-0.2270622577003776,-0.4727321477985158,no_tremor
173,10005559,1.568,-0.1708870287170019,-0.1746173856429645,0.9028297150210428,-0.15871587300219336,-0.22319695259493877,-0.4737331478887085,no_tremor
174,10005565,1.574,-0.17074803255345,-0.17472424356708757,0.9028020184646977,-0.167211101630374,-0.2199696313178312,-0.4742434963056186,no_tremor
175,10005569,1.578,-0.1706100172636641,-0.17483230751540943,0.9027731828098562,-0.17520760516714076,-0.21733026399000324,-0.4742683778065184,no_tremor
176,10005574,1.583,-0.17047373855221118,-0.17494129694680358,0.9027435617099288,-0.1826770362529698,-0.2152223626311992,-0.47381803261565064,no_tremor
177,10005603,1.612,-0.17033989414160944,-0.1750509096121547,0.9027135012134422,-0.18959608243875176,-0.2135843287019966,-0.47290751490791316,no_tremor
178,10005632,1.641,-0.17020911699480537,-0.175160821906322,0.9026833352084203,-0.1959465433283925,-0.21235087477853257,-0.47155639737675253,no_tremor
179,10005637,1.646,-0.17008196976043946,-0.1752706895521115,0.9026533810284703,-0.20171537334474215,-0.21145448794710212,-0.4697884210883915,no_tremor
180,10005666,1.675,-0.16995894049967078,-0.17538014863310655,0.9026239352875437,-0.20689468202563496,-0.2108269010632893,-0.4676310916127802,no_tremor
181,10005671,1.68,-0.1698404397285559,-0.17548881698614985,0.9025952700100137,-0.21148168531123981,-0.21040053787420476,-0.4651152247796345,no_tremor
182,10005676,1.685,-0.16972679878622843,-0.17559629595593948,0.902567629121338,-0.21547860305818145,-0.21010989890600926,-0.4622744483525107,no_tremor
183,10005720,1.729,-0.16961826951618844,-0.17570217250575676,0.9025412253602906,-0.21889250009123631,-0.20989285669645338,-0.4591446687615989,no_tremor
184,10005724,1.733,-0.1695150252260754,-0.17580602167211268,0.9025162376645552,-0.22173507071587817,-0.20969183116422602,-0.4557635137472594,no_tremor
185,10005739,1.748,-0.16941716287076636,-0.17590740934780777,0.9024928090668701,-0.22402236946699802,-0.20945481867475596,-0.45216976188252705,no_tremor
186,10005743,1.752,-0.16932470638478858,-0.17600589537603717,0.90247104512041,-0.22577449299202695,-0.2091362521412737,-0.44840276900900566,no_tremor
187,10005748,1.757,-0.16923761107291593,-0.17610103693504903,0.9024510128526962,-0.2270152183825235,-0.2086976746992941,-0.4445019006782197,no_tremor
188,10005792,1.801,-0.16915576895224396,-0.17619239218623714,0.9024327402302503,-0.22777160191332219,-0.20810821595192747,-0.44050597957095255,no_tremor
189,10005802,1.811,-0.16907901492458108,-0.17627952414772483,0.9024162161039672,-0.22807354008592026,-0.2073448670704536,-0.43645275779647835,no_tremor
190,10005807,1.816,-0.1690071336440991,-0.17636200474171007,0.9024013905991763,-0.22795329351740937,-0.20639255887314775,-0.43237842530436904,no_tremor
191,10005812,1.821,-0.1689398669315525,-0.17643941894986945,0.9023881759149073,-0.22744497439102254,-0.2052440549619279,-0.4283171660918533,no_tremor
192,10005821,1.83,-0.1688769215734059,-0.1765113690000414,0.9023764475032966,-0.22658399985142783,-0.2038996791143668,-0.42430077270178546,no_tremor
193,10005826,1.835,-0.16881797733315038,-0.1765774785011899,0.9023660456107723,-0.2254065163370374,-0.2023669014163158,-0.4203583272503713,no_tremor
194,10005831,1.84,-0.16876269499469532,-0.17663739644272874,0.9023567771754507,-0.223948802736865,-0.20065981076665743,-0.4165159549457701,no_tremor
195,10005836,1.845,-0.16871072425574418,-0.1766908009782256,0.9023484180879886,-0.22224666297156045,-0.19879850260925178,-0.4127966539407788,no_tremor
196,10005850,1.859,-0.16866171129374083,-0.17673740292162146,0.9023407158342479,-0.2203348210437261,-0.19680841017955417,-0.40922020272628656,no_tremor
197,10005855,1.864,-0.16861530583868595,-0.17677694889563855,0.9023333925463308,-0.2182463338224242,-0.1947196053165895,-0.4058031426900693,no_tremor
198,10005860,1.869,-0.16857116760543905,-0.17680922408610317,0.9023261484928481,-0.21601203844198802,-0.19256609159527438,-0.40255882951930627,no_tremor
199,10005865,1.874,-0.16852897196208344,-0.17683405457139048,0.9023186660386874,-0.21366005158169799,-0.19038510902474834,-0.3994975439952948,no_tremor
200,10005874,1.883,-0.16848841473934714,-0.17685130921188205,0.9023106140981833,-0.21121533695178338,-0.1882164661633936,-0.3966266511146004,no_tremor
201,10005879,1.888,-0.16844921611757033,-0.1768609010989073,0.9023016530929374,-0.2086993555405773,-0.18610191198419604,-0.3939507962104171,no_tremor
202,10005884,1.893,-0.1684111235608217,-0.17686278857480112,0.9022914404065765,-0.20612981100993957,-0.18408455598775753,-0.391472127490395,no_tremor
203,10005909,1.918,-0.168373913801019,-0.1768569758443199,0.9022796363038198,-0.2035205001289002,-0.18220834103509675,-0.3891905359882424,no_tremor
204,10005919,1.928,-0.16833739390690106,-0.17684351320222957,0.9022659102513648,-0.20088127526361374,-0.18051756940103844,-0.38710390591751276,no_tremor
205,10005933,1.942,-0.1683014015020333,-0.1768224969030303,0.9022499475454305,-0.19821812275221679,-0.1790564787684106,-0.3852083700526345,no_tremor
206,10005938,1.947,-0.16826580422123222,-0.1767940686982134,0.902231456118764,-0.19553335751546125,-0.1778688614293104,-0.3834985656365338,no_tremor
207,10005943,1.952,-0.1682304985144533,-0.17675841506601253,0.9022101733724768,-0.19282593030331782,-0.17699771720758595,-0.3819678867846136,no_tremor
208,10005957,1.966,-0.16819540792032764,-0.176715766159171,0.9021858728583199,-0.19009183952603279,-0.17648492904109653,-0.38060873015291935,no_tremor
209,10005962,1.971,-0.16816048093782546,-0.1766663944972395,0.9021583706263833,-0.18732463535893626,-0.176370949909296,-0.37941273213708515,no_tremor
210,10005967,1.976,-0.1681256886242028,-0.17661061342999515,0.9021275310517533,-0.1845160007689297,-0.17669449072721927,-0.3783709976916023,no_tremor
211,10005972,1.981,-0.16809102204104875,-0.1765487753965212,0.9020932719607182,-0.18165639259332905,-0.17749220097164392,-0.3774743222191103,no_tremor
212,10005976,1.985,-0.16805648965878167,-0.1764812699998549,0.9020555688918106,-0.1787357251131098,-0.17879833723257404,-0.37671340836621603,no_tremor
213,10005981,1.99,-0.16802211481449414,-0.1764085219103272,0.9020144583482033,-0.17574407781104923,-0.18064441917264415,-0.3760790790004289,no_tremor
214,10005987,1.996,-0.16798793329991077,-0.17633098860280733,0.9019700399244581,-0.17267240804005055,-0.18305887664324547,-0.3755624864243999,no_tremor
215,10005991,2.0,-0.1679539911366531,-0.17624915792523682,0.9019224772209562,-0.16951324878823693,-0.1860666952627097,-0.37515531632435295,no_tremor
216,10005996,2.005,-0.1679203425761332,-0.1761635454892197,0.901871997492206,-0.1662613722531983,-0.1896890703930676,-0.37484998340818865,no_tremor
217,10006001,2.01,-0.1678870483422607,-0.17607469186897373,0.901818890009402,-0.1629144016271895,-0.19394308098505905,-0.3746398145102723,no_tremor
218,10006006,2.015,-0.16785417411771866,-0.1759831595933235,0.9017635031520651,-0.1594733560164706,-0.1988413947725875,-0.3745192141698674,no_tremor
219,10006031,2.04,-0.16782178925974253,-0.17588952991699133,0.9017062402775322,-0.15594311608002565,-0.20439201442124133,-0.3744838070461518,no_tremor
220,10006035,2.044,-0.167789965719939,-0.17579439936225025,0.9016475544498336,-0.15233279989049914,-0.21059807065966854,-0.37453055085321213,no_tremor
221,10006040,2.049,-0.16775877713546666,-0.17569837602976032,0.9015879421403473,-0.1486560394485102,-0.21745766411941095,-0.374657812987248,no_tremor
222,10006050,2.059,-0.16772829805641465,-0.17560207568746475,0.9015279360403899,-0.1449311491105346,-0.22496375403708135,-0.37486540388125866,no_tremor
223,10006055,2.064,-0.16769860327635264,-0.17550611765775773,0.9014680971492319,-0.14118117897689625,-0.23310409025143206,-0.3751545603225085,no_tremor
224,10006060,2.069,-0.1676697672387168,-0.17541112053444516,0.9014090063186428,-0.13743384909477124,-0.24186118506811433,-0.3755278726062116,no_tremor
225,10006065,2.074,-0.1676418634991627,-0.17531769777092515,0.9013512554459403,-0.13372136356292197,-0.25121232260446325,-0.3759891509531679,no_tremor
226,10006069,2.078,-0.16761496423145053,-0.17522645318841024,0.9012954385109233,-0.13008010700560035,-0.26112960427048576,-0.37654322940738616,no_tremor
227,10006074,2.083,-0.16758913977053916,-0.17513797645734447,0.9012421426478889,-0.1265502294839301,-0.2715800299660142,-0.3771957091224442,no_tremor
228,10006079,2.088,-0.16756445819072432,-0.17505283860653567,0.9011919394328048,-0.12317512953037225,-0.28252561553246863,-0.3779526470018498,no_tremor
229,10006084,2.093,-0.16754098491877606,-0.1749715876135363,0.9011453765489083,-0.1200008481101206,-0.2939235477964335,-0.3788201998743274,no_tremor
230,10006089,2.098,-0.167518782382404,-0.1748947441273622,0.901102969973053,-0.11707538863420915,-0.305726378970644,-0.37980423850119993,no_tremor
231,10006099,2.108,-0.16749790969351955,-0.17482279737169465,0.9010651968016538,-0.11444797980230809,-0.31788226240889306,-0.38090994899231334,no_tremor
232,10006103,2.112,-0.1674784223642984,-0.1747562012741314,0.9010324888106995,-0.11216829923598627,-0.3303352318284932,-0.3821414410596021,no_tremor
233,10006108,2.117,-0.16746037205266026,-0.17469537086548353,0.9010052268206826,-0.11028567646235984,-0.34302552567566774,-0.3835013831132862,no_tremor
234,10006113,2.122,-0.1674438063331259,-0.1746406789928049,0.9009837359159117,-0.10884829346156488,-0.3558899568705379,-0.38499068387979035,no_tremor
235,10006118,2.127,-0.16742876848954744,-0.17459245339051296,0.9009682815494828,-0.10790239946557108,-0.36886232598467356,-0.3866082389943312,no_tremor
236,10006127,2.136,-0.16741529732805918,-0.17455097415482626,0.9009590665501914,-0.10749155418139383,-0.3818738737162642,-0.3883507587957569,no_tremor
237,10006153,2.162,-0.1674034270114868,-0.17451647166668083,0.9009562290349836,-0.10765591066969632,-0.39485376678688106,-0.3902126905640245,no_tremor
238,10006157,2.166,-0.16739318691972327,-0.17448912500605235,0.9009598412186692,-0.10843154636222671,-0.4077296101530552,-0.3921862448597768,no_tremor
239,10006162,2.171,-0.16738460154323204,-0.17446906089515418,0.9009699091000309,-0.10984984870993773,-0.4204279779884869,-0.39426153076160236,no_tremor
240,10006167,2.176,-0.167377690417801,-0.17445635319897632,0.9009863729892598,-0.11193696129025996,-0.43287495669792103,-0.3964267977614191,no_tremor
241,10006172,2.181,-0.16737246810728446,-0.17445102299984294,0.9010091088261135,-0.11471329713389586,-0.44499669495911093,-0.3986687737450801,no_tremor
242,10006182,2.191,-0.16736894423742657,-0.17445303924972522,0.9010379302227391,-0.1181931279888331,-0.45671995722548425,-0.40097308151413175,no_tremor
243,10006187,2.196,-0.167367123578667,-0.17446231999169526,0.9010725911516598,-0.12238425995253807,-0.46797267736925463,-0.4033247125407884,no_tremor
244,10006192,2.201,-0.16736700617000158,-0.17447873413136006,0.9011127891898508,-0.1272878060863465,-0.47868450871618806,-0.40570853562780984,no_tremor
245,10006206,2.215,-0.16736858747030567,-0.17450210373079592,0.9011581692254562,-0.13289806447422256,-0.4887873669665144,-0.4081098184006504,no_tremor
246,10006211,2.22,-0.16737185851862132,-0.17453220679100945,0.9012083275349676,-0.13920250578636797,-0.49821596400726254,-0.4105147403361184,no_tremor
247,10006220,2.229,-0.16737680608122646,-0.17456878048317476,0.9012628161450326,-0.14618186901549246,-0.506908332462634,-0.41291087757914535,no_tremor
248,10006225,2.234,-0.16738341276133717,-0.1746115247824064,0.9013211474031183,-0.15381035949982363,-0.5148063414329843,-0.4152876425533948,no_tremor
249,10006245,2.254,-0.16739165704760242,-0.17466010644954355,0.9013827986933088,-0.16205594075798951,-0.521856202573702,-0.41763666509444347,no_tremor
250,10006285,2.294,-0.16740151328064332,-0.17471416329628703,0.9014472172459365,-0.17088071080231446,-0.5280089632153291,-0.41995210566340113,no_tremor
251,10006289,2.298,-0.16741295152303368,-0.17477330865834126,0.901513825001264,-0.18024135328851507,-0.5332209809171369,-0.422230894437347,no_tremor
252,10006294,2.303,-0.16742593732712321,-0.17483713599228745,0.9015820234972174,-0.1900896529062244,-0.5374543723301223,-0.42447289264533344,no_tremor
253,10006329,2.338,-0.16744043140620518,-0.17490522350710855,0.9016511987586467,-0.2003730625043202,-0.540677428239521,-0.4266809747767798,no_tremor
254,10006338,2.347,-0.16745638922647796,-0.17497713874178833,0.901720726170407,-0.2110353073993207,-0.5428649856124484,-0.42886103260726016,no_tremor
255,10006343,2.352,-0.1674737605483829,-0.1750524430058468,0.9017899753185618,-0.2220170112988901,-0.5439987463733925,-0.431021904348718,no_tremor
256,10006348,2.357,-0.16749248895419983,-0.17513069560878358,0.9018583147834238,-0.2332563287520989,-0.5440675320480148,-0.43317523408412084,no_tremor
257,10006397,2.406,-0.16751251140234835,-0.17521145781597225,0.901925116865501,-0.24468957063012206,-0.54306746388514,-0.4353352673565443,no_tremor
258,10006402,2.411,-0.1675337578468451,-0.17529429648182102,0.9019897622216091,-0.25625181119606055,-0.5410020596548192,-0.43751858832074025,no_tremor
259,10006406,2.415,-0.1675561509536371,-0.17537878732541287,0.9020516443847664,-0.2678774673316909,-0.5378822408924767,-0.43974380302080185,no_tremor
260,10006430,2.439,-0.16757960593616786,-0.175464517828546,0.9021101741395556,-0.2795008420855366,-0.5337262477561028,-0.44203117324065955,no_tremor
261,10006440,2.449,-0.1676040305227912,-0.17555108974995268,0.9021647837256198,-0.291056625702646,-0.5285594624465637,-0.44440220651038187,no_tremor
262,10006445,2.454,-0.16762932505996297,-0.1756381212612452,0.9022149308459684,-0.3024803479781286,-0.5224141456561433,-0.44687920965874983,no_tremor
263,10006449,2.458,-0.16765538274799233,-0.1757252487189527,0.9022601024628986,-0.31370877693693794,-0.5153290934065894,-0.4494848146106213,no_tremor
264,10006454,2.463,-0.16768209000053078,-0.17581212809273566,0.9022998183713061,-0.3246802611241054,-0.5073492240462948,-0.45224148522938973,no_tremor
265,10006459,2.468,-0.16770932691488166,-0.1758984360731492,0.9023336345459884,-0.3353350161334679,-0.49852510729381494,-0.4551710131375614,no_tremor
266,10006469,2.478,-0.16773696783762235,-0.17598387088430675,0.9023611462656896,-0.34561535995186893,-0.4889124487683627,-0.45829400948181315,no_tremor
267,10006483,2.492,-0.16776488200900339,-0.17606815282861465,0.9023819910217401,-0.35546590585089066,-0.4785715436728741,-0.4616293994135184,no_tremor
268,10006488,2.497,-0.16779293427029005,-0.1761510245931937,0.902395851222614,-0.36483372547527815,-0.46756671175003484,-0.46519392689366323,no_tremor
269,10006493,2.502,-0.16782098582099908,-0.17623225135087664,0.9024024567064272,-0.3736684977140666,-0.45596572291972143,-0.46900167881850535,no_tremor
270,10006518,2.527,-0.16784889501824513,-0.17631162069227038,0.9024015870696346,-0.3819226600140549,-0.44383922021153976,-0.4730636387234892,no_tremor
271,10006523,2.532,-0.16787651821814792,-0.17638894242827674,0.9023930738105582,-0.3895515775427797,-0.43126014425102444,-0.4773872811308841,no_tremor
272,10006527,2.536,-0.1679037106686169,-0.1764640483035559,0.902376802270818,-0.39651374241516346,-0.41830316163721537,-0.48197621793889084,no_tremor
273,10006537,2.546,-0.1679303274720937,-0.1765367916599422,0.9023527133380818,-0.40277101101808754,-0.405044098144872,-0.4868299081852733,no_tremor
274,10006542,2.551,-0.16795622464398627,-0.17660704708467503,0.9023208048530379,-0.40828888305269373,-0.3915593768720655,-0.4919434422425581,no_tremor
275,10006546,2.555,-0.16798126029604973,-0.17667471007202545,0.9022811326457132,-0.4130368214288939,-0.3779254609215689,-0.497307411245312,no_tremor
276,10006556,2.565,-0.16800529597311586,-0.17673969671929052,0.9022338111142357,-0.41698860749513667,-0.36421829955680796,-0.5029078722869129,no_tremor
277,10006585,2.594,-0.16802819816614767,-0.1768019434697176,0.9021790132548089,-0.4201227214021678,-0.350512776110608,-0.5087264191524652,no_tremor
278,10006590,2.599,-0.16804984001460627,-0.17686140690563676,0.9021169700558821,-0.4224227331987543,-0.33688215586474374,-0.5147403663008449,no_tremor
279,10006599,2.608,-0.16807010319664212,-0.17691806358437473,0.902047969182298,-0.4238776873028897,-0.3233975332518168,-0.5209230499046162,no_tremor
280,10006604,2.613,-0.1680888799870176,-0.17697190989703812,0.9019723528961444,-0.4244824618824455,-0.31012728004532775,-0.5272442440648045,no_tremor
281,10006609,2.618,-0.1681060754409134,-0.1770229619164429,0.9018905151890931,-0.42423808538225183,-0.2971364990357718,-0.5336706836872973,no_tremor
282,10006613,2.622,-0.16812160963855904,-0.177071255186728,0.901802898134207,-0.42315199434266776,-0.28448649023548933,-0.5401666792205628,no_tremor
283,10006638,2.647,-0.16813541990304684,-0.1771168443953667,0.9017099875008356,-0.42123821898719604,-0.2722342383554775,-0.5466948034818172,no_tremor
284,10006643,2.652,-0.1681474628840365,-0.17715980286016836,0.9016123077111503,-0.41851748507425635,-0.2604319308402424,-0.5532166274629374,no_tremor
285,10006648,2.657,-0.1681577163861179,-0.17720022176113479,0.9015104162476493,-0.4150172219217562,-0.24912651510585118,-0.5596934803202719,no_tremor
286,10006652,2.661,-0.16816618081559143,-0.17723820905129176,0.9014048976439529,-0.4107714680288168,-0.23835930227230218,-0.5660872085702834,no_tremor
287,10006657,2.666,-0.1681728801258504,-0.17727388799283836,0.901296357203584,-0.4058206685686745,-0.22816562355505376,-0.572360910223126,no_tremor
288,10006662,2.671,-0.1681778621598013,-0.17730739528481315,0.9011854145923731,-0.40021136360492454,-0.21857454545725655,-0.5784796204228636,no_tremor
289,10006671,2.68,-0.1681811983160082,-0.1773388787742621,0.9010726974408749,-0.3939957711038754,-0.20960865106914014,-0.5844109262769446,no_tremor
290,10006676,2.685,-0.16818298250044614,-0.17736849477210032,0.9009588350760629,-0.3872312728613602,-0.20128389630402269,-0.5901254910638625,no_tremor
291,10006681,2.69,-0.1681833293645085,-0.17739640502472628,0.9008444524790407,-0.37997981317529916,-0.1936095507413807,-0.5955974725392095,no_tremor
292,10006686,2.695,-0.1681823718689164,-0.1774227734202434,0.9007301645399073,-0.3723072198607891,-0.18658823233767496,-0.6008048259658196,no_tremor
293,10006695,2.704,-0.16818025824949887,-0.1774477625314871,0.9006165706544411,-0.36428245650360547,-0.18021604346290895,-0.6057294888036866,no_tremor
294,10006700,2.709,-0.16817714849226315,-0.17747153011525466,0.9005042496819912,-0.3559768149210717,-0.17448281251279268,-0.6103574503970279,no_tremor
295,10006709,2.718,-0.1681732104502785,-0.17749422569719212,0.9003937552620137,-0.34746305789091464,-0.16937244096276036,-0.6146787163573574,no_tremor
296,10006714,2.723,-0.16816861575260467,-0.17751598737421345,0.9002856114704374,-0.3388145239394008,-0.16486335083157444,-0.6186871828941491,no_tremor
297,10006724,2.733,-0.16816353566505596,-0.17753693896102157,0.9001803087891752,-0.33010420792229894,-0.16092902289261402,-0.622380439996001,no_tremor
298,10006763,2.772,-0.1681581370635554,-0.17755718759464603,0.9000783003651626,-0.321403832956373,-0.15753861205616385,-0.625759523578774,no_tremor
299,10006778,2.787,-0.1681525786729543,-0.1775768218916531,0.8999799985503835,-0.3127829307458922,-0.1546576232569284,-0.6288286356657493,no_tremor
300,10006783,2.792,-0.1681470077072966,-0.17759591072780948,0.8998857717393101,-0.30430794836278585,-0.15224862902275385,-0.6315948487276147,no_tremor
301,10006788,2.797,-0.16814155702191858,-0.17761450268087559,0.8997959415489174,-0.29604139987646205,-0.15027200893517165,-0.6340678058586396,no_tremor
302,10006797,2.806,-0.1681363428552343,-0.17763262614609465,0.8997107804111348,-0.28804108068310824,-0.14868669168062282,-0.6362594231958202,no_tremor
303,10006802,2.811,-0.16813146320200684,-0.17765029010382855,0.8996305096625695,-0.28035936097427505,-0.14745088232462486,-0.6381835960739326,no_tremor
304,10006807,2.816,-0.1681269968246311,-0.17766748549267652,0.8995552982198566,-0.2730425726466646,-0.14652276046246956,-0.6398559069876915,no_tremor
305,10006812,2.821,-0.16812300287836643,-0.17768418712137557,0.8994852619221333,-0.2661305011793899,-0.14586113838237724,-0.6412933320303092,no_tremor
306,10006816,2.825,-0.16811952110323167,-0.17770035603950377,0.8994204636067803,-0.25965599089992025,-0.14542607143265138,-0.6425139429311555,no_tremor
307,10006822,2.831,-0.1681165725205506,-0.17771594227985685,0.8993609139623939,-0.25364466927218215,-0.1451794144662324,-0.6435366033721622,no_tremor
308,10006832,2.841,-0.16811416056576575,-0.17773088788284022,0.8993065731752432,-0.24811479380527063,-0.14508531821201315,-0.644380659881546,no_tremor
309,10006860,2.869,-0.16811227259027167,-0.1777451301134832,0.8992573533532261,-0.24307722363575338,-0.14511065838444845,-0.6450656287273027,no_tremor
310,10006890,2.899,-0.16811088167236987,-0.1777586047829026,0.8992131216757994,-0.23853551614605104,-0.14522538941518112,-0.6456108813956096,no_tremor
311,10006915,2.924,-0.16810994868876938,-0.17777124958652937,0.8991737041822223,-0.23448614678059324,-0.14540281457769713,-0.6460353335226059,no_tremor
312,10006929,2.938,-0.16810942460920214,-0.1777830073698461,0.8991388900793488,-0.23091884768634222,-0.14561976519984607,-0.6463571457420055,no_tremor
313,10006934,2.943,-0.16810925298179072,-0.17779382922812628,0.8991084364320038,-0.2278170586401663,-0.1458566837520882,-0.6465934483381776,no_tremor
314,10006968,2.977,-0.16810937257040726,-0.17780367734002375,0.899082073100253,-0.22515848282535944,-0.14609760892946128,-0.6467601026951749,no_tremor
315,10006982,2.991,-0.16810972008572347,-0.17781252742721204,0.8990595078098208,-0.2229157407036174,-0.14633006517589453,-0.6468715102589906,no_tremor
