sample,t_ms,t_s,ax,ay,az,gx,gy,gz,tremor
0,10133568,0.0,-0.2786102031578857,-0.24558819342403232,0.8593043375241592,1.5094686450120893,2.279039135530506,0.30256195667451025,no_tremor
1,10133573,0.005,-0.2780371062258151,-0.24503953102433126,0.8594465960128808,1.490890489129572,2.310494937021396,0.4325282798847186,no_tremor
2,10133578,0.01,-0.27725861858856776,-0.24428868738146806,0.8596412313130216,1.4776690373544352,2.338510231467589,0.5660142389792714,no_tremor
3,10133582,0.014,-0.2762747152154515,-0.24333358307288291,0.859890470423865,1.471731543932597,2.362443064096093,0.701078636028404,no_tremor
4,10133607,0.039,-0.2751328430747501,-0.24221887570598796,0.8601861948776787,1.4747350080947224,2.3815694187243746,0.8354807039865584,no_tremor
5,10133612,0.044,-0.2739049113421592,-0.24101423122414561,0.8605156840103535,1.487956502443821,2.39510490029509,0.9667001082850036,no_tremor
6,10133617,0.049,-0.27266584971421604,-0.23979339853331674,0.8608668368814595,1.512198346483019,2.4022365023199543,1.0919650540806536,no_tremor
7,10133621,0.053,-0.271481760255175,-0.23862231191600072,0.8612309378788662,1.547715434574337,2.4021631908546257,1.2082887270313911,no_tremor
8,10133626,0.058,-0.2704057281030364,-0.23755468292313422,0.8616034549985844,1.594170118726995,2.39414401911455,1.3125148706242096,no_tremor
9,10133631,0.063,-0.269477645221557,-0.23663167338009913,0.8619837667565078,1.6506168674713522,2.3775525844443246,1.4013740396746501,no_tremor
10,10133636,0.068,-0.2687254929206148,-0.23588317615776122,0.8623744484820163,1.7155157450736767,2.3519360852695423,1.4715524371931834,no_tremor
11,10133640,0.072,-0.2681668383258465,-0.23532945476209238,0.8627804371353233,1.786771582601416,2.317075875578882,1.5197747698306219,no_tremor
12,10133645,0.077,-0.26781011341174676,-0.23498267205916282,0.8632082039565783,1.8617947527634562,2.2730448769635205,1.542901163796088,no_tremor
13,10133650,0.082,-0.26765562122529535,-0.23484820394058714,0.8636649787476282,1.9375793766285467,2.220256245108261,1.5380362157574816,no_tremor
14,10133660,0.092,-0.2676963447824912,-0.23492576274659793,0.8641580404538958,2.0107951559612336,2.1594975323961574,1.5026462538955565,no_tremor
15,10133664,0.096,-0.2679186562860426,-0.23521037869833036,0.8646940826253052,2.07788955757938,2.091944995865972,1.4346792708896212,no_tremor
16,10133669,0.101,-0.2683030079939519,-0.23569327450249322,0.8652786626273203,2.135197618777065,2.0191534385545444,1.3326808840213724,no_tremor
17,10133674,0.106,-0.2688246611280096,-0.2363626488922259,0.8659157436465608,2.1790570344982214,1.9430181434022689,1.1958990399726372,no_tremor
18,10133679,0.111,-0.2694544861002334,-0.23720437010282344,0.8666073369874457,2.20592626121331,1.8657073388387166,1.0243700815702612,no_tremor
19,10133683,0.115,-0.2701598485178319,-0.23820257268315526,0.8673532491702488,2.212503090948832,1.7895663151627013,0.8189793770605048,no_tremor
20,10133693,0.125,-0.270905580593786,-0.23934014984799656,0.8681509346473898,2.1958406211486556,1.716997524710372,0.5814909479766716,no_tremor
21,10133702,0.134,-0.27165502577403816,-0.24059913699874,0.8689954512017605,2.153456962428224,1.6503241628128689,0.31454225666847047,no_tremor
22,10133707,0.139,-0.27237113477512254,-0.2419609882543004,0.869879511742042,2.0834346371329837,1.5916471491907345,0.02160254250712166,no_tremor
23,10133731,0.163,-0.27301758341741145,-0.24340675531050882,0.8707936235490811,1.9845055927439164,1.542706682596757,-0.2931040566985292,no_tremor
24,10133736,0.168,-0.2735598766976472,-0.2449171854667036,0.8717263041398661,1.8561179626606827,1.5047596448691194,-0.6247061550011807,no_tremor
25,10133740,0.172,-0.27396639987006527,-0.2464727622282189,0.8726643617090254,1.6984809109429944,1.4784832795738367,-0.9678163569446957,no_tremor
26,10133745,0.177,-0.27420937645043225,-0.2480537166745902,0.873593227415646,1.5125841408396563,1.4639138011255,-1.3166775172409537,no_tremor
27,10133771,0.203,-0.2742656954338178,-0.24964004004736942,0.874497326454551,1.3001892366856336,1.4604258746281624,-1.665315610167247,no_tremor
28,10133775,0.207,-0.27411757567025946,-0.25121152711092265,0.875360474830406,1.0637911178054358,1.4667554906118652,-2.0076918473804883,no_tremor
29,10133790,0.222,-0.27375304404264017,-0.25274787523664444,0.8761662892511591,0.8065494765522263,1.481065177752015,-2.3378479626806645,no_tremor
30,10133832,0.264,-0.27316621552785586,-0.2542288555564599,0.8768985990481909,0.5321921763836898,1.5010472030838515,-2.6500400499353964,no_tremor
31,10133857,0.289,-0.2723573767380973,-0.25563456025014336,0.8775418516944877,0.24489520385206726,1.5240575503075369,-2.9388581619483127,no_tremor
32,10133862,0.294,-0.2713328884360605,-0.2569457157434928,0.8780815065717632,-0.050853551876650506,1.5472711202514635,-3.199330812602736,no_tremor
33,10133867,0.299,-0.27010493397747687,-0.258144038609561,0.8785044137070117,-0.35039756538780925,1.5678470792239991,-3.4270150894676044,no_tremor
34,10133871,0.303,-0.2686911469915601,-0.2592126029795653,0.8787991742847182,-0.6490524979363478,1.5830930520859825,-3.618074004929921,no_tremor
35,10133876,0.308,-0.26711415195198873,-0.26013618719361126,0.8789564780152326,-0.9422361247429626,1.5906181155689458,-3.7693429774565286,no_tremor
36,10133881,0.313,-0.26540104670408604,-0.26090157246120477,0.8789694098271039,-1.2255807278078301,1.5884669247777834,-3.878387081298323,no_tremor
37,10133885,0.317,-0.26358284849636493,-0.26149777503780536,0.8788337157768513,-1.4950234296023956,1.5752299605208324,-3.9435502011519676,no_tremor
38,10133890,0.322,-0.26169391646315576,-0.2619162033757696,0.8785480161530953,-1.7468723211884272,1.5501269788005063,-3.9639967020628935,no_tremor
39,10133895,0.327,-0.25977135515377475,-0.2621507410767755,0.8781139528852693,-1.9778488337219977,1.5130619278671258,-3.9397456057634757,no_tremor
40,10133900,0.332,-0.2578543964843458,-0.26219776415835544,0.8775362588147521,-2.1851091070778805,1.4646480956006158,-3.871696321404556,no_tremor
41,10133905,0.337,-0.2559837519731385,-0.2620561065756135,0.8768227382996677,-2.3662484747736308,1.4062025611672084,-3.761643757936998,no_tremor
42,10133910,0.342,-0.25420092369236574,-0.26172699090884777,0.8759841520198735,-2.519293485549078,1.3397096018887047,-3.612279576104735,no_tremor
43,10133920,0.352,-0.25254746129430117,-0.2612139416887707,0.8750340035651514,-2.642685553201002,1.267753741216494,-3.4271758490591044,no_tremor
44,10133924,0.356,-0.2510641539018727,-0.2605226971885862,0.8739882310198682,-2.7352598039170863,1.19342445687701,-3.210747590920797,no_tremor
45,10133929,0.361,-0.24979014958808965,-0.2596611319476719,0.8728648126034393,-2.796222155460556,1.1201958465768445,-2.968191256580347,no_tremor
46,10133934,0.366,-0.24876200140637347,-0.2586391971504967,0.8716833006273305,-2.825127272733252,1.0517855848478397,-2.7053970681051456,no_tremor
47,10133939,0.371,-0.24801264714809426,-0.257468879777089,0.8704643018936599,-2.82185996246383,0.9919984206654965,-2.4288337496168,no_tremor
48,10133944,0.376,-0.2475703398444857,-0.2561641749508469,0.869228924943785,-2.786622627559428,0.9445604478127929,-2.1454052479861967,no_tremor
49,10133949,0.381,-0.24745755713413736,-0.25474106014952835,0.8679982154468527,-2.719931055937835,0.9129514247328757,-1.8622806845693296,no_tremor
50,10133979,0.411,-0.24768992949403787,-0.25321745597331696,0.8667926008491053,-2.622619654565495,0.9002433421154572,-1.5867010850925605,no_tremor
51,10133983,0.415,-0.2482752391757668,-0.2516131568047323,0.8656313644542777,-2.4958554311876053,0.9089539439055545,-1.325768896342866,no_tremor
52,10133988,0.42,-0.2492125521706686,-0.2499497161813805,0.8645321674116442,-2.341158201465162,0.9409236243282454,-1.0862284575699381,no_tremor
53,10133997,0.429,-0.2504915528064157,-0.2482502754494746,0.8635106345118835,-2.1604231689026805,0.997222748653871,-0.8742471830049345,no_tremor
54,10134002,0.434,-0.2520921527487403,-0.24653932912918353,0.8625800162124405,-1.9559412367260127,1.0780941097486245,-0.695208068433051,no_tremor
55,10134007,0.439,-0.25398444188288766,-0.24484242529433292,0.8617509352621655,-1.7304119771145716,1.182932648628561,-0.5535242309850809,no_tremor
56,10134012,0.444,-0.2561290371423452,-0.24318580346750238,0.8610312221898598,-1.486944085110049,1.3103025368391377,-0.4524857006187404,no_tremor
57,10134027,0.459,-0.2584778666638532,-0.24159597583891804,0.8604258401602852,-1.2290385978095937,1.4579903888940513,-0.39414785289443155,no_tremor
58,10134073,0.505,-0.2609754007197199,-0.2400992602091109,0.859936896489336,-0.9605514011099414,1.623092219144999,-0.37926972876208503,no_tremor
59,10134103,0.535,-0.2635603081252864,-0.2387212753914155,0.859563735561004,-0.6856336330015362,1.8021302464268565,-0.40730862989350525,no_tremor
60,10134181,0.613,-0.2661674787680066,-0.23748641240765112,0.859303105983988,-0.4086512704940719,1.9911935945921877,-0.47647420848888256,no_tremor
61,10134186,0.618,-0.2687303134180284,-0.23641729787615542,0.8591493933141524,-0.13408788007083816,2.18609450376817,-0.5838406127998711,no_tremor
62,10134191,0.623,-0.27118314796758797,-0.23553426900278052,0.859094908228938,0.13356345003384795,2.38252958971699,-0.7255098877513124,no_tremor
63,10134196,0.628,-0.2734636590374558,-0.23485488126153234,0.859130218598615,0.3899120215772874,2.5762350944140127,-0.8968152440252859,no_tremor
64,10134220,0.652,-0.2755150971244794,-0.234393468970816,0.859244512697771,0.6307784953132054,2.7631264553948762,-1.0925500849205492,no_tremor
65,10134225,0.657,-0.27728821185611846,-0.23416077541950947,0.8594259801804477,0.8522952314823333,2.9394151764801126,-1.3072077917645122,no_tremor
66,10134230,0.662,-0.2787427660145295,-0.23416366407588418,0.8596621976507446,1.0509939049488055,3.1016988108352206,-1.535217612281396,no_tremor
67,10134235,0.667,-0.2798485736366859,-0.23440491719566509,0.8599405067628403,1.223877897967089,3.247022364036054,-1.7711632648399824,no_tremor
68,10134240,0.672,-0.280586036621258,-0.23488312386710458,0.8602483746211452,1.3684782797217272,3.3729116134890904,-2.0099730596835736,no_tremor
69,10134244,0.676,-0.2809461898712596,-0.2355926565385205,0.8605737284626299,1.482893166520129,3.4773807185290435,-2.247073237539013,no_tremor
70,10134249,0.681,-0.280930294958353,-0.236523733189145,0.860905258755169,1.5658110372664358,3.558917926134558,-2.47849938126465,no_tremor
71,10134264,0.696,-0.2805490457899175,-0.23766256110311337,0.8612326865869357,1.6165192181161754,3.6164541613459726,-2.7009638220744208,no_tremor
72,10134268,0.7,-0.2798214666189341,-0.23899155727716084,0.8615469923817314,1.6348992132697768,3.649319997493236,-2.9118797690911356,no_tremor
73,10134273,0.705,-0.27877359290546994,-0.24048963964825493,0.8618406035940996,1.6214108150168542,3.657196910639368,-3.1093452453805117,no_tremor
74,10134278,0.71,-0.2774370288837547,-0.24213258268214227,0.8621075393339521,1.5770669647363,3.6400685033605575,-3.2920916242253937,no_tremor
75,10134287,0.719,-0.2758474722818611,-0.24389343064376537,0.8623435101188428,1.5034010638162436,3.598176359323134,-3.459402651662919,no_tremor
76,10134292,0.724,-0.2740432872019529,-0.2457429621202108,0.8625459713486228,1.4024277215238667,3.5319837218538908,-3.6110105978967346,no_tremor
77,10134296,0.728,-0.2720641921170794,-0.24765019990326403,0.8627141297123258,1.2765968581598108,3.442148843669611,-3.74697690802414,no_tremor
78,10134301,0.733,-0.2699501130379874,-0.2495829609382654,0.8628489025482085,1.1287400302302997,3.329508883133204,-3.867565427014074,no_tremor
79,10134306,0.738,-0.267740233915613,-0.2515084415109073,0.8629528310899107,0.9620072533499058,3.1950745042217616,-3.9731166498255117,no_tremor
80,10134310,0.742,-0.26547225888243653,-0.2533938328755381,0.8630299493785825,0.7797927733614961,3.040034656275029,-4.063931281002482,no_tremor
81,10134315,0.747,-0.26318188535033293,-0.25520696167700613,0.8630856111935812,0.585649352052898,2.8657702662750224,-4.140170771903551,no_tremor
82,10134350,0.782,-0.2609024742422431,-0.25691694733399606,0.8631262774760308,0.3831927296513422,2.6738747929399667,-4.20178153868497,no_tremor
83,10134355,0.787,-0.2586648941662673,-0.25849486491571133,0.8631592663837526,0.17600064585117858,2.466178800936472,-4.248448117637968,no_tremor
84,10134359,0.791,-0.25649750984968356,-0.2599143975820818,0.8631924676546209,-0.032486833816949785,2.244774927350441,-4.279578473543327,no_tremor
85,10134364,0.796,-0.25442628072229456,-0.26115245878995447,0.863234023031838,-0.23905812411940888,2.0120389178022995,-4.294322252341192,no_tremor
86,10134369,0.801,-0.2524749322970312,-0.2621897626321077,0.8632919757705231,-0.44080567176758295,1.7706420266235188,-4.291620373593099,no_tremor
87,10134374,0.806,-0.2506651608362028,-0.2630113213289642,0.863373894907017,-0.6351822633064956,1.523550262815156,-4.270282284318228,no_tremor
88,10134384,0.816,-0.24901683139168063,-0.26360685137964207,0.8634864836952708,-0.8200364874544748,1.2740068376074574,-4.229085502082581,no_tremor
89,10134388,0.82,-0.24754813148648608,-0.26397107314814483,0.8636351857686413,-0.9936274751563505,1.0254956298855262,-4.166890685657199,no_tremor
90,10134394,0.826,-0.246275647859768,-0.26410389190526,0.8638238065064132,-1.1546201882882108,0.7816853197037948,-4.082764348094747,no_tremor
91,10134403,0.835,-0.24521434165968348,-0.26401045117156996,0.8640541701895905,-1.3020633637710586,0.5463558089440409,-3.9761005694314253,no_tremor
92,10134408,0.84,-0.2443774076492296,-0.2637010515619412,0.8643258353594685,-1.4353528378540616,0.32331032386017367,-3.8467328276447317,no_tremor
93,10134412,0.844,-0.2437760145532906,-0.2631909304175385,0.8646358910277623,-1.554183405745533,0.11627779056380566,-3.6950274508211423,no_tremor
94,10134422,0.854,-0.24341893564961256,-0.26249989967609644,0.8649788548502413,-1.65849272880859,-0.07118949845542344,-3.5219513084478025,no_tremor
95,10134427,0.859,-0.24331209008735502,-0.26165184207129283,0.8653466910156804,-1.7484011719865877,-0.23581812181203668,-3.329108265638914,no_tremor
96,10134432,0.864,-0.24345802529366073,-0.26067406923969694,0.8657289604895902,-1.824151697220533,-0.3747114872883752,-3.1187413767853793,no_tremor
97,10134436,0.868,-0.24385537846666283,-0.2595965499567645,0.8661131095653729,-1.8860537691467947,-0.4854402246819119,-2.8937002656728152,no_tremor
98,10134441,0.873,-0.24449836002859454,-0.258451022757058,0.8664848946606808,-1.9344345981443456,-0.5661227451067707,-2.6573752335597978,no_tremor
99,10134472,0.904,-0.245376303751006,-0.25727001475286193,0.8668289322456249,-1.9696002970231108,-0.615494486181137,-2.4136013442545354,no_tremor
100,10134477,0.909,-0.2464733270990975,-0.2560857973560963,0.8671293531293335,-1.991808995408577,-0.6329646075217851,-2.1665372357971338,no_tremor
101,10134482,0.914,-0.2477681415860046,-0.2549293188454931,0.8673705308528057,-2.001257513278851,-0.6186587114603792,-1.9205247716319038,no_tremor
102,10134492,0.924,-0.2492340473222106,-0.25382916138864275,0.8675378458782339,-1.9980824376046278,-0.5734459440158203,-1.6799367391695894,no_tremor
103,10134496,0.928,-0.250839139240412,-0.25281057415897296,0.8676184419434065,-1.9823752537078372,-0.49894878777744306,-1.4490204063212058,no_tremor
104,10134501,0.933,-0.2525467450561031,-0.25189463347851226,0.8676019291788809,-1.9542098508871735,-0.3975339005084964,-1.2317446706669688,no_tremor
105,10134506,0.938,-0.25431610684018396,-0.2510975756413585,0.8674809904625218,-1.9136795575652872,-0.27228241285927307,-1.0316578057151473,no_tremor
106,10134511,0.943,-0.2561033088237259,-0.2504303391581052,0.8672518526059015,-1.860939890996197,-0.12693828420645667,-0.8517618255171268,no_tremor
107,10134516,0.948,-0.25786244329598246,-0.24989834175033315,0.8669145917201705,-1.7962523455884634,0.03416624678521741,-0.6944087248426363,no_tremor
108,10134520,0.952,-0.25954699374094764,-0.24950150461049186,0.8664732518768511,-1.720023920634479,0.20620839388186837,-0.5612232355820908,no_tremor
109,10134535,0.967,-0.2611113993770435,-0.24923452313013228,0.8659357674466471,-1.6328370628744884,0.383995147784378,-0.45305576892805893,no_tremor
110,10134546,0.978,-0.26251274811746195,-0.2490873701678158,0.8653136918772701,-1.5354655669899706,0.5621045447467309,-0.36996770620894104,no_tremor
111,10134558,0.99,-0.2637125265095509,-0.24904600555013298,0.8646217488106338,-1.4288737924245407,0.7350448553334654,-0.31124944963774787,no_tremor
112,10134601,1.033,-0.26467833733116053,-0.24909325449718114,0.8638772348564772,-1.3141992059327832,0.8974269098152666,-0.27546995341407504,no_tremor
113,10134612,1.044,-0.26538548114046506,-0.24920980869025852,0.8630993160924829,-1.1927214052931212,1.0441428877767653,-0.2605550214962826,no_tremor
114,10134623,1.055,-0.2658182908309427,-0.2493752972053994,0.8623082706120803,-1.0658236858754992,1.1705434899312974,-0.2638906396321605,no_tremor
115,10134635,1.067,-0.2659711116738553,-0.24956937059477818,0.8615247344849579,-0.9349550199130169,1.272605025610761,-0.28244691708894487,no_tremor
116,10134646,1.078,-0.26584883531484643,-0.24977273986421514,0.8607690058703971,-0.8016005567537454,1.347078638093878,-0.3129174939703781,no_tremor
117,10134668,1.1,-0.2654669235781967,-0.249968113006559,0.8600604509767628,-0.6672673474330959,1.3916152935461994,-0.3518683333465709,no_tremor
118,10134680,1.112,-0.2648508928560773,-0.250140975608864,0.859417037498731,-0.5334890365398782,1.4048618986148853,-0.3958888292966606,no_tremor
119,10134691,1.123,-0.2640352675342167,-0.2502801697240241,0.8588549991267501,-0.40184915184348147,1.3865257098528576,-0.4417373462307501,no_tremor
120,10134722,1.154,-0.26306204734476063,-0.25037823736187553,0.8583886127900759,-0.2740181628912333,1.3374058148793277,-0.48647277241801923,no_tremor
121,10134733,1.165,-0.26197876626745653,-0.25043151122689705,0.8580300529244967,-0.15179550044894813,1.2593917669097003,-0.5275636179909985,no_tremor
122,10134744,1.176,-0.26083624827466523,-0.2504399537214057,0.8577892779404723,-0.037144910345003154,1.1554304696580628,-0.5629669974943777,no_tremor
123,10134756,1.188,-0.2596861866581084,-0.2504067627657347,0.8576739049135904,0.06778942557771817,1.0294631890014763,-0.5911718183748761,no_tremor
124,10134767,1.199,-0.25857868737403167,-0.2503377773376365,0.8576890385977632,0.16069714697188264,0.8863350787127318,-0.6112035766476648,no_tremor
125,10134778,1.21,-0.2575599213131523,-0.2502407263687638,0.8578370375551082,0.23915403631564902,0.7316798359054142,-0.6225918734360656,no_tremor
126,10134790,1.222,-0.25667002476162437,-0.25012437283842914,0.8581172200032972,0.3007155904513571,0.5717821628384759,-0.6253054907215299,no_tremor
127,10134801,1.233,-0.2559413715603107,-0.24999761171357673,0.8585255313103219,0.34305033386398964,0.41342076547389617,-0.6196630240696289,no_tremor
128,10134812,1.244,-0.25539731552059647,-0.249868585859907,0.8590542106954999,0.3641067673749825,0.26369467970676225,-0.6062291904457552,no_tremor
129,10134844,1.276,-0.2550514693269876,-0.24974388703018754,0.8596915041801414,0.3623035431443552,0.12983560459028817,-0.5857077363565885,no_tremor
130,10134855,1.287,-0.25490754892408085,-0.2496279077277346,0.860421473020024,0.33672896885114784,0.01900846389126061,-0.5588414307888575,no_tremor
131,10134867,1.299,-0.25495977315983787,-0.24952240255283908,0.8612239423018125,0.2873338945120212,-0.06189831416622832,-0.5263282934875542,no_tremor
132,10134878,1.31,-0.2551937704227208,-0.24942630389319156,0.8620746252419724,0.21510176402520223,-0.1064920008885762,-0.48876140680160296,no_tremor
133,10134889,1.321,-0.2555879102711015,-0.24933581711571856,0.8629454477803052,0.1221810355297302,-0.10910382081432604,-0.4465977312037122,no_tremor
134,10134966,1.398,-0.2561149510923752,-0.2492447965181356,0.8638050874320945,0.011967813097218047,-0.06502580679935117,-0.40015944354557914,no_tremor
135,10134977,1.409,-0.2567438763531401,-0.24914537782553448,0.8646197307699113,-0.11087031874902575,0.02924451132146516,-0.3496693139545805,no_tremor
136,10134988,1.42,-0.25744178343313895,-0.24902881930824197,0.8653540448967652,-0.24043526728195755,0.1757531134202821,-0.29531928950866626,no_tremor
137,10134999,1.431,-0.25817569173819355,-0.24888648527019872,0.8659723489257679,-0.3697077406429049,0.37483534897851956,-0.23736878456368404,no_tremor
138,10135011,1.443,-0.2589141510865605,-0.24871089528894996,0.8664399609525242,-0.49072639584018485,0.6248645668229712,-0.17626658421229913,no_tremor
139,10135022,1.454,-0.25962855528739404,-0.24849676044892835,0.866724683795272,-0.594836247765924,0.922012930916879,-0.11278817168903281,no_tremor
140,10135033,1.465,-0.2602940953653334,-0.24824193215486132,0.8667983789095572,-0.6730029174313986,1.260037235354485,-0.048178761251650506,no_tremor
141,10135056,1.488,-0.2608903176904961,-0.2479481976578753,0.8666385630835166,-0.7161852119136153,1.6301051617508162,0.01570889637691992,no_tremor
142,10135098,1.53,-0.2614012811764996,-0.24762186736544764,0.8662299483763988,-0.7157533999236259,2.020679055189241,0.07629396933001388,no_tremor
143,10135109,1.541,-0.2618153330216308,-0.24727411094748447,0.8655658349151787,-0.6639353361271331,2.4174749529831416,0.1301772200246144,no_tremor
144,10135121,1.553,-0.2621245435019296,-0.24692101078743642,0.8646492621949015,-0.5542685917554083,2.8035143683500348,0.1730943759010603,no_tremor
145,10135132,1.564,-0.26232385693083793,-0.24658331115513082,0.8634938308642547,-0.382034911400586,3.1592851983325,0.19992643057218965,no_tremor
146,10135143,1.575,-0.26241002843806843,-0.24628584925572247,0.8621241248866794,-0.14465372751006048,3.463025898227267,0.20477868009128614,no_tremor
147,10135166,1.598,-0.26238042563522945,-0.24605666138907273,0.8605756911901135,0.157986548274963,3.691143568188267,0.1811373300180532,no_tremor
148,10135177,1.609,-0.26223178169725087,-0.24592576658024876,0.8588945651214467,0.5232780397139729,3.818771951941278,0.12210792025439746,no_tremor
149,10135209,1.641,-0.26195899254584887,-0.2459236441853387,0.8571363585195435,0.9457394268468156,3.820469844956828,0.020733769086299154,no_tremor
150,10135221,1.653,-0.2615540551711662,-0.24607944292998046,0.8553649470721141,1.416971180061106,3.671054097321382,-0.12961454052093782,no_tremor
151,10135232,1.664,-0.26100524482456733,-0.24641898592652803,0.8536508017904265,1.9257295294780568,3.34655399447018,-0.33479532283581204,no_tremor
152,10135243,1.675,-0.2602966231088822,-0.2469626658397309,0.8520690071932973,2.458125363093181,2.8252651427504563,-0.5994215243603175,no_tremor
153,10135254,1.686,-0.2594079543618232,-0.24772335120720743,0.8506970012287577,2.997950780556935,2.088871454634556,-0.9263855490316996,no_tremor
154,10135277,1.709,-0.25831508313250867,-0.24870444410723122,0.8496120658261234,3.5271321380854395,1.123594245042373,-1.3164158451932626,no_tremor
155,10135288,1.72,-0.2569907919089598,-0.2498982378813773,0.8488885981827082,4.026303763350966,-0.07868137746630237,-1.7676984135996487,no_tremor
156,10135299,1.731,-0.2554061181062835,-0.2512847203240816,0.8485952046931793,4.475491084235105,-1.519360224379596,-2.275594467509924,no_tremor
157,10135331,1.763,-0.253532066277132,-0.25283095301646363,0.8487916815411477,4.854885955722416,-3.192234261470827,-2.8324816808429483,no_tremor
158,10135342,1.774,-0.2513416097786915,-0.2544911329490952,0.8495259749177883,5.145690731087842,-5.0827906744452624,-3.4277412472818307,no_tremor
159,10135354,1.786,-0.24881184022239566,-0.2562074106710132,0.8508312443385478,5.3310013045422195,-7.167798833773023,-4.047906399413394,no_tremor
160,10135365,1.797,-0.24592609733159118,-0.2579115021620774,0.852723179339138,5.396693185215448,-9.41524047400035,-4.676979980059248,no_tremor
161,10135376,1.808,-0.2426758998880736,-0.2595270905840911,0.8551977391463917,5.332268910011499,-11.784637802114203,-5.2969191102776785,no_tremor
162,10135387,1.819,-0.23906250217734382,-0.2609729688701273,0.8582294947983634,5.131620129493481,-14.22781791713636,-5.8882740613570315,no_tremor
163,10135399,1.831,-0.23509791992623819,-0.2621668240888418,0.8617707527883983,4.793654174791209,-16.69012866346523,-6.430956363271884,no_tremor
164,10135410,1.842,-0.23080530423691695,-0.2630295097290584,0.8657516276851408,4.322733881528183,-19.112091473018534,-6.905098745202309,no_tremor
165,10135421,1.853,-0.2262185899682221,-0.2634895944401931,0.8700812065859896,3.72888216682292,-21.431442482008197,-7.291958326047721,no_tremor
166,10135454,1.886,-0.22138140422488348,-0.26348792000148025,0.8746499081835027,3.0277104629137543,-23.58547682401727,-7.574806667945712,no_tremor
167,10135465,1.897,-0.21634528736656017,-0.2629818552884776,0.8793330808492458,2.240043223868844,-25.51357592537291,-7.739747619642766,no_tremor
168,10135476,1.908,-0.21116734690591388,-0.26194890777267793,0.8839958051583882,1.391229143433265,-27.15976846948994,-7.776407243817725,no_tremor
169,10135487,1.919,-0.2059075250701942,-0.2603893614993953,0.8884987665267254,0.5101522494173995,-28.475158612912367,-7.6784496779982865,no_tremor
170,10135498,1.93,-0.20062570479759406,-0.2583276584399739,0.892704947655947,-0.37201954445082663,-29.420056310855465,-7.4438875591449385,no_tremor
171,10135510,1.942,-0.19537890011655568,-0.2558123281031854,0.8964867696632657,-1.2232872415801492,-29.965667436027626,-7.0751733520969236,no_tremor
172,10135521,1.953,-0.19021877167167975,-0.2529143889256541,0.8997332032123222,-2.0123933193536017,-30.095243229434946,-6.579075620476547,no_tremor
173,10135533,1.965,-0.18518967536274486,-0.24972427896581514,0.902356298669368,-2.7104171656668816,-29.80464093537886,-5.966359454982762,no_tremor
174,10135544,1.976,-0.18032739364290143,-0.24634750539188638,0.9042965683180733,-3.292288356016399,-29.10229803605557,-5.25130145416396,no_tremor
175,10135576,2.008,-0.17565862217484632,-0.24289931592200964,0.9055267081833284,-3.7381136267374306,-28.008660534604196,-4.451076548816739,no_tremor
176,10135587,2.019,-0.17120120167133349,-0.23949877793933008,0.9060532738969224,-4.034224403420544,-26.55512757123435,-3.585057194675151,no_tremor
177,10135599,2.031,-0.1669650097179974,-0.2362626936663655,0.9059161103081307,-4.17387200444797,-24.782585822696955,-2.674065824962472,no_tremor
178,10135621,2.053,-0.16295336981032973,-0.23329977763128656,0.9051855497221464,-4.157524263805951,-22.739617470470588,-1.7396193808614213,no_tremor
179,10135633,2.065,-0.1591647971530357,-0.23070547638947225,0.9039576039803181,-3.9927464740062577,-20.48047973572342,-0.8032003892014185,no_tremor
180,10135644,2.076,-0.15559488118467799,-0.2285577292076862,0.9023475515677067,-3.693678235243653,-18.062966827824372,0.11441732223882836,no_tremor
181,10135655,2.087,-0.15223810293875972,-0.22691386920681103,0.9004824456474853,-3.280144968939364,-15.54626750281526,0.9937678569646721,no_tremor
182,10135698,2.13,-0.14908940383396002,-0.22580876608929887,0.8984931378553902,-2.776468744535621,-12.988920468630923,1.8172044477474745,no_tremor
183,10135709,2.141,-0.14614536269702036,-0.2252542264103771,0.8965064280280525,-2.2100666135202456,-10.446951246052118,2.5693153116557426,no_tremor
184,10135732,2.164,-0.14340489512601484,-0.225239597117646,0.8946379142751969,-1.6099415051442574,-7.97225467671324,3.237240785220993,no_tremor
185,10135743,2.175,-0.14086945294720024,-0.22573345746540102,0.8929860323749073,-1.0051753101438656,-5.611268909697249,3.8108918710360795,no_tremor
186,10135765,2.197,-0.1385427597766604,-0.2266862300326616,0.8916276440090928,-0.42352397463789654,-3.403967289198503,4.283074104241287,no_tremor
187,10135777,2.209,-0.13643016454712673,-0.22803349765412417,0.8906153743139508,0.10980650171430983,-1.3831726971472562,4.649523944224517,no_tremor
188,10135788,2.22,-0.13453772699442482,-0.22969978764891444,0.8899767308704886,0.5731507134417367,0.425823145908605,4.908866554568945,no_tremor
189,10135830,2.262,-0.13287116820220823,-0.2316025817043142,0.8897148778214522,0.9491159741203827,2.0053695735948773,5.062503465208823,no_tremor
190,10135853,2.285,-0.13143482437394768,-0.23365632595624608,0.8898108059248362,1.2250553891299456,3.345336503507698,5.1144368747241735,no_tremor
191,10135864,2.296,-0.13023073064866775,-0.2357762440774188,0.8902265465698065,1.393300097464466,4.44280017706659,5.071035529950037,no_tremor
192,10135875,2.307,-0.1292579337587243,-0.2378817896938915,0.8909090386024767,1.4511791996198387,5.301562945778232,4.940746467092086,no_tremor
193,10135909,2.341,-0.12851209207196027,-0.2398996090100088,0.8917942771262037,1.4008574789365307,5.93152689121817,4.733758032363293,no_tremor
194,10135940,2.372,-0.12798537714172967,-0.24176591912534884,0.8928114440079079,1.2490165475619246,6.347936277634185,4.461622116283333,no_tremor
195,10135951,2.383,-0.12766665137560596,-0.2434282433760655,0.8938868165457498,1.0063986259012336,6.5705032029244,4.136846179771045,no_tremor
196,10135963,2.395,-0.12754186961075775,-0.2448464832697307,0.8949473438398471,0.6872274762581839,6.622434978918916,3.7724672825876073,no_tremor
197,10135974,2.406,-0.12759464200110188,-0.2459933459181117,0.895923846738207,0.3085201939288257,6.529389951678405,3.3816209156110184,no_tremor
198,10135985,2.417,-0.12780689908322254,-0.2468541820831123,0.8967538286737715,-0.11069314508234779,6.318397942322623,2.9771178212773224,no_tremor
199,10136008,2.44,-0.12815960978095445,-0.24742631787414318,0.8973838872865516,-0.5502188603656206,6.016789319351936,2.5710426737082983,no_tremor
200,10136030,2.462,-0.12863351207984225,-0.24771797928472725,0.8977717030329153,-0.9895878430709265,5.651180934741564,2.1743892157104514,no_tremor
201,10136072,2.504,-0.12920982047836999,-0.2477469125643153,0.8978875634637768,-1.408945856233354,5.246566415033239,1.7967466817518658,no_tremor
202,10136095,2.527,-0.12987087431987557,-0.24753879710614968,0.8977153702996082,-1.7899048428695192,4.825552027053428,1.4460516099321619,no_tremor
203,10136106,2.538,-0.13060068945669695,-0.2471255354621788,0.8972530772835432,-2.11631287206772,4.40776859213768,1.1284170175188417,no_tremor
204,10136118,2.55,-0.13138537622075036,-0.24654349257432465,0.89651252215891,-2.3749031147567634,4.009476989570078,0.8480471117795874,no_tremor
205,10136129,2.561,-0.13221339254402847,-0.24583174734833857,0.8955186434949548,-2.5557890305739344,3.6433715472446244,0.6072404911256535,no_tremor
206,10136140,2.572,-0.13307561305273857,-0.24503041490018937,0.8943081070256127,-2.6527827402335347,3.318572881867737,0.40647903176366096,no_tremor
207,10136152,2.584,-0.13396521123569036,-0.24417909447190767,0.8929274009591767,-2.6635248528141027,3.040790220387613,0.244594343974913,no_tremor
208,10136184,2.616,-0.13487736958144989,-0.24331549256066284,0.8914304912385073,-2.589425711349219,2.812624088536387,0.11899928570442303,no_tremor
209,10136195,2.627,-0.13580884964806983,-0.24247426134479738,0.8898761536377202,-2.43542949340568,2.6339744998274,0.025968470489292766,no_tremor
210,10136206,2.638,-0.136757468667231,-0.2416860796434592,0.888325118387473,-2.2096230212184254,2.5025175612316155,-0.039050972652210005,no_tremor
211,10136218,2.65,-0.13772153949897756,-0.24097698950365956,0.8868371733083487,-1.9227192020151511,2.4142141122847844,-0.0811185200986038,no_tremor
212,10136240,2.672,-0.13869933416973268,-0.2403679879614069,0.8854683720927979,-1.5874497469737678,2.3638168001244844,-0.10548910263641052,no_tremor
213,10136252,2.684,-0.13968862617898944,-0.239874861346768,0.8842684854859546,-1.2179033105162567,2.3453462709711,-0.11732955926987561,no_tremor
214,10136263,2.695,-0.14068635358527287,-0.23950823869318144,0.8832788162731549,-0.8288443814484333,2.3525127363056364,-0.12147707343510722,no_tremor
215,10136274,2.706,-0.1416884262016483,-0.23927383145881376,0.882530476795747,-0.43504600306255037,2.379066097702276,-0.12224909857570992,no_tremor
216,10136304,2.736,-0.14268967992596743,-0.239172819457764,0.8820432028802296,-0.05066606645854374,2.4190658899322717,-0.12330847557195772,no_tremor
217,10136315,2.747,-0.1436839629455797,-0.23920233847185834,0.8818247523198844,0.31130735747131727,2.467070632633344,-0.12758166080650782,no_tremor
218,10136327,2.759,-0.14466432488954817,-0.23935602422848848,0.8818709094822619,0.6395212551435772,2.518253404307988,-0.13722343297009781,no_tremor
219,10136349,2.781,-0.14562327254471044,-0.23962457083956432,0.8821660890655527,0.9246187957491611,2.568455515440381,-0.15361905218558577,no_tremor
220,10136361,2.793,-0.14655305517512782,-0.23999626954704278,0.8826845005976603,1.159487798298477,2.6141927961624414,-0.17741482150383145,no_tremor
221,10136372,2.804,-0.14744594832800614,-0.2404575050203123,0.8833918018760619,1.3393941532163443,2.652629634407755,-0.20856981779721823,no_tremor
222,10136384,2.816,-0.14829451562733542,-0.24099319975879835,0.8842471373054214,1.462003502406078,2.68153514153107,-0.24642427203025932,no_tremor
223,10136395,2.827,-0.14909184090294264,-0.2415872099437479,0.8852054304769571,1.5272993296744677,2.6992340320266366,-0.2897826971334241,no_tremor
224,10136426,2.858,-0.14983173496152752,-0.24222268588737192,0.8862197837777613,1.5374095003040635,2.704561829368255,-0.33701151162482207,no_tremor
225,10136438,2.87,-0.15050892911398642,-0.24288241504415578,0.8872438344745573,1.4963563119624887,2.6968297306842666,-0.386150966055404,no_tremor
226,10136449,2.881,-0.1511192687567228,-0.24354916433914878,0.8882339276221898,1.409747400139618,2.67579957019495,-0.4350395594954831,no_tremor
227,10136460,2.892,-0.15165991444464258,-0.24420603188720272,0.8891509897653951,1.2844263359778656,2.6416652080195195,-0.48144649405281875,no_tremor
228,10136471,2.903,-0.15212954716623991,-0.24483680845278347,0.8899620197867376,1.1281022424260325,2.5950343831615292,-0.5232052308194134,no_tremor
229,10136482,2.914,-0.15252856283854754,-0.24542633983457413,0.8906411490921453,0.9489770302292025,2.5369046223147205,-0.5583399134925916,no_tremor
230,10136548,2.98,-0.15285923232814785,-0.24596087605213462,0.8911702575315881,0.7553869510687514,2.4686276382789525,-0.5851766855377536,no_tremor
231,10136559,2.991,-0.15312580014473479,-0.24642839322149682,0.8915391604945363,0.5554723544012906,2.391858446143895,-0.602433512155536,no_tremor
232,10136593,3.025,-0.15333449783395406,-0.24681887800957844,0.8917454050479405,0.356886117817609,2.3084880334829427,-0.6092845559128407,no_tremor
233,10136604,3.036,-0.15349345554633131,-0.24712456902620655,0.8917937290562872,0.16654748134462485,2.2205613998357823,-0.6053978255662829,no_tremor
234,10136616,3.048,-0.15361250490040992,-0.2473401512216081,0.8916952477843213,-0.00955555586729659,2.1301854825309574,-0.5909469339790205,no_tremor
235,10136627,3.059,-0.1537028761144422,-0.24746289786809497,0.8914664378549305,-0.16651486031842738,2.039433609193443,-0.5665987840845169,no_tremor
236,10136638,3.07,-0.1537768013430765,-0.24749275217403413,0.8911279884231444,-0.3006029360249659,1.9502545790009078,-0.5334789673690477,no_tremor
237,10136681,3.113,-0.1538470435807967,-0.24743233940909667,0.8907035844141279,-0.4093274541632196,1.8643947716232476,-0.4931162952530995,no_tremor
238,10136693,3.125,-0.1539263758717749,-0.24728690154386973,0.8902186783433618,-0.4914409603618344,1.7833401213717277,-0.4473679040116003,no_tremor
239,10136704,3.136,-0.1540270386277403,-0.2470641492626873,0.889699297961704,-0.5469067618838523,1.7082815576530122,-0.39832714902741984,no_tremor
240,10136715,3.147,-0.1541602037427385,-0.24677402956004774,0.8891709284892731,-0.576821954835606,1.6401039108872766,-0.34821790380158046,no_tremor
241,10136726,3.158,-0.15433547337844436,-0.24642841002366977,0.8886575009187498,-0.5832994329078354,1.5793956215752938,-0.29928033251281905,no_tremor
242,10136738,3.17,-0.1545604393242969,-0.24604068336244225,0.8881805112231926,-0.5693125792243773,1.5264751385111437,-0.25365413506603646,no_tremor
243,10136749,3.181,-0.15484032608915418,-0.24562529872136682,0.8877582886441931,-0.5385086769706653,1.4814291795626482,-0.2132655914798511,no_tremor
244,10136792,3.224,-0.15517773743474558,-0.2451972310030401,0.8874054242828766,-0.49499916504591857,1.4441577275099897,-0.17972486743814645,no_tremor
245,10136815,3.247,-0.15557252177140962,-0.24477140621074228,0.8871323640605515,-0.44313619597442794,1.4144207597997198,-0.15424025408375544,no_tremor
246,10136826,3.258,-0.1560217665688177,-0.24436210878414946,0.8869451633401881,-0.3872854561631952,1.3918822609088757,-0.13755593253320772,no_tremor
247,10136838,3.27,-0.156519925711101,-0.24398240374898833,0.8868453954610054,-0.3316051676496487,1.3761478831041651,-0.12991879585852562,no_tremor
248,10136849,3.281,-0.1570590766293543,-0.2436436096827229,0.8868302048875552,-0.27984091650988113,1.3667935561377076,-0.1310775239668654,no_tremor
249,10136860,3.292,-0.15762929615330878,-0.24335485651060187,0.8868924984319423,-0.23514552410161596,1.3633833737759646,-0.14031382413318766,no_tremor
250,10136872,3.304,-0.15821913568108875,-0.2431227552110373,0.8870212738419789,-0.1999324187445674,1.36547629450658,-0.1565023192729576,no_tremor
251,10136883,3.315,-0.15881616842450616,-0.2429511962544188,0.8872020909097533,-0.1757697529912845,1.3726226245718307,-0.17819284502975083,no_tremor
252,10136915,3.347,-0.1594075756505701,-0.24284128239559602,0.8874176925725741,-0.16332102927135433,1.3843526378999167,-0.20370735889470412,no_tremor
253,10136926,3.358,-0.15998073653672912,-0.24279139175266798,0.8876487794741617,-0.16233640427106608,1.4001605159915367,-0.2312432319360215,no_tremor
254,10136937,3.369,-0.16052378839835701,-0.2427973607518528,0.8878749299193563,-0.17169683528187338,1.419486840804484,-0.25897523037774967,no_tremor
255,10136960,3.392,-0.1610261304787364,-0.24285277398211028,0.8880756388011668,-0.18951037914604688,1.4417025583900887,-0.28514990872657653,no_tremor
256,10136971,3.403,-0.16147885385794436,-0.2429493482497555,0.8882314268190644,-0.21325637668358158,1.4660971997202261,-0.30816811711498765,no_tremor
257,10136983,3.415,-0.16187508998538253,-0.243077399004881,0.8883249503479415,-0.23996955581955565,1.49187417334729,-0.326653262771568,no_tremor
258,10137005,3.437,-0.16221027814493558,-0.24322637624661358,0.8883420291070976,-0.26645276542942653,1.5181556126178497,-0.33950439868671295,no_tremor
259,10137037,3.469,-0.1624823556908962,-0.243385451935747,0.8882725083579668,-0.28950443527236774,1.5439982200246407,-0.34593412061448947,no_tremor
260,10137048,3.48,-0.16269187357966258,-0.24354413161583066,0.8881108856459821,-0.30614539185652295,1.5684200062667006,-0.34549177390282326,no_tremor
261,10137059,3.491,-0.16284203500349087,-0.24369285193490992,0.8878566554220821,-0.31382971137700566,1.5904363348917792,-0.33807259347091206,no_tremor
262,10137070,3.502,-0.1629386497011555,-0.24382351772567099,0.8875143521102763,-0.31062572892022133,1.6091027075373523,-0.32391311606366735,no_tremor
263,10137082,3.514,-0.16298999369489492,-0.2439299314732535,0.8870932977386694,-0.295355713961686,1.6235612908635597,-0.30357279585059305,no_tremor
264,10137104,3.536,-0.1630065653872777,-0.24400807586888162,0.8866070809057927,-0.2676858119519062,1.6330879943828565,-0.2779016789685851,no_tremor
265,10137115,3.547,-0.1630007341415975,-0.2440562251891225,0.8860728087815534,-0.22816153445005377,1.6371366542090282,-0.24799449542909305,no_tremor
266,10137127,3.559,-0.1629862856499855,-0.24407488015391993,0.8855101835398139,-0.17818802069998338,1.6353765806844807,-0.21513254189324718,no_tremor
267,10137158,3.59,-0.1629778781932312,-0.2440665399160498,0.8849404599902044,-0.11995792976838715,1.627719800709093,-0.18071608161466404,no_tremor
268,10137169,3.601,-0.1629904338422635,-0.24403534064468171,0.8843853432232334,-0.05633277220584223,1.6143351264988253,-0.1461914413085477,no_tremor
269,10137181,3.613,-0.16303849710218782,-0.2439866008249456,0.8838658848613428,0.009314234673504077,1.5956475031106976,-0.1129780758152998,no_tremor
270,10137192,3.624,-0.1631355986681176,-0.2439263184842652,0.8834014348749932,0.07328392427613395,1.5723223297892142,-0.08240102669108046,no_tremor
271,10137203,3.635,-0.16329366242865256,-0.24386066566927855,0.8830087031064613,0.13175436083238523,1.5452352780122525,-0.055633255401012126,no_tremor
272,10137215,3.647,-0.16352248934972777,-0.24379552150971245,0.8827009801016046,0.18098950864276964,1.5154287694783375,-0.03365074635393961,no_tremor
273,10137226,3.658,-0.16382934358383852,-0.2437360779414751,0.8824875596550233,0.21754146897342336,1.4840571671143243,-0.017201650443809904,no_tremor
274,10137237,3.669,-0.16421865622600468,-0.2436865424813902,0.8823733949593997,0.2384352435856736,1.4523239194833577,-0.006789358734163077,no_tremor
275,10137279,3.711,-0.16469185282135734,-0.24364995138433537,0.8823590064473105,0.2413266800079372,1.421414938235427,-0.00266833716664811,no_tremor
276,10137291,3.723,-0.16524730361530304,-0.24362809523743734,0.8824406431442419,0.22462644905247509,1.3924329718927324,-0.004850861611953318,no_tremor
277,10137302,3.734,-0.16588039118543896,-0.24362154872730793,0.8826106820691945,0.18758511032161473,1.3663377030765769,-0.013122407971578818,no_tremor
278,10137313,3.745,-0.1665836880715887,-0.24362978803252772,0.8828582336848402,0.13033615510246713,1.343895987706425,-0.02706332461258735,no_tremor
279,10137325,3.757,-0.16734723631527426,-0.2436513739072604,0.8831699072574005,0.05389534739995672,1.3256461114800464,-0.04607470851029496,no_tremor
280,10137347,3.779,-0.16815892031310456,-0.24368417645063722,0.8835306794760933,-0.039884000088691855,1.311878969219114,-0.06940723804188363,no_tremor
281,10137370,3.802,-0.16900492306881662,-0.24372561850290314,0.8839248036245178,-0.14839867321028138,1.3026375412344595,-0.09619275448575307,no_tremor
282,10137423,3.855,-0.1698702529898302,-0.24377291749099336,0.8843366954774317,-0.26842318752060235,1.297734037162301,-0.1254790363030114,no_tremor
283,10137434,3.866,-0.17073932357457122,-0.24382330893501897,0.8847517360333871,-0.39627240130925284,1.296781949201459,-0.15626812615577026,no_tremor
284,10137445,3.877,-0.171596562535624,-0.24387423786414097,0.8851569399209571,-0.5279918459214561,1.299238588191387,-0.18755782335917429,no_tremor
285,10137468,3.9,-0.17242702202915416,-0.24392350736073196,0.885541451318199,-0.6595662057404321,1.3044530152452884,-0.21838488823996882,no_tremor
286,10137479,3.911,-0.17321695967081008,-0.24396937721455247,0.8858968457252072,-0.7871342897160909,1.3117147619608498,-0.24786757155496436,no_tremor
