sample,t_ms,t_s,ax,ay,az,gx,gy,gz,tremor
0,10158568,0.0,-0.26018887881196684,-0.21204031416346109,0.8919123394239549,-1.9183992533727867,2.7103538445663236,-0.7487616820490223,no_tremor
1,10158578,0.01,-0.2598822512840221,-0.21200839953143139,0.8917592578683419,-2.0100576974933064,2.7000176274912713,-0.7174599902694934,no_tremor
2,10158583,0.015,-0.25945924914891616,-0.21196204567727242,0.8915346268555309,-2.0986208611172605,2.6886826916815916,-0.6870124749943104,no_tremor
3,10158587,0.019,-0.2589116893494589,-0.21189905021848995,0.8912252832842935,-2.18361923660797,2.676592185804973,-0.6576202506710637,no_tremor
4,10158592,0.024,-0.2582535666003835,-0.21181973162308598,0.8908294202822994,-2.2645911719689513,2.6639921958406982,-0.6294888290531546,no_tremor
5,10158597,0.029,-0.25751072547994674,-0.21172610489341506,0.8903531026396638,-2.341085923538894,2.6511278134989262,-0.6028266526680508,no_tremor
6,10158602,0.034,-0.2567112207238673,-0.21162087716855146,0.8898057961312494,-2.412666846762189,2.6382394239403704,-0.5778434814633395,no_tremor
7,10158607,0.039,-0.25588013505022944,-0.2115067922375369,0.8891974045585216,-2.478914713025452,2.625559291587172,-0.5547486350348558,no_tremor
8,10158612,0.044,-0.25503792449519735,-0.21138633094227538,0.8885369041854184,-2.5394311246977543,2.613308495010593,-0.533749092166287,no_tremor
9,10158617,0.049,-0.2542005968174682,-0.21126163218764457,0.8878319863674521,-2.593841986363832,2.601694235475571,-0.5150474502272075,no_tremor
10,10158622,0.054,-0.2533805345240479,-0.211134515147441,0.8870891700041202,-2.6418009790659354,2.5909075214963893,-0.49883974914253776,no_tremor
11,10158636,0.068,-0.2525873738950131,-0.21100653317902746,0.8863140639433736,-2.6829929769440413,2.5811212157751715,-0.4853131684082346,no_tremor
12,10158641,0.073,-0.251828726491121,-0.21087902806996,0.8855116314322399,-2.7171373423503504,2.572488421881287,-0.4746436115122291,no_tremor
13,10158646,0.078,-0.2511107065900613,-0.21075317408978567,0.884686404767046,-2.7439910363600695,2.5651411854723767,-0.4669932003481307,no_tremor
14,10158651,0.083,-0.2504382928304621,-0.21063001057051875,0.8838426419959043,-2.763351486068703,2.5591894873667966,-0.4625077121790225,no_tremor
15,10158656,0.088,-0.24981556651760345,-0.21051046497571316,0.8829844335453838,-2.77505915673211,2.554720511530635,-0.4613140019498024,no_tremor
16,10158665,0.097,-0.24924586463557435,-0.21039536902714162,0.882115770281095,-2.7789997837680707,2.551798178439132,-0.46351746151803686,no_tremor
17,10158691,0.123,-0.24873187660290055,-0.2102854701204751,0.8812405834962529,-2.77510622553929,2.5504629424309453,-0.46919957360983117,no_tremor
18,10158695,0.127,-0.24827570532809826,-0.21018143970267306,0.880362765062495,-2.763359902452502,2.5507318602978097,-0.4784156220739484,no_tremor
19,10158700,0.132,-0.24787890653466932,-0.21008387977128018,0.8794861737767585,-2.743791791960858,2.552598947095978,-0.49119262185032087,no_tremor
20,10158715,0.147,-0.2475425156201276,-0.20999332825982842,0.8786146321788286,-2.7164829538040394,2.556035842868517,-0.5075275320561327,no_tremor
21,10158719,0.151,-0.24726706809249993,-0.20991026379075825,0.8777519168211735,-2.681564566376537,2.5609928181032307,-0.5273858132943375,no_tremor
22,10158724,0.156,-0.24705261747026416,-0.209835110084051,0.8769017440611071,-2.639217463467398,2.5674001429365507,-0.5507003853673675,no_tremor
23,10158729,0.161,-0.2468987531011107,-0.20976824018201382,0.8760677528173776,-2.589671169408728,2.575169833128532,-0.5773710340176226,no_tremor
24,10158734,0.166,-0.24680461940739148,-0.20970998056889506,0.8752534853076902,-2.5332024383849197,2.584197765495134,-0.6072643054357373,no_tremor
25,10158739,0.171,-0.24676893743336814,-0.2096606152133252,0.8744623664998515,-2.4701333099271503,2.594366130263888,-0.6402139156638943,no_tremor
26,10158744,0.176,-0.24679002913888104,-0.209620389530788,0.8736976828240258,-2.4008286982286604,2.605546161939415,-0.676021689160783,no_tremor
27,10158748,0.18,-0.24686584458280206,-0.20958951424426742,0.8729625605767644,-2.3256935386436353,2.6176010674752024,-0.7144590270276041,no_tremor
28,10158753,0.185,-0.24699399192169774,-0.20956816910823126,0.8722599443777312,-2.2451695204337514,2.6303890537967747,-0.755268891433189,no_tremor
29,10158758,0.19,-0.24717176998677676,-0.20955650645062535,0.8715925760021686,-2.1597314397308227,2.643766347848384,-0.7981682796759462,no_tremor
30,10158763,0.195,-0.24739620307957955,-0.20955465447774674,0.8709629738949791,-2.0698832105952545,2.6575901018885895,-0.8428511497007626,no_tremor
31,10158768,0.2,-0.24766407753570616,-0.2095627202773943,0.8703734136673713,-1.9761535759474604,2.6717210841107306,-0.8889917487188983,no_tremor
32,10158773,0.205,-0.2479719795425058,-0.20958079244737585,0.869825909877604,-1.8790915651631912,2.6860260682016137,-0.9362482877607031,no_tremor
33,10158777,0.209,-0.2483163336600059,-0.20960894327084617,0.8693221993980763,-1.7792617511182003,2.700379853115609,-0.9842668975847838,no_tremor
34,10158787,0.219,-0.24869344148442796,-0.20964723035883995,0.868863726667629,-1.6772393651542905,2.71466686448736,-1.032685795282564,no_tremor
35,10158813,0.245,-0.24909951990996113,-0.2096956976851892,0.8684516311175152,-1.5736053326950454,2.728782310708086,-1.0811395859676045,no_tremor
36,10158817,0.249,-0.2495307384846531,-0.20975437595049512,0.8680867370401936,-1.4689412947761693,2.7426328885130666,-1.1292636202838642,no_tremor
37,10158822,0.254,-0.24998325541497093,-0.20982328222960925,0.8677695461409718,-1.3638246816090676,2.756137053036088,-1.1766983267173174,no_tremor
38,10158827,0.259,-0.2504532518426799,-0.2099024188796834,0.8675002329738842,-1.2588239032289443,2.769224883865617,-1.2230934385537449,no_tremor
39,10158832,0.264,-0.2509369640885134,-0.20999177171109623,0.8672786434169489,-1.1544937188482463,2.7818375909723563,-1.2681120391214402,no_tremor
40,10158837,0.269,-0.25143071362332914,-0.21009130744948976,0.8671042962911583,-1.051370840587573,2.793926712738133,-1.3114343553937549,no_tremor
41,10158842,0.274,-0.2519309345862643,-0.21020097054258438,0.8669763881753427,-0.9499698193615799,2.8054530632489327,-1.352761238337221,no_tremor
42,10158847,0.279,-0.2524341987205502,-0.21032067938996718,0.8668938014176952,-0.8507792521565696,2.816385487932883,-1.3918172777216813,no_tremor
43,10158851,0.283,-0.25293723764191695,-0.21045032209762238,0.8668551152955314,-0.7542583420949431,2.826699485784223,-1.4283535087329047,no_tremor
44,10158861,0.293,-0.2534369623929674,-0.21058975188159126,0.8668586202282318,-0.6608338360774724,2.836375753183153,-1.4621496771798494,no_tremor
45,10158866,0.298,-0.25393048027060083,-0.21073878226656748,0.8669023349043021,-0.5708973590219694,2.845398699513848,-1.4930160393341803,no_tremor
46,10158871,0.303,-0.2544151089435341,-0.2108971822447518,0.8669840261421009,-0.48480315812013275,2.853754979545092,-1.5207946816973938,no_tremor
47,10158876,0.308,-0.2548883879040963,-0.2110646715767164,0.8671012312652224,-0.4028662649548225,2.8614320827076662,-1.5453603551905626,no_tremor
48,10158880,0.312,-0.2553480873234939,-0.2112409164279207,0.8672512827381488,-0.32536107810899995,2.8684170151283235,-1.5666208269298174,no_tremor
49,10158885,0.317,-0.25579221440317107,-0.21142552554056027,0.8674313347759027,-0.25252036430225977,2.8746951063687733,-1.584516760555696,no_tremor
50,10158890,0.322,-0.25621901733707725,-0.21161804713961985,0.8676383916132241,-0.1845346719850776,2.88024896917438,-1.5990211431589938,no_tremor
51,10158895,0.327,-0.25662698702082387,-0.21181796676368794,0.8678693370942838,-0.12155214764212259,2.8850576370149494,-1.6101382833912976,no_tremor
52,10158900,0.332,-0.25701485666394625,-0.21202470619501423,0.8681209652230462,-0.06367874201938634,2.8890959002984076,-1.617902411269288,no_tremor
53,10158905,0.337,-0.2573815994805717,-0.21223762363969267,0.8683900112968866,-0.010978791013342029,2.8923338572830954,-1.6223759153457828,no_tremor
54,10158909,0.341,-0.2577264246511174,-0.2124560152784248,0.8686731832318199,0.036524046688812734,2.894736689831295,-1.6236472574274843,no_tremor
55,10158934,0.366,-0.2580487717621407,-0.21267911827199246,0.8689671926768053,0.07884551656987047,2.8962646678061783,-1.6218286089145304,no_tremor
56,10158939,0.371,-0.258348303941523,-0.21290611526435776,0.869268785507951,0.11603918503720215,2.896873380059507,-1.6170532558020352,no_tremor
57,10158944,0.376,-0.2586248999094545,-0.21313614038129847,0.8695747712934104,0.14819457433956754,2.896514185483346,-1.6094728209579952,no_tremor
58,10158949,0.381,-0.25887864515961423,-0.21336828667491267,0.8698820513302858,0.17543504585425665,2.8951348748603443,-1.599254352341513,no_tremor
59,10158968,0.4,-0.2591098224680389,-0.21360161491559954,0.8701876448795455,0.1979154625138183,2.8926805328778418,-1.5865773247489912,no_tremor
60,10158973,0.405,-0.2593189019004896,-0.21383516358496,0.8704887132647923,0.21581966068575306,2.8890945889224384,-1.5716306010812298,no_tremor
61,10158978,0.41,-0.25950653045627403,-0.2140679598778587,0.8707825815530467,0.22935776048282244,2.8843200442779686,-1.5546093972462418,no_tremor
62,10158983,0.415,-0.2596735214521691,-0.2142990314827502,0.8710667575955995,0.23876334161692025,2.8783008611401133,-1.5357122924825457,no_tremor
63,10158987,0.419,-0.25982084371822384,-0.21452741887914173,0.8713389482691495,0.2442905104661806,2.870983494659458,-1.515138324153577,no_tremor
64,10158992,0.424,-0.2599496106496938,-0.21475218787103653,0.8715970728176008,0.2462108841317259,2.862318542829271,-1.4930842034275085,no_tremor
65,10159002,0.434,-0.26006106913625116,-0.21497244206492994,0.8718392732504389,0.24481051910878776,2.852262480735293,-1.4697416861615205,no_tremor
66,10159007,0.439,-0.2601565883702541,-0.21518733499923062,0.8720639218034038,0.24038681453371938,2.8407794361663115,-1.4452951317506821,no_tremor
67,10159011,0.443,-0.2602376485197429,-0.2153960816379934,0.8722696255113704,0.23324542103241877,2.8278429540793635,-1.4199192813368338,no_tremor
68,10159016,0.448,-0.2603058292389487,-0.2155979689554639,0.8724552279830952,0.22369718513174472,2.8134376894632114,-1.3937772850943326,no_tremor
69,10159021,0.453,-0.260362797979825,-0.2157923653595533,0.8726198085046075,0.21205515650557588,2.797560962906318,-1.3670190057822282,no_tremor
70,10159026,0.458,-0.2604102980629506,-0.21597872873235407,0.8727626786343664,0.19863168224412464,2.780224111112773,-1.3397796219945712,no_tremor
71,10159056,0.488,-0.2604501364656018,-0.21615661290407398,0.8728833764900845,0.18373560992521978,2.761453565699609,-1.3121785494135543,no_tremor
72,10159061,0.493,-0.2604841712893758,-0.21632567242247835,0.8729816589642658,0.1676696198190142,2.7412915977190058,-1.284318692093727,no_tremor
73,10159066,0.498,-0.2605142988801668,-0.21648566553128268,0.8730574921406837,0.15072770544161448,2.7197966729379575,-1.256286029109474,no_tremor
74,10159071,0.503,-0.2605424405903274,-0.21663645532502443,0.873111040212623,0.1331928198431422,2.697043375430322,-1.228149535747438,no_tremor
75,10159076,0.508,-0.2605705291966679,-0.2167780091012685,0.8731426532204037,0.11533470209567387,2.6731218756682473,-1.1999614333394089,no_tremor
76,10159080,0.512,-0.26060049501746935,-0.2169103959803927,0.8731528539270161,0.09740789533201306,2.6481369431078687,-1.171757757558782,no_tremor
77,10159090,0.522,-0.26063425180458166,-0.21703378290628453,0.8731423241359139,0.07964996567056172,2.622206529348186,-1.1435592308448805,no_tremor
78,10159095,0.527,-0.2606736825200193,-0.21714842917635394,0.8731118907255937,0.062279930748112305,2.595459973015962,-1.115372419936671,no_tremor
79,10159100,0.532,-0.26072062513712074,-0.21725467967512752,0.8730625116342806,0.04549690646323883,2.568035898634481,-1.0871911541416854,no_tremor
80,10159105,0.537,-0.2607768586312493,-0.21735295700180501,0.8729952619785788,0.029478979719219537,2.540079896196076,-1.0589981744186572,no_tremor
81,10159110,0.542,-0.2608440893416195,-0.21744375268893013,0.8729113204366821,0.014382312904573065,2.511742074268589,-1.0307669782855193,no_tremor
82,10159114,0.546,-0.26092393789253165,-0.2175276177081316,0.872811955973972,0.0003404828078720695,2.483174577500429,-1.002463821222228,no_tremor
83,10159119,0.551,-0.26101792685853353,-0.21760515245174403,0.8726985149403971,-0.012535946893873594,2.45452915142384,-0.9740498314384484,no_tremor
84,10159129,0.561,-0.2611274693440198,-0.21767699636817667,0.8725724085280198,-0.024159624174810566,2.4259548260117696,-0.9454831916008448,no_tremor
85,10159134,0.566,-0.26125385862443423,-0.21774381741608223,0.8724351005457782,-0.034466386273438,2.397595776345928,-0.9167213389562667,no_tremor
86,10159139,0.571,-0.26139825896533303,-0.21780630148922112,0.8722880954479842,-0.043415026799816,2.369589404940691,-0.8877231352264664,no_tremor
87,10159144,0.576,-0.2615616976999342,-0.21786514195149148,0.8721329265432082,-0.050986863551963184,2.342064676367019,-0.8584509602910755,no_tremor
88,10159148,0.58,-0.2617450586090583,-0.2179210294104586,0.8719711443095881,-0.05718511771344001,2.3151407219115656,-0.8288726886742055,no_tremor
89,10159154,0.586,-0.2619490766134073,-0.2179746418479646,0.8718043047490249,-0.06203411394667072,2.288925721705562,-0.7989635140993478,no_tremor
90,10159178,0.61,-0.2621743337603634,-0.2180266352179042,0.8716339577237125,-0.0655783097207097,2.2635160653464586,-0.7687075936761762,no_tremor
91,10159193,0.625,-0.2624212564685862,-0.21807763461397503,0.8714616352318979,-0.06788116126564661,2.2389957893580723,-0.7380994888422301,no_tremor
92,10159203,0.635,-0.2626901139851254,-0.21812822610431323,0.8712888395946502,-0.06902383295293271,2.215436289002879,-0.7071453846777369,no_tremor
93,10159207,0.639,-0.2629810180108699,-0.21817894932544088,0.8711170315423874,-0.06910375682931558,2.192896300474377,-0.675864072617485,no_tremor
94,10159212,0.644,-0.26329392345736347,-0.21823029092422516,0.8709476182109517,-0.06823304956095362,2.1714221460337106,-0.644287684207938,no_tremor
95,10159217,0.649,-0.2636286303058171,-0.21828267893200504,0.8707819410839046,-0.06653679513925789,2.1510482295021935,-0.612462166085436,no_tremor
96,10159222,0.654,-0.2639847865426968,-0.21833647814773777,0.8706212639504239,-0.06415120347294233,2.1317977634209813,-0.580447489289733,no_tremor
97,10159227,0.659,-0.26436189214331757,-0.21839198659543355,0.8704667609846595,-0.06122165761027143,2.113683702540072,-0.5483175890770532,no_tremor
98,10159231,0.663,-0.2647593040657349,-0.21844943310453735,0.8703195050895645,-0.057900665467284194,2.0967098513371774,-0.5161600339634631,no_tremor
99,10159236,0.668,-0.26517624220347397,-0.21850897604024203,0.8701804566829238,-0.05434573475026375,2.080872106136977,-0.4840754250396338,no_tremor
100,10159246,0.678,-0.26561179622928044,-0.2185707031845024,0.8700504531328691,-0.050717191775789615,2.0661597850973634,-0.4521765296415685,no_tremor
101,10159251,0.683,-0.2660649332451621,-0.2186346327388424,0.8699301990724264,-0.047175966465863306,2.052556992149504,-0.4205871577988255,no_tremor
102,10159256,0.688,-0.2665345061386747,-0.2187007153886561,0.8698202578359607,-0.043881367631478894,2.0400439549550575,-0.3894407950654776,no_tremor
103,10159260,0.692,-0.26701926253382846,-0.21876883733801952,0.8697210442638799,-0.0409888751393,2.028598273308388,-0.358879010478052,no_tremor
104,10159270,0.702,-0.2675178542188413,-0.2188388241967585,0.8696328191157572,-0.03864797848302252,2.0181960136184296,-0.32904966288263215,no_tremor
105,10159275,0.707,-0.26802884693295337,-0.2189104455801201,0.8695556853172289,-0.037000093943278654,2.008812586999494,-0.30010493279045297,no_tremor
106,10159300,0.732,-0.26855073040042676,-0.2189834202678848,0.869489586243992,-0.036176594132126996,2.0004233536482183,-0.2721992108717292,no_tremor
107,10159305,0.737,-0.2690819285110813,-0.21905742176579743,0.8694343062176815,-0.03629698393374258,1.9930039063507743,-0.24548687861348342,no_tremor
108,10159315,0.747,-0.26962080956279727,-0.21913208411884486,0.8693894733525863,-0.037467255677552186,1.986530002846728,-0.22012002104609296,no_tremor
109,10159325,0.757,-0.2701656965020632,-0.21920700784293273,0.8693545648470201,-0.039778453698178326,1.9809771403805554,-0.19624611471396014,no_tremor
110,10159329,0.761,-0.2707148771233904,-0.2192817658669022,0.8693289147567618,-0.04330547412419358,1.9763197937750767,-0.17400573570602054,no_tremor
111,10159344,0.776,-0.27126661421601106,-0.2193559094071824,0.8693117242203471,-0.04810612018927215,1.9725303666391092,-0.1535303328192431,no_tremor
112,10159359,0.791,-0.2718191556743775,-0.21942897372886433,0.8693020740299692,-0.054220427291253,1.9695779292382052,-0.13494011003067108,no_tremor
113,10159363,0.795,-0.2723707446140222,-0.21950048377609857,0.8692989393625462,-0.06167026570242079,1.9674268321449215,-0.1183420603392627,no_tremor
114,10159368,0.8,-0.27291962955172144,-0.21956995967845683,0.8693012064097241,-0.07045922207575234,1.966035289552437,-0.10382818978138657,no_tremor
115,10159373,0.805,-0.2734640747139765,-0.21963692215590275,0.869307690579598,-0.08057275392526733,1.9653540200251083,-0.09147396621112197,no_tremor
116,10159388,0.82,-0.2740023705277214,-0.2197008978520527,0.8693171558911548,-0.09197860490448811,1.9653250183951643,-0.08133702230265116,no_tremor
117,10159397,0.829,-0.2745328443222502,-0.21976142462367823,0.869328335146616,-0.10462746347731407,1.9658805152904406,-0.07345613628765778,no_tremor
118,10159423,0.855,-0.2750538712353778,-0.2198180568052531,0.8693399504472991,-0.11845384327975954,1.9669421648680634,-0.06785050750911964,no_tremor
119,10159427,0.859,-0.2755638852760223,-0.21987037045273514,0.8693507336155611,-0.13337715992841626,1.9684204892821937,-0.06451933713302757,no_tremor
120,10159442,0.874,-0.2760613904566451,-0.21991796855287327,0.8693594460988137,-0.14930297647652033,1.9702146003589864,-0.06344171722882233,no_tremor
121,10159451,0.883,-0.27654497187753047,-0.21996048616529637,0.8693648979598856,-0.16612438835634863,1.9722122131812512,-0.06457682394267573,no_tremor
122,10159456,0.888,-0.27701330662245105,-0.2199975954463818,0.8693659655975436,-0.18372351834701325,1.9742899606737174,-0.06786440311610414,no_tremor
123,10159461,0.893,-0.27746517431038276,-0.22002901048804294,0.8693616078871721,-0.2019730925795969,1.9763140114101354,-0.0732255302439296,no_tremor
124,10159466,0.898,-0.27789946713807556,-0.22005449189244194,0.8693508804805765,-0.22073806961483425,1.9781409843576507,-0.08056362181800486,no_tremor
125,10159471,0.903,-0.2783151992416797,-0.2200738509960892,0.8693329480532952,-0.2398772961626188,1.979619144875754,-0.0897656720762246,no_tremor
126,10159475,0.907,-0.2787115152017427,-0.22008695365406622,0.8693070943369007,-0.2592451651451664,1.980589857499432,-0.1007036875711002,no_tremor
127,10159480,0.912,-0.2790876975150895,-0.22009372349690184,0.8692727298225582,-0.27869325452043897,1.9808892641007565,-0.11323629096541209,no_tremor
128,10159485,0.917,-0.27944317286016673,-0.22009414457835064,0.8692293970706938,-0.29807192828764906,1.9803501512933563,-0.12721046430958802,no_tremor
129,10159490,0.922,-0.279777516990381,-0.2200882633412583,0.8691767736098222,-0.31723188384762163,1.9788039682330594,-0.14246340051900164,no_tremor
130,10159494,0.926,-0.2800904581036594,-0.22007618984008365,0.8691146724548687,-0.3360256317913389,1.9760829550085188,-0.15882443002616992,no_tremor
131,10159499,0.931,-0.2803818785563632,-0.22005809817172708,0.8690430403208718,-0.35430889494419343,1.9720223421782648,-0.17611698819928795,no_tremor
132,10159504,0.936,-0.2806518148156595,-0.22003422608045953,0.8689619536508107,-0.37194191333608123,1.9664625829025228,-0.19416058944453837,no_tremor
133,10159509,0.941,-0.2809004555758769,-0.2200048737175275,0.86887161261554,-0.38879064131213986,1.9592515796809715,-0.21277277734919162,no_tremor
134,10159514,0.946,-0.2811281380002272,-0.21997040155120878,0.8687723332786006,-0.4047278229306048,1.950246867697543,-0.23177102614808615,no_tremor
135,10159519,0.951,-0.2813353420882455,-0.21993122743860674,0.8686645381484808,-0.4196339326760125,1.939317716702577,-0.25097457431411363,no_tremor
136,10159548,0.98,-0.28152268320987706,-0.21988782288624453,0.868548745365283,-0.4333979706121558,1.9263471137167214,-0.27020617372366496,no_tremor
137,10159553,0.985,-0.2816909028877082,-0.21984070854241747,0.8684255567872595,-0.4459181042602383,1.9112335896168993,-0.28929373764843813,no_tremor
138,10159563,0.995,-0.28184085794782526,-0.2197904489799077,0.8682956452544076,-0.4571021533511901,1.8938928540971658,-0.30807186956312355,no_tremor
139,10159567,0.999,-0.2819735081958227,-0.2197376468424166,0.8681597413100476,-0.46686791788604837,1.8742592065328227,-0.3263832543005537,no_tremor
140,10159572,1.004,-0.2820899028067157,-0.21968293644126421,0.868018619656248,-0.4751433544075068,1.852286695649418,-0.34407989438726927,no_tremor
141,10159577,1.009,-0.2821911656456356,-0.21962697690018748,0.8678730856057066,-0.4818666096994465,1.827950008219323,-0.3610241774080517,no_tremor
142,10159582,1.014,-0.28227847976016385,-0.2195704449553911,0.8677239617731295,-0.4869859249641361,1.801245075086562,-0.37708976439145114,no_tremor
143,10159587,1.019,-0.2823530713048175,-0.2195140275253846,0.867572075225548,-0.4904594266594853,1.7721893904469654,-0.39216229376324485,no_tremor
144,10159591,1.023,-0.28241619317307376,-0.21945841417041953,0.8674182452851878,-0.4922548223529698,1.7408220467829587,-0.4061398996831369,no_tremor
145,10159596,1.028,-0.2824691086217562,-0.2194042895641936,0.8672632721515948,-0.49234902095679056,1.7072034932305233,-0.4189335470924964,no_tremor
146,10159601,1.033,-0.2825130751759365,-0.21935232610045957,0.8671079264823106,-0.4907276967339889,1.6714150300242734,-0.43046718866347483,no_tremor
147,10159621,1.053,-0.28254932909919644,-0.21930317675383218,0.8669529400436693,-0.48738481588748767,1.633558056491245,-0.4406777517955266,no_tremor
148,10159625,1.057,-0.2825790707038195,-0.219257468307166,0.8667989975152235,-0.4823221433237262,1.5937530947797027,-0.44951496763995474,no_tremor
149,10159630,1.062,-0.2826034507580215,-0.2192157950474782,0.8666467295027961,-0.475548744935471,1.5521386156632144,-0.4569410587671556,no_tremor
150,10159635,1.067,-0.282623558222577,-0.21917871301907607,0.8664967067863124,-0.4670804974772076,1.5088696959714225,-0.4629303063896953,no_tremor
151,10159640,1.072,-0.28264040951724917,-0.21914673490732073,0.8663494358000154,-0.4569396144924644,1.464116539330733,-0.46746852070828854,no_tremor
152,10159665,1.097,-0.28265493947875897,-0.21912032561047137,0.8662053553155693,-0.44515419374725085,1.4180628927207608,-0.4705524383835798,no_tremor
153,10159670,1.102,-0.28266799412747645,-0.21909989854119166,0.8660648342746544,-0.43175778978891544,1.370904390418395,-0.47218906962952933,no_tremor
154,10159675,1.107,-0.2826803253108923,-0.21908581268380506,0.8659281706991614,-0.4167890142230105,1.322846854013908,-0.4723950147288123,no_tremor
155,10159680,1.112,-0.28269258724025315,-0.21907837041784153,0.8657955915963497,-0.400291165011343,1.2741045726900864,-0.4711957666386417,no_tremor
156,10159684,1.116,-0.2827053348852748,-0.2190778161022209,0.8656672537746889,-0.38231188386955506,1.224898582535577,-0.4686250132323739,no_tremor
157,10159689,1.121,-0.2827190241436891,-0.2190843353974172,0.8655432454929317,-0.3629028381697616,1.1754549581239746,-0.46472394995197025,no_tremor
158,10159695,1.127,-0.28273401366038625,-0.2190980552856756,0.8654235888779297,-0.34211942168888426,1.1260031247090776,-0.4595406116670145,no_tremor
159,10159704,1.136,-0.2827505681372195,-0.21911904473278587,0.8653082430627953,-0.32002046762221015,1.0767741956664711,-0.45312923145258693,no_tremor
160,10159714,1.146,-0.2827688629502836,-0.2191473159201463,0.865197108013469,-0.29666796729882783,1.0279993374954202,-0.4455496331933286,no_tremor
161,10159724,1.156,-0.28278898987686435,-0.2191828259639843,0.8650900290261594,-0.27212678869642776,0.9799081640343739,-0.43686666350602854,no_tremor
162,10159728,1.16,-0.28281096372877446,-0.21922547903075712,0.8649868018883442,-0.2464643902574402,0.9327271626105187,-0.42714966602144516,no_tremor
163,10159738,1.17,-0.28283472969141105,-0.21927512875496,0.8648871787004112,-0.2197505278333814,0.8866781568511354,-0.4164719976447149,no_tremor
164,10159743,1.175,-0.28286017117711393,-0.2193315808684319,0.8647908743529403,-0.19205695553620897,0.8419768122800316,-0.4049105822145087,no_tremor
165,10159748,1.18,-0.2828871180155811,-0.21939459595869593,0.8646975736467609,-0.16345712424538167,0.7988311907543704,-0.39254549253422255,no_tremor
166,10159758,1.19,-0.28291535482164837,-0.21946389228718188,0.864606939030753,-0.13402588421950626,0.7574403591621721,-0.37945954827398737,no_tremor
167,10159787,1.219,-0.28294462940046017,-0.21953914861513374,0.8645186189173482,-0.10383920080551395,0.7179930582153292,-0.36573791599375316,no_tremor
168,10159792,1.224,-0.2829746610710733,-0.21962000700395146,0.864432256518356,-0.07297389454402119,0.6806664391963478,-0.3514676988206903,no_tremor
169,10159797,1.229,-0.28300514881096966,-0.21970607557561173,0.8643474991234766,-0.04150741841722003,0.6456248792833216,-0.3367375065098739,no_tremor
170,10159802,1.234,-0.28303577914467354,-0.2197969312356472,0.8642640077195332,-0.009517684845125033,0.6130188883011717,-0.3216370007650787,no_tremor
171,10159806,1.238,-0.28306623371834455,-0.21989212237472147,0.8641814668197881,0.02291704686342413,0.5829841207125693,-0.30625641479486704,no_tremor
172,10159816,1.248,-0.28309619651773316,-0.21999117157512996,0.8640995943411892,0.055718215055795446,0.5556405064060894,-0.29068604935553927,no_tremor
173,10159821,1.253,-0.283125360698678,-0.22009357835640275,0.8640181513360482,0.08880692848575081,0.5310915127518295,-0.2750157497822538,no_tremor
174,10159826,1.258,-0.2831534350074075,-0.2201988220004205,0.8639369513572277,0.12210386743463576,0.5094235488464688,-0.25933437003923837,no_tremor
175,10159830,1.262,-0.2831801497726754,-0.2203063645013946,0.863855869216044,0.15552911723929108,0.49070552101269377,-0.24372923101687155,no_tremor
176,10159840,1.272,-0.28320526245380956,-0.22041565368950858,0.8637748488828008,0.18900194170444956,0.47498854622203507,-0.22828558132580337,no_tremor
177,10159845,1.277,-0.28322856272867275,-0.22052612657839357,0.8636939102829062,0.2224405067132198,0.4623058267138818,-0.21308606959324053,no_tremor
178,10159850,1.282,-0.28324987710378347,-0.2206372129850971,0.8636131547573435,0.2557615667167743,0.452672684616122,-0.1982102375412541,no_tremor
179,10159854,1.286,-0.2832690730256556,-0.22074833946583544,0.863532768984271,0.28888012887852677,0.4460867505041692,-0.1837340428200912,no_tremor
180,10159859,1.291,-0.28328606246792265,-0.22085893360074701,0.8634530271971466,0.3217091114361284,0.44252829543509625,-0.16972941980874157,no_tremor
181,10159864,1.296,-0.2833008049632076,-0.22096842864567048,0.8633742915814784,0.3541590140148033,0.4419606924434516,-0.156263885471367,no_tremor
182,10159869,1.301,-0.28331331004239074,-0.2210762685488647,0.8632970107839255,0.38613761774129707,0.4443309907641266,-0.14340019564145076,no_tremor
183,10159874,1.306,-0.2833236390375524,-0.22118191330633635,0.8632217165206683,0.4175497319342471,0.4495705842560051,-0.1311960545088687,no_tremor
184,10159879,1.311,-0.28333190619930926,-0.22128484460225356,0.863149018323733,0.44829700233774245,0.45759595509089457,-0.11970387680212498,no_tremor
185,10159883,1.315,-0.28333827907557924,-0.22138457165227432,0.8630795965118134,0.47827779392771774,0.4683094753410565,-0.10897059899076188,no_tremor
186,10159909,1.341,-0.28334297809818426,-0.22148063713920463,0.8630141935142159,0.5073871594015721,0.481600252923506,-0.09903753379287426,no_tremor
187,10159914,1.346,-0.28334627532749845,-0.2215726231043739,0.8629536037117234,0.5355169023243119,0.49734501410009807,-0.08994026195992219,no_tremor
188,10159918,1.35,-0.2833484923153078,-0.2216601566375629,0.8628986619859816,0.5625557413504156,0.5154090215279922,-0.0817085564846189,no_tremor
189,10159928,1.36,-0.28334999706402086,-0.2217429151970961,0.862850231189741,0.5883895788974721,0.53564703344294,-0.07436633614379164,no_tremor
190,10159933,1.365,-0.2833512000872326,-0.22182063139283104,0.8628091887648444,0.61290187423408,0.5579043143076868,-0.06793164679551346,no_tremor
191,10159937,1.369,-0.2833525496109651,-0.22189309707850824,0.862776412744387,0.6359741177338766,0.5820177086842104,-0.062416669774119346,no_tremor
192,10159942,1.374,-0.2833545259929367,-0.22196016662360576,0.862752767380839,0.6574864009063849,0.6078167877894758,-0.05782775718568092,no_tremor
193,10159947,1.379,-0.28335763547417936,-0.2220217592644502,0.8627390886432951,0.677318076144883,0.6351250731948437,-0.054165494141547234,no_tremor
194,10159952,1.384,-0.2833624034090078,-0.22207786046606415,0.8627361698240054,0.6953485004365608,0.6637613361619088,-0.051424788100280644,no_tremor
195,10159957,1.389,-0.28336936714266214,-0.2221285222571141,0.8627447474863257,0.7114578576448545,0.6935409655570782,-0.04959498542655674,no_tremor
196,10159966,1.398,-0.28337906871896945,-0.22217386252827548,0.8627654879727197,0.7255280537790155,0.7242773926629512,-0.048660014888191126,no_tremor
197,10159971,1.403,-0.28339204760207587,-0.2222140633080512,0.8627989746723795,0.7374436787903904,0.7557835573614132,-0.048598557290917374,no_tremor
198,10159976,1.408,-0.2834088335866068,-0.22224936804899786,0.8628456962240506,0.7470930271375853,0.7878733968854666,-0.04938424044204911,no_tremor
199,10159981,1.413,-0.28342994005055816,-0.22228007797156593,0.8629060358021896,0.7543691682099428,0.8203633356563736,-0.0509858598248826,no_tremor
200,10159986,1.418,-0.283455857677108,-0.22230654752313023,0.8629802616057712,0.7591710572093556,0.8530737528477136,-0.05336762768693292,no_tremor
201,10159990,1.422,-0.28348704873872044,-0.22232917901753016,0.8630685186411701,0.7614046771096217,0.8858304035800001,-0.05648945547432154,no_tremor
202,10160000,1.432,-0.2835239420031365,-0.22234841652696538,0.8631708218656259,0.7609842021175416,0.9184657704772411,-0.06030727501002847,no_tremor
203,10160005,1.437,-0.2835669282895786,-0.2223647391045783,0.86328705073741,0.75783317230899,0.9508203249500945,-0.06477340181152447,no_tremor
204,10160035,1.467,-0.28361635667770135,-0.22237865342317648,0.8634169452039588,0.7518856681251773,0.9827436817611345,-0.06983694053512404,no_tremor
205,10160040,1.472,-0.2836725313538276,-0.22239068592335717,0.8635601031502008,0.7430874723894767,1.0140956354186463,-0.07544422973499038,no_tremor
206,10160044,1.476,-0.28373570906999007,-0.22240137457233145,0.8637159793252019,0.7313972062116485,1.0447470715670115,-0.08153932207870287,no_tremor
207,10160049,1.481,-0.2838060971905966,-0.2224112603423246,0.8638838857639597,0.7167874234547056,1.0745807495256838,-0.08806449628395457,no_tremor
208,10160059,1.491,-0.2838838523065051,-0.22242087852407158,0.8640629937200078,0.699245646473009,1.1034919528030052,-0.09496079700217218,no_tremor
209,10160064,1.496,-0.283969079403114,-0.22243074999655899,0.8642523371213721,0.6787753236757825,1.1313890031449714,-0.10216859792899587,no_tremor
210,10160068,1.5,-0.28406183157381193,-0.22244137257900534,0.864450817556371,0.6553966874320176,1.15819363152336,-0.1096281816959888,no_tremor
211,10160087,1.519,-0.2841621102697153,-0.22245321259535708,0.8646572107865687,0.629147489824076,1.183841197572186,-0.11728032821650909,no_tremor
212,10160092,1.524,-0.28426986606963156,-0.2224666967853296,0.8648701747719023,0.6000835947008116,1.20828074839542,-0.12506690179025234,no_tremor
213,10160097,1.529,-0.2843849999415343,-0.222482204698924,0.8650882591776493,0.568279407247055,1.2314749091749337,-0.1329314267602787,no_tremor
214,10160102,1.534,-0.2845073649515602,-0.2225000617127085,0.8653099163144925,0.5338281258165442,1.2533996017099338,-0.14081964186176166,no_tremor
215,10160107,1.539,-0.28463676836248486,-0.22252053280514297,0.8655335134416579,0.496841804346154,1.2740435922261533,-0.14868002438297664,no_tremor
216,10160111,1.543,-0.28477297405389124,-0.22254381722420555,0.8657573463393932,0.45745121738561173,1.2934078755504907,-0.15646427631728443,no_tremor
217,10160116,1.548,-0.28491570519242265,-0.2225700441732303,0.8659796540316426,0.4158055236994787,1.3115049084596053,-0.16412776504672016,no_tremor
218,10160121,1.553,-0.28506464708305146,-0.2225992696300416,0.8661986345134863,0.37207172801147725,1.3283577104833353,-0.17162991053951313,no_tremor
219,10160126,1.558,-0.2852194501408432,-0.2226314744000649,0.8664124613116027,0.32643394339761345,1.343998855428418,-0.17893451034759103,no_tremor
220,10160151,1.583,-0.28537973293626673,-0.2226665634860253,0.8666193006806083,0.2790924595197647,1.3584693808090504,-0.18600999394715248,no_tremor
221,10160156,1.588,-0.28554508528397915,-0.2227043668350875,0.8668173292149535,0.23026262502551395,1.371817644554717,-0.19282959962289595,no_tremor
222,10160160,1.592,-0.28571507136266155,-0.22274464149891526,0.8670047516372921,0.18017355607422061,1.384098158387817,-0.19937146996055224,no_tremor
223,10160165,1.597,-0.2858892328688559,-0.22278707521338872,0.8671798185129004,0.12906668632071863,1.3953704251410766,-0.20561866572108362,no_tremor
224,10160170,1.602,-0.2860670922182423,-0.22283129137328722,0.867340843638232,0.07719417586772487,1.405697803589756,-0.2115591018788655,no_tremor
225,10160175,1.607,-0.2862481558122537,-0.22287685534431523,0.8674862208604509,0.024817197297701172,1.4151464199438835,-0.21718541309554465,no_tremor
226,10160180,1.612,-0.2864319173867675,-0.22292328202195338,0.8676144401019943,-0.027795883738265744,1.4237841404131941,-0.2224947581878736,no_tremor
227,10160184,1.616,-0.2866178614540731,-0.22297004451527755,0.8677241023871259,-0.08037141699378725,1.4316796142070334,-0.22748857407905845,no_tremor
228,10160189,1.621,-0.2868054668407774,-0.22301658380537148,0.8678139336934755,-0.13263244956352707,1.4389013912912292,-0.23217228953132732,no_tremor
229,10160194,1.626,-0.2869942103140324,-0.22306231920317357,0.8678827974787354,-0.18430076554278405,1.4455171151648902,-0.23655500792724085,no_tremor
230,10160199,1.631,-0.2871835702776473,-0.22310665941116015,0.8679297057595413,-0.23509896633479668,1.4515927885964433,-0.24064916683855936,no_tremor
231,10160203,1.635,-0.2873730305093702,-0.22314901397757952,0.8679538286451206,-0.2847525724213439,1.4571921093849167,-0.24447018069099635,no_tremor
232,10160213,1.645,-0.2875620839018645,-0.2231888049212696,0.8679545022519684,-0.33299212563554104,1.4623758728852039,-0.24803607216376652,no_tremor
233,10160218,1.65,-0.2877502361634566,-0.22322547829953063,0.867931234947346,-0.37955527049896975,1.4672014376841036,-0.25136709817866354,no_tremor
234,10160223,1.655,-0.287937009431107,-0.22325851549109185,0.867883711888811,-0.42418879403755066,1.4717222504075167,-0.2544853767841734,no_tremor
235,10160227,1.659,-0.28812194574741706,-0.22328744397088662,0.8678117978443429,-0.4666506049031028,1.4759874254503682,-0.25741452108776103,no_tremor
236,10160232,1.664,-0.28830461035553456,-0.22331184736306336,0.8677155382931812,-0.5067116337403695,1.4800413759457292,-0.2601792853867339,no_tremor
237,10160237,1.669,-0.2884845947699019,-0.22333137457316687,0.8675951588215288,-0.5441576370920073,1.4839234938041685,-0.2628052271882716,no_tremor
238,10160242,1.674,-0.2886615195860094,-0.22334574781926983,0.8674510628403143,-0.5787908868239041,1.4876678785844961,-0.26531838732714147,no_tremor
239,10160246,1.678,-0.2888350369978037,-0.2233547694044593,0.8672838276647515,-0.6104317266578984,1.4913031162589996,-0.2677449890343884,no_tremor
240,10160272,1.704,-0.28900483299642316,-0.22335832709893025,0.8670941990081159,-0.6389199775858495,1.4948521091366236,-0.27011115565242905,no_tremor
241,10160281,1.713,-0.2891706292278928,-0.22335639802847762,0.86688308395544,-0.6641161749483443,1.4983319575604268,-0.27244264588670053,no_tremor
242,10160295,1.727,-0.2893321844897697,-0.22334905099687358,0.8666515424968678,-0.6859026214784626,1.501753892790887,-0.2747646052055295,no_tremor
243,10160300,1.732,-0.2894892958470791,-0.2233364472017622,0.8664007777145782,-0.7041842422127675,1.5051232588323376,-0.2771013323592172,no_tremor
244,10160310,1.742,-0.28964179934649903,-0.22331883933631377,0.8661321247302057,-0.7188892288557701,1.508439539172735,-0.27947606089973615,no_tremor
245,10160320,1.752,-0.28978957030599845,-0.22329656910073978,0.8658470385301857,-0.729969463325308,1.5116964229913192,-0.28191075667033155,no_tremor
246,10160330,1.762,-0.2899325231571242,-0.2232700631778604,0.8655470807938568,-0.7374007129553622,1.5148819045960418,-0.2844259330564681,no_tremor
247,10160334,1.766,-0.290070610820769,-0.2232398277547284,0.8652339058541195,-0.7411825928210342,1.517978409701562,-0.28704048613759664,no_tremor
248,10160339,1.771,-0.29020382360534935,-0.22320644169780174,0.8649092459245711,-0.7413382935246677,1.520962942746236,-0.2897715517731264,no_tremor
249,10160344,1.776,-0.29033218762836366,-0.22317054851235904,0.8645748957321311,-0.737914075724384,1.5238072508416864,-0.29263438615914705,no_tremor
250,10160349,1.781,-0.2904557627767637,-0.22313284723766844,0.8642326967015795,-0.7309785360583083,1.5264780019843809,-0.2956422705895424,no_tremor
251,10160358,1.79,-0.2905746402365994,-0.2230940824476149,0.8638845208485835,-0.7206216529574921,1.5289369775245798,-0.2988064401874084,no_tremor
252,10160363,1.795,-0.2906889396364091,-0.22305503354172052,0.8635322545502179,-0.7069536250470675,1.5311412811617195,-0.30213603532280187,no_tremor
253,10160368,1.8,-0.29079880586074924,-0.22301650352330066,0.8631777823754291,-0.6901035194113169,1.533043568481902,-0.3056380732656236,no_tremor
254,10160393,1.825,-0.2909044055994724,-0.22297930746925398,0.8628229711704547,-0.6702177517886196,1.5345923022578065,-0.3093174363377387,no_tremor
255,10160398,1.83,-0.29100592370469314,-0.2229442608989607,0.862469654603483,-0.6474584252807456,1.5357320397232594,-0.3131768716152373,no_tremor
256,10160402,1.834,-0.2911035594309756,-0.22291216824720547,0.8621196183758958,-0.6220015578117901,1.53640375875239,-0.3172169964666271,no_tremor
257,10160407,1.839,-0.29119752263553594,-0.22288381163737783,0.8617745863011695,-0.5940352308196322,1.5365452298607607,-0.32143630434607035,no_tremor
258,10160417,1.849,-0.2912880300145907,-0.22285994013646088,0.8614362074348321,-0.5637576920363803,1.5360914401736503,-0.3258311666664117,no_tremor
259,10160421,1.853,-0.2913753014497363,-0.22284125965353838,0.861106044410022,-0.5313754434099011,1.534975074517882,-0.33039582933998624,no_tremor
260,10160426,1.858,-0.2914595565346458,-0.2228284236206131,0.8607855630957882,-0.4971013414540192,1.5331270580235303,-0.3351224062018458,no_tremor
261,10160431,1.863,-0.291541011347605,-0.2228220245705736,0.8604761236530755,-0.4611527326812194,1.5304771639943135,-0.34000087499268505,no_tremor
262,10160440,1.872,-0.2916198755296549,-0.22282258670395555,0.8601789730201083,-0.4237496428216259,1.52695468989571,-0.3450190840322807,no_tremor
263,10160450,1.882,-0.2916963497215009,-0.22283055951487185,0.8598952388178275,-0.38511303606512276,1.5224892027351293,-0.35016277912473665,no_tremor
264,10160455,1.887,-0.29177062340492205,-0.2228463125276878,0.8596259246298308,-0.3454631589906682,1.5170113528516211,-0.355415661026403,no_tremor
265,10160465,1.897,-0.2918428731859985,-0.22287013117975973,0.8593719065822042,-0.30501798198828783,1.510453752476161,-0.3607594840175784,no_tremor
266,10160470,1.902,-0.29191326154769465,-0.2229022138714393,0.8591339311284851,-0.263991748254951,1.5027519126091975,-0.36617420523855804,no_tremor
267,10160474,1.906,-0.2919819360876468,-0.22294267019163208,0.8589126139346129,-0.2225936372256278,1.4938452288294122,-0.3716381920507446,no_tremor
268,10160484,1.916,-0.2920490292429152,-0.2229915203141445,0.858708439757792,-0.18102654640506127,1.4836780034652985,-0.3771284909532328,no_tremor
269,10160489,1.921,-0.2921146584867364,-0.22304869554552062,0.8585217632204536,-0.13948599347734694,1.4722004878790667,-0.3826211571190228,no_tremor
270,10160514,1.946,-0.29217892696314496,-0.22311403998823448,0.8583528103942956,-0.09815913902653556,1.459369924285126,-0.3880916389077783,no_tremor
271,10160524,1.956,-0.292241924504548,-0.22318731326404065,0.8582016811279117,-0.05722392865566158,1.4451515619492088,-0.39351520708007864,no_tremor
272,10160529,1.961,-0.2923037289565938,-0.2232681942222126,0.8580683520728916,-0.01684835175606788,1.4295196189260553,-0.3988674142642665,no_tremor
273,10160533,1.965,-0.2923644077165755,-0.22335628553852105,0.8579526803852523,0.022810186636294767,1.4124581591151413,-0.40412456698099375,no_tremor
274,10160538,1.97,-0.2924240193790012,-0.22345111909555784,0.8578544080993211,0.061605383957366165,1.393961856269823,-0.4092641905397088,no_tremor
275,10160543,1.975,-0.2924826153769246,-0.2235521620249746,0.8577731671877256,0.0994024497893117,1.374036621711656,-0.4142654665120406,no_tremor
276,10160548,1.98,-0.29254024151088487,-0.22365882328771908,0.8577084853325931,0.13607840732991958,1.3527000800521454,-0.4191096232995353,no_tremor
277,10160558,1.99,-0.2925969392685509,-0.22377046066898232,0.8576597924383722,0.171522286496126,1.3299818856544185,-0.4237802624647332,no_tremor
278,10160562,1.994,-0.2926527468565984,-0.22388638806972036,0.8576264279149821,0.2056352090483829,1.305923879930337,-0.4282636067201705,no_tremor
279,10160567,1.999,-0.2927076998907865,-0.2240058829857574,0.857607648750492,0.23833036722167225,1.280580094305029,-0.43254865944663257,no_tremor
280,10160572,2.004,-0.29276183171897313,-0.2241281940780733,0.857602638374719,0.2695328988306491,1.254016605323581,-0.43662727003203494,no_tremor
281,10160581,2.013,-0.2928151733827861,-0.22425254875323683,0.8576105162891149,0.29917966381023864,1.2263112475369102,-0.4404941038645622,no_tremor
282,10160591,2.023,-0.29286775325438863,-0.22437816069016428,0.8576303484051218,0.32721892967186755,1.1975531876352739,-0.4441465202343292,no_tremor
283,10160596,2.028,-0.2929195964125614,-0.22450423726727375,0.8576611579950407,0.3536099759540947,1.1678423610108393,-0.44758436561820336,no_tremor
284,10160600,2.032,-0.29297072384435285,-0.2246299868611685,0.8577019371198125,0.378322629771197,1.1372887705610222,-0.4508096937910643,no_tremor
285,10160605,2.037,-0.2930211515723525,-0.22475462600244603,0.8577516583610666,0.4013367457101257,1.1060116477086854,-0.4538264276734447,no_tremor
286,10160610,2.042,-0.2930708898118488,-0.2248773863842691,0.8578092866541487,0.4226416437683845,1.074138477326022,-0.45663998033626757,no_tremor
287,10160636,2.068,-0.29311994225692184,-0.22499752172337423,0.8578737909970213,0.4422355190754173,1.0418038911407617,-0.45925685382807546,no_tremor
288,10160650,2.082,-0.2931683055813378,-0.225114314470117,0.857944155798154,0.4601248369086126,1.0091484379206168,-0.4616842346542916,no_tremor
289,10160655,2.087,-0.2932159692212945,-0.22522708235353728,0.8580193916256905,0.4763237257328032,0.9763172428899973,-0.4639296042288858,no_tremor
290,10160660,2.092,-0.29326291548536837,-0.22533518472991773,0.8580985451315393,0.4908533791388534,0.9434585729078208,-0.46600038137647676,no_tremor
291,10160665,2.097,-0.29330912001498866,-0.22543802868098706,0.8581807079482214,0.503741474436834,0.9107223276173655,-0.46790361152804144,no_tremor
292,10160669,2.101,-0.2933545525979903,-0.2255350747840692,0.8582650243921514,0.5150216119064703,0.8782584801091678,-0.4696457137143445,no_tremor
293,10160680,2.112,-0.293399178318714,-0.22562584245471107,0.8583506978513198,0.5247327755121836,0.8462154934377603,-0.47123229276964185,no_tremor
294,10160689,2.121,-0.2934429590105277,-0.22570991474575272,0.8584369957840932,0.5329188141183729,0.8147387409945483,-0.4726680211740836,no_tremor
295,10160699,2.131,-0.2934858549603075,-0.2257869424778381,0.8585232533051419,0.5396279418332628,0.7839689589568624,-0.473956592590885,no_tremor
296,10160704,2.136,-0.29352782679942874,-0.22585664757666069,0.8586088753809124,0.544912256358476,0.7540407582175055,-0.4751007466857559,no_tremor
297,10160709,2.141,-0.2935688375027358,-0.22591882550250045,0.8586933376975859,0.5488272745950376,0.7250812217567273,-0.4761023618035459,no_tremor
298,10160714,2.146,-0.29360885440661816,-0.22597334667724808,0.8587761862969473,0.5514314853487522,0.6972086110967868,-0.4769626086534205,no_tremor
299,10160719,2.151,-0.2936478511506261,-0.22602015684125923,0.8588570360990709,0.5527859201684,0.6705312019007162,-0.4776821547848544,no_tremor
300,10160723,2.155,-0.2936858094447358,-0.226059276304403,0.858935568445508,0.552953745122972,0.6451462643885216,-0.47826140682281226,no_tremor
301,10160729,2.161,-0.2937227205669013,-0.2260907980898897,0.8590115278037321,0.5519998779649479,0.6211392002090752,-0.47870077556743046,no_tremor
302,10160733,2.165,-0.2937585865032052,-0.22611488500364862,0.8590847177742564,0.5499906357648957,0.5985828443880582,-0.4790009483975705,no_tremor
303,10160759,2.191,-0.29379342065589376,-0.2261317656945371,0.8591549965373343,0.5469934175663002,0.5775369384243736,-0.4791631539683526,no_tremor
304,10160769,2.201,-0.2938272480628529,-0.22614172980025712,0.859222271867923,0.5430764253531528,0.5580477775536511,-0.4791894056866154,no_tremor
305,10160773,2.205,-0.29386010509521715,-0.22614512229932648,0.8592864958374417,0.5383084249034226,0.5401480312711354,-0.47908271246415757,no_tremor
306,10160783,2.215,-0.2938920386264682,-0.22614233720934043,0.8593476593110331,0.5327585459275027,0.5238567316629016,-0.4788472475268444,no_tremor
307,10160788,2.22,-0.2939231046941984,-0.22613381078460318,0.8594057863415652,0.5264961186719121,0.509179419473077,-0.47848846860173194,no_tremor
308,10160792,2.224,-0.29395336670186434,-0.22612001437115678,0.8594609285574063,0.5195905425394558,0.496108433978223,-0.47801318555575356,no_tremor
309,10160802,2.234,-0.29398289323002996,-0.22610144707437446,0.8595131596396357,0.5121111812950495,0.4846233306080397,-0.4774295740939572,no_tremor
310,10160807,2.239,-0.2940117555436904,-0.22607862838453144,0.8595625699844903,0.5041272785574956,0.4746914104070396,-0.47674713600212487,no_tremor
311,10160816,2.248,-0.2940400248942562,-0.22605209089058806,0.8596092616469004,0.49570788598149884,0.46626834785562976,-0.4759766077636557,no_tremor
312,10160826,2.258,-0.2940677697223218,-0.22602237319369034,0.8596533436593901,0.4869217945587184,0.45929890776002796,-0.4751298206991546,no_tremor
313,10160831,2.263,-0.2940950528712073,-0.22599001311178646,0.8596949278160039,0.4778374570659276,0.4537177468222821,-0.474219517216684,no_tremor
314,10160836,2.268,-0.29412192892194516,-0.22595554124758646,0.8597341250021585,0.46852288782563223,0.44945029953643123,-0.4732591290109565,no_tremor
315,10160841,2.273,-0.2941484417579324,-0.22591947497589074,0.8597710421378107,0.4590455257661209,0.446413749810084,-0.4722625240307761,no_tremor
316,10160850,2.282,-0.29417462246156606,-0.22588231289429608,0.8598057797832471,0.4494720486354965,0.44451808883085636,-0.47124373023054245,no_tremor
317,10160855,2.287,-0.29420048763546136,-0.22584452977361402,0.8598384304349443,0.4398681295609527,0.4436672568624206,-0.4702166459116674,no_tremor
318,10160880,2.312,-0.2942260382270852,-0.22580657204032917,0.8598690775146228,0.43029813115910953,0.44376036263503427,-0.46919474829814406,no_tremor
319,10160885,2.317,-0.2942512589178114,-0.22576885382189849,0.8598977950293573,0.420824736548537,0.44469296923524015,-0.4681908126978894,no_tremor
320,10160890,2.322,-0.2942761181158795,-0.2257317535851244,0.859924647856199,0.4115085204439811,0.4463584305305837,-0.46721665354043945,no_tremor
321,10160899,2.331,-0.29430056856838155,-0.22569561139651403,0.8599496925829837,0.40240746662522864,0.44864925818832685,-0.4662828962445212,no_tremor
322,10160904,2.336,-0.29432454858159635,-0.22566072683001523,0.8599729788191203,0.3935764404756515,0.4514584969676491,-0.46539878629256465,no_tremor
323,10160909,2.341,-0.29434798381343114,-0.22562735754107216,0.8599945508765613,0.38506662756388466,0.45468108511208755,-0.46457203978951706,no_tremor
324,10160914,2.346,-0.2943707895781591,-0.22559571851666027,0.8600144497114272,0.3769249520222822,0.458215176833089,-0.46380873827445207,no_tremor
325,10160923,2.355,-0.2943928735835565,-0.22556598199946057,0.8600327150103612,0.3691934916592905,0.4619634046757482,-0.463113269426855,no_tremor
326,10160928,2.36,-0.29441413900488156,-0.22553827807148458,0.8600493873023803,0.36190890959145916,0.4658340609159407,-0.4624883143924403,no_tremor
327,10160933,2.365,-0.29443448778922215,-0.2255126958692419,0.8600645099770502,0.35510192407446584,0.46974217903895443,-0.4619348816462038,no_tremor
328,10160942,2.374,-0.29445382407741455,-0.2254892853899709,0.8600781310940679,0.3487968389280608,0.4736104984974833,-0.46145238638989433,no_tremor
329,10160947,2.379,-0.2944720576285017,-0.2254680598374041,0.8600903048787962,0.34301115640057234,0.47737029769293887,-0.4610387731597494,no_tremor
330,10160952,2.384,-0.2944891071327925,-0.22544899844656513,0.8601010928136842,0.3377552925713186,0.48096208083653935,-0.4606906776080583,no_tremor
331,10160957,2.389,-0.2945049033031166,-0.22543204972030112,0.8601105642569516,0.3330324128232315,0.4843361039690867,-0.4604036217159949,no_tremor
332,10160962,2.394,-0.2945193916391152,-0.22541713500537716,0.8601187965466554,0.3288384019811908,0.48745272462254396,-0.46017223539341534,no_tremor
333,10160967,2.399,-0.29453253476596225,-0.22540415233251745,0.8601258745787101,0.32516198071807434,0.4902825592711189,-0.4599904965487717,no_tremor
334,10160971,2.403,-0.2945443142567855,-0.22539298044227354,0.8601318898793952,0.3219849771566456,0.49280643341047675,-0.45985198098338725,no_tremor
335,10160976,2.408,-0.2945547318576115,-0.22538348291671007,0.8601369392239523,0.3192827605432174,0.4950151111780816,-0.459750112686427,no_tremor
