sample,t_ms,t_s,ax,ay,az,gx,gy,gz,tremor
0,10123980,0.0,-0.26715450418013853,-0.2373745721763439,0.8617340684213857,-0.25489324584948414,1.2719040624421392,-1.9214071613645838,no_tremor
1,10123985,0.005,-0.2671399647857877,-0.23734525789917515,0.8618224279465027,-0.2245774599535311,1.2737390802884563,-1.847915150896273,no_tremor
2,10123990,0.01,-0.2671204847040405,-0.23730555049331037,0.861943747320587,-0.19505121655103894,1.275592433299486,-1.7756800993460224,no_tremor
3,10123995,0.015,-0.26709599128379724,-0.2372550790773272,0.8621001578579666,-0.16646846238117627,1.2774097574769594,-1.7049756987224152,no_tremor
4,10123999,0.019,-0.2670673827739165,-0.2371955058486038,0.8622875348504981,-0.1389764679458685,1.279132309855003,-1.6360616908759111,no_tremor
5,10124014,0.034,-0.267035968654946,-0.23712945350392164,0.8624985189174998,-0.11271426854540711,1.2806972972371395,-1.5691813509956918,no_tremor
6,10124019,0.039,-0.26700300981834024,-0.23705958088500048,0.8627252656065076,-0.08781118407314396,1.2820382908542745,-1.5045592186976964,no_tremor
7,10124024,0.044,-0.2669695016032427,-0.23698812295683036,0.8629608857661816,-0.06438543989626858,1.283085728913244,-1.442399120696505,no_tremor
8,10124028,0.048,-0.26693612837086944,-0.23691677247167064,0.8631998744259568,-0.042542908499392414,1.283767506404103,-1.382882521361268,no_tremor
9,10124034,0.054,-0.2669032985088857,-0.23684672795554762,0.8634380251791546,-0.022375988882674742,1.2840096486353794,-1.3261672274796112,no_tremor
10,10124038,0.058,-0.2668712024309279,-0.23677879302258184,0.8636721711416693,-0.003962638805532936,1.2837370620500645,-1.2723864623836243,no_tremor
11,10124043,0.063,-0.2668398678500575,-0.2367134734498037,0.8638999182784333,0.012634426302341581,1.2828743534570486,-1.2216483138925334,no_tremor
12,10124048,0.068,-0.26680920459752483,-0.23665105460221308,0.8641194293748382,0.0273683553508471,1.2813467073357117,-1.1740355515011438,no_tremor
13,10124053,0.073,-0.26677903896147553,-0.23659165790447917,0.8643292670698087,0.04020859434770234,1.2790808103607956,-1.1296058011452137,no_tremor
14,10124058,0.078,-0.2667491398868173,-0.23653528041352045,0.8645282865785864,0.05114112289924814,1.276005812345895,-1.0883920602735622,no_tremor
15,10124063,0.083,-0.26671923953982635,-0.2364818223007839,0.864715565205179,0.06016849103129689,1.2720543129045896,-1.0504035312872166,no_tremor
16,10124068,0.088,-0.26668905020928246,-0.23643110625785368,0.8648903573255667,0.0673096562683147,1.2671633628884647,-1.0156267472857348,no_tremor
17,10124072,0.092,-0.2666582788950018,-0.2363828917598992,0.8650520662826711,0.07259962376460752,1.26127546894116,-0.9840269602722035,no_tremor
18,10124077,0.097,-0.26662664041778195,-0.23633688618739557,0.8652002271632657,0.07608889479210504,1.2543395886745112,-0.9555497584664551,no_tremor
19,10124102,0.122,-0.26659386950433145,-0.23629275410842246,0.8653344963696044,0.07784273154088366,1.2463121037833325,-0.9301228763995117,no_tremor
20,10124107,0.127,-0.2665597320375938,-0.23625012553754168,0.8654546452768629,0.07794024951267742,1.237157759137119,-0.9076581593505009,no_tremor
21,10124111,0.131,-0.2665240354885675,-0.23620860366190494,0.86556055620537,0.07647335282977002,1.226850556692088,-0.8880536425187158,no_tremor
22,10124116,0.136,-0.2664866384360833,-0.2361677723133326,0.8656522195600016,0.07354553185160413,1.2153745928161395,-0.8711957050125062,no_tremor
23,10124121,0.141,-0.266447459018126,-0.23612720332983927,0.8657297313982016,0.06927054561077377,1.2027248261954304,-0.8569612594007293,no_tremor
24,10124126,0.146,-0.26640648212903534,-0.23608646386514254,0.8657932909549779,0.06377101310547786,1.1889077618893562,-0.8452199393857838,no_tremor
25,10124131,0.151,-0.26636376517142296,-0.23604512365201966,0.865843197827328,0.05717693740797236,1.1739420362430508,-0.8358362508990376,no_tremor
26,10124136,0.156,-0.26631944218271725,-0.2360027621929273,0.8658798486347964,0.04962418543438988,1.1578588873046143,-0.8286716549789854,no_tremor
27,10124141,0.161,-0.2662737261789706,-0.23595897583121828,0.8659037330488466,0.041252944791348826,1.140702495677553,-0.8235865535108171,no_tremor
28,10124146,0.166,-0.26622690958965073,-0.23591338464359707,0.8659154291354059,0.03220617778990172,1.1225301810856785,-0.8204421508674311,no_tremor
29,10124151,0.171,-0.2661793626943489,-0.2358656390861062,0.8659155979912002,0.02262809158319487,1.1034124403573404,-0.8191021658661479,no_tremor
30,10124156,0.176,-0.2661315300140313,-0.23581542632017982,0.865904977680987,0.012662642291567999,1.0834328132047775,-0.8194343700763322,no_tremor
31,10124161,0.181,-0.2660839246543308,-0.23576247614121856,0.8658843765030056,0.0024520894500621514,1.0626875634373232,-0.8213119311739171,no_tremor
32,10124165,0.185,-0.2660371206452904,-0.23570656642936327,0.8658546656261414,-0.007864385382906977,1.0412851656303235,-0.8246145437456355,no_tremor
33,10124170,0.19,-0.26599174336991016,-0.23564752804062836,0.8658167711557798,-0.018151985256401323,1.0193455909091023,-0.8292293342553573,no_tremor
34,10124180,0.2,-0.2659484582218674,-0.23558524905646305,0.8657716656969229,-0.028281521978595507,0.9969993898648186,-0.8350515316958586,no_tremor
35,10124185,0.205,-0.26590795767995656,-0.23551967831146997,0.8657203594931812,-0.03813055169842144,0.9743865752747495,-0.8419849008509342,no_tremor
36,10124190,0.21,-0.2658709470320872,-0.23545082812292925,0.8656638912287424,-0.047584416292859415,0.9516553125808559,-0.8499419406896604,no_tremor
37,10124195,0.215,-0.26583812902387133,-0.2353787761525446,0.86560331858708,-0.05653718483491298,0.9289604323833242,-0.8588438554864626,no_tremor
38,10124200,0.22,-0.26581018774468357,-0.23530366634094876,0.865539708664603,-0.06489248921700023,0.9064617860731587,-0.8686203104504532,no_tremor
39,10124230,0.25,-0.2657877720965556,-0.2352257088691968,0.8654741283393663,-0.07256424798138454,0.8843224719990864,-0.8792089870116359,no_tremor
40,10124234,0.254,-0.2657714792172767,-0.23514517911859686,0.8654076346942116,-0.07947727264714068,0.862706964185464,-0.8905549555711998,no_tremor
41,10124239,0.259,-0.26576183824669636,-0.2350624156202331,0.865341265590362,-0.08556775126964682,0.8417791781806807,-0.902609885733746,no_tremor
42,10124244,0.264,-0.26575929483157207,-0.2349778170074682,0.8652760304819136,-0.090783604722213,0.8217005093585055,-0.9153311162582917,no_tremor
43,10124249,0.269,-0.26576419675683705,-0.23489183800737043,0.8652129015545463,-0.09508471245779469,0.8026278784963039,-0.9286806093197969,no_tremor
44,10124254,0.274,-0.26577678106939273,-0.23480498452921914,0.8651528052641451,-0.09844300617301148,0.7847118182711438,-0.9426238156543962,no_tremor
45,10124263,0.283,-0.26579716302616363,-0.2347178079290067,0.865096614343876,-0.10084243134174015,0.768094632642393,-0.9571284782715103,no_tremor
46,10124273,0.293,-0.26582532715385654,-0.234630898547338,0.8650451403423823,-0.10227877758410184,0.752908658636302,-0.9721634027623154,no_tremor
47,10124283,0.303,-0.26586112065629314,-0.23454487863350962,0.8649991267515615,-0.10275937938612735,0.7392746565159727,-0.9876972221792665,no_tremor
48,10124292,0.312,-0.26590424934882245,-0.23446039477994954,0.8649592427799255,-0.10230268934354339,0.7273003500909246,-1.0036971841661548,no_tremor
49,10124297,0.317,-0.26595427624051327,-0.2343781099977588,0.864926077826463,-0.10093772742476924,0.7170791348808675,-1.0201279875994658,no_tremor
50,10124302,0.322,-0.2660106228255456,-0.23429869556535532,0.8649001367093869,-0.09870341184704401,0.7086889684874048,-1.0369506956103014,no_tremor
51,10124307,0.327,-0.2660725730867775,-0.2342228227784969,0.8648818357030769,-0.09564777964548804,0.702191454684616,-1.0541217513392827,no_tremor
52,10124311,0.331,-0.2661392801575369,-0.23415115472240805,0.8648714994340847,-0.09182710736843328,0.6976311302455163,-1.0715921217105326,no_tremor
53,10124321,0.341,-0.2662097755326392,-0.23408433817703636,0.8648693586829784,-0.08730494443077987,0.695034961455659,-1.0893065925804957,no_tremor
54,10124352,0.372,-0.2662829806668509,-0.23402299575641006,0.8648755491333644,-0.08215107386750842,0.6944120553834735,-1.1072032355522143,no_tremor
55,10124357,0.377,-0.266357720749196,-0.2339677183741588,0.8648901111032705,-0.07644041780308977,0.6957535885233744,-1.1252130622305558,no_tremor
56,10124366,0.386,-0.26643274039574166,-0.23391905812028274,0.8649129902877383,-0.07025190743466019,0.6990329520301195,-1.1432598758713644,no_tremor
57,10124375,0.395,-0.2665067209632978,-0.23387752162885686,0.8649440395350417,-0.06366733887551007,0.7042061091609645,-1.1612603240507229,no_tremor
58,10124385,0.405,-0.26657829915340653,-0.23384356401119918,0.864983021671883,-0.05677023647865649,0.7112121578909473,-1.1791241499777927,no_tremor
59,10124390,0.41,-0.2666460865515715,-0.23381758342258951,0.8650296133843081,-0.04964474476298742,0.7199740902681179,-1.1967546347455642,no_tremor
60,10124395,0.415,-0.2667086897321725,-0.2337999163220934,0.8650834101501789,-0.042374569581330616,0.7303997391051034,-1.214049218168825,no_tremor
61,10124400,0.42,-0.2667647305557776,-0.23379083347457336,0.8651439322055091,-0.03504198889596609,0.7423829009290366,-1.2309002818262205,no_tremor
62,10124404,0.424,-0.2668128662926315,-0.23379053673230502,0.8652106315109241,-0.027726952869056288,0.755804621268916,-1.2471960744737152,no_tremor
63,10124409,0.429,-0.26685180922298307,-0.23379915662159403,0.8652828996662297,-0.020506291306269603,0.7705346248831744,-1.262821757223274,no_tremor
64,10124414,0.434,-0.2668803453900242,-0.23381675074800695,0.8653600767007523,-0.013453043796346542,0.7864328704296077,-1.277660544009707,no_tremor
65,10124419,0.439,-0.2668973522127843,-0.23384330302260758,0.8654414606447518,-0.006635924433514455,0.8033512070732826,-1.2915949121371066,no_tremor
66,10124438,0.458,-0.2669018147027302,-0.23387872370109358,0.8655263177626956,-0.00011892883351821156,0.8211351097710046,-1.3045078580308558,no_tremor
67,10124443,0.463,-0.26689284006755476,-0.23392285021816592,0.8656138933026329,0.006038913729191282,0.8396254701782158,-1.3162841742118776,no_tremor
68,10124468,0.488,-0.26686967052719074,-0.2339754487913296,0.8657034225882775,0.011783645471007026,0.8586604207568721,-1.3268117245900013,no_tremor
69,10124473,0.493,-0.2668316942088477,-0.2340362167623763,0.8657941422539008,0.017066350005703373,0.8780771702215399,-1.3359826967081443,no_tremor
70,10124483,0.503,-0.26677845402806516,-0.23410478564156126,0.8658853014003675,0.021842999046725705,0.8977138287280788,-1.3436948118882508,no_tremor
71,10124488,0.508,-0.26670965449965456,-0.23418072481858396,0.8659761724377609,0.026074191894793815,0.917411201134959,-1.3498524771190346,no_tremor
72,10124492,0.512,-0.266625166454649,-0.23426354590448473,0.8660660613791639,0.02972480692788943,0.9370145262163577,-1.3543678655895104,no_tremor
73,10124497,0.517,-0.26652502966648567,-0.23435270766753663,0.8661543173618462,0.032763586842289194,0.9563751391052668,-1.357161915781784,no_tremor
74,10124502,0.522,-0.2664094534119436,-0.23444762152251886,0.8662403411945769,0.03516268147600941,0.9753520341713495,-1.3581652416673202,no_tremor
75,10124507,0.527,-0.26627881501068434,-0.23454765752563073,0.866323592759946,0.03689717372641852,0.9938133066404338,-1.3573189483642285,no_tremor
76,10124512,0.532,-0.26613365640262476,-0.23465215081687935,0.8664035971355121,0.03794461474230996,1.011637453554617,-1.3545753483765146,no_tremor
77,10124517,0.537,-0.26597467883582154,-0.23476040843879947,0.8664799493349138,0.03828459328782716,1.028714517700642,-1.3498985733143805,no_tremor
78,10124527,0.547,-0.26580273574995034,-0.23487171644591925,0.8665523176081043,0.03789836069299759,1.0449470615490586,-1.343265075118199,no_tremor
79,10124531,0.551,-0.2656188239525453,-0.23498534720481581,0.866620445277431,0.036768528136884145,1.060250961860904,-1.3346640098266958,no_tremor
80,10124536,0.556,-0.26542407319752764,-0.23510056677160976,0.8666841511224815,0.034878848607824024,1.0745560191169237,-1.3240974963531036,no_tremor
81,10124541,0.561,-0.26521973428868323,-0.23521664222433208,0.8667433283607568,0.032214092231962956,1.0878063788916243,-1.31158074280035,no_tremor
82,10124551,0.571,-0.26500716584504036,-0.23533284882360492,0.8667979423027745,0.028760020007113703,1.0999607645925567,-1.2971420336103814,no_tremor
83,10124560,0.58,-0.2647878198807537,-0.23544847687763776,0.8668480267887239,0.024503456421144414,1.1109925230388684,-1.280822572386081,no_tremor
84,10124590,0.61,-0.26456322636909374,-0.23556283819690224,0.8668936795388044,0.019432455928480242,1.1208894868243937,-1.2626761776650992,no_tremor
85,10124595,0.615,-0.2643349769778922,-0.2356752720395009,0.8669350565699254,0.013536552718280609,1.1296536603555851,-1.2427688322421342,no_tremor
86,10124609,0.629,-0.26410470818077086,-0.23578515046873882,0.8669723658459886,0.006807078860716771,1.137300739152068,-1.221178090663662,no_tremor
87,10124614,0.634,-0.2638740839621797,-0.23589188306725933,0.8670058603358293,-0.0007624665981362976,1.143859473886811,-1.1979923540635427,no_tremor
88,10124619,0.639,-0.2636447783422449,-0.23599492097447164,0.8670358306515012,-0.009176016044761683,1.1493708918891166,-1.1733100261495286,no_tremor
89,10124623,0.643,-0.2634184579485259,-0.23609376023382841,0.8670625974311418,-0.01843451790181926,1.1538873897106645,-1.1472385679745927,no_tremor
90,10124628,0.648,-0.2631967648564849,-0.2361879444530514,0.867086503617634,-0.028535525802328147,1.1574717107286159,-1.1198934711261816,no_tremor
91,10124633,0.653,-0.2629812999101983,-0.23627706679381086,0.8671079067690947,-0.039472809530712055,1.1601958215292552,-1.0913971689296413,no_tremor
92,10124638,0.658,-0.2627736067211273,-0.23636077131803623,0.8671271715215324,-0.05123600271591172,1.162139700484602,-1.0618779041288529,no_tremor
93,10124642,0.662,-0.26257515652684604,-0.23643875372627338,0.8671446623087454,-0.06381029939143149,1.1633900524912864,-1.0314685706194737,no_tremor
94,10124647,0.667,-0.2623873340743115,-0.23651076152943876,0.8671607364301469,-0.0771762085604075,1.1640389659979007,-1.0003055466273503,no_tremor
95,10124657,0.677,-0.26221142467402647,-0.23657659369900708,0.8671757375439275,-0.09130937302557114,1.164182531795755,-0.9685275364159749,no_tremor
96,10124666,0.686,-0.2620486025524714,-0.2366360998421246,0.8671899896509073,-0.10618045590605571,1.163919446042234,-0.9362744361381964,no_tremor
97,10124676,0.696,-0.26189992061038997,-0.23668917894746758,0.8672037916236383,-0.1217550955677217,1.1633496210866563,-0.9036862367953017,no_tremor
98,10124681,0.701,-0.26176630167361425,-0.23673577774515345,0.8672174123257693,-0.1379939273819226,1.1625728264585944,-0.8709019742392793,no_tremor
99,10124710,0.73,-0.26164853130076077,-0.23677588872029678,0.8672310863581366,-0.15485266884548168,1.1616873794639746,-0.8380587333551152,no_tremor
100,10124715,0.735,-0.26154725218830316,-0.23680954781584057,0.8672450104599972,-0.17228226297583907,1.1607889011612178,-0.8052907110229608,no_tremor
101,10124730,0.75,-0.2614629601890692,-0.23683683185717383,0.8672593405854987,-0.1902290733741746,1.159969150058509,-0.7727283402019147,no_tremor
102,10124739,0.759,-0.2613960019369073,-0.23685785572964532,0.8672741896660762,-0.20863512295148737,1.159314943514743,-0.740497475877605,no_tremor
103,10124744,0.764,-0.2613465740501834,-0.23687276934079216,0.8672896260586521,-0.22743836740767595,1.1589071757482496,-0.7087186429915989,no_tremor
104,10124749,0.769,-0.26131472387112875,-0.23688175440172526,0.8673056726677706,-0.24657299460055,1.158819941097004,-0.6775063465688385,no_tremor
105,10124754,0.774,-0.2613003516867689,-0.23688502106601494,0.8673223067183446,-0.26596974192727546,1.1591197710569072,-0.6469684444700665,no_tremor
106,10124759,0.779,-0.26130321436911125,-0.23688280446883025,0.8673394601458516,-0.2855562253406033,1.1598649930356717,-0.6172055831425691,no_tremor
107,10124774,0.794,-0.26132293036598847,-0.23687536121331063,0.8673570205635424,-0.30525727540228587,1.1611052172329406,-0.5883106964239487,no_tremor
108,10124779,0.799,-0.26135898596811075,-0.23686296585460684,0.867374832761992,-0.3249952777934145,1.1628809555970936,-0.5603685669846246,no_tremor
109,10124784,0.804,-0.2614107427714794,-0.23684590743422299,0.867392700695209,-0.34469051757256297,1.165223374004973,-0.533455449663938,no_tremor
110,10124789,0.809,-0.2614774462467425,-0.23682448611779555,0.8674103899094266,-0.3642615276334005,1.1681541763225747,-0.5076387563570661,no_tremor
111,10124808,0.828,-0.2615582353181126,-0.23679900998797543,0.8674276303753103,-0.38362544228833984,1.1716856170975216,-0.4829768035026669,no_tremor
112,10124834,0.854,-0.26165215284436966,-0.23676979204056958,0.8674441196911794,-0.40269835728176806,1.175820638282432,-0.45951862490196754,no_tremor
113,10124844,0.864,-0.26175815688401394,-0.236737147426733,0.8674595266333152,-0.42139569812837774,1.1805531244541243,-0.4373038535518111,no_tremor
114,10124848,0.868,-0.26187513261705664,-0.2367013909771478,0.8674734950384413,-0.43963259924596654,1.1858682702359593,-0.4163626760430887,no_tremor
115,10124853,0.873,-0.2620019047885324,-0.2366628350363163,0.867485648011291,-0.4573242965651505,1.1917430528929482,-0.39671586215944876,no_tremor
116,10124858,0.878,-0.2621372505343374,-0.23662178762691932,0.8674955924547224,-0.4743865359668416,1.198146802416205,-0.37837487106883355,no_tremor
117,10124863,0.883,-0.2622799124483151,-0.23657855095620156,0.8675029239195284,-0.49073599906720516,1.2050418608886049,-0.36134203433544515,no_tremor
118,10124868,0.888,-0.2624286117499404,-0.2365334202689739,0.8675072317655165,-0.5062907469440627,1.2123843224409525,-0.34561081515259706,no_tremor
119,10124887,0.907,-0.26258206141370766,-0.2364866830453794,0.8675081046152782,-0.5209706821997016,1.2201248446786508,-0.3311661428106918,no_tremor
120,10124892,0.912,-0.26273897912394006,-0.23643861853622844,0.8675051360686727,-0.5346980312633405,1.2282095221880938,-0.31798482140686846,no_tremor
121,10124896,0.916,-0.2628980999221024,-0.23638949762436323,0.8674979306311621,-0.5473978521349557,1.2365808126083198,-0.30603601166333705,no_tremor
122,10124906,0.926,-0.263058188418011,-0.23633958299670635,0.8674861097947061,-0.5589985759928497,1.2451785056444864,-0.2952817834696207,no_tremor
123,10124915,0.935,-0.2632180504417966,-0.23628912960761728,0.8674693181975941,-0.5694325916273841,1.2539407250636627,-0.285677733912572,no_tremor
124,10124920,0.94,-0.2633765440199955,-0.23623838540908673,0.8674472297801632,-0.5786368787729391,1.2628049527854441,-0.27717366221803597,no_tremor
125,10124930,0.95,-0.2635325895663368,-0.23618759231645428,0.867419553846756,-0.586553691414496,1.271709062492343,-0.2697142915091404,no_tremor
126,10124954,0.974,-0.2636851791851895,-0.23613698736944105,0.8673860409399484,-0.593131286473367,1.2805923480781534,-0.2632400288977141,no_tremor
127,10124959,0.979,-0.2638333849930311,-0.23608680403769255,0.8673464884304429,-0.5983246876414107,1.2893965303405142,-0.2576877586590529,no_tremor
128,10124974,0.994,-0.26397636637103433,-0.23603727360891458,0.8673007457246423,-0.602096469158027,1.2980667241231743,-0.2529916650804209,no_tremor
129,10124979,0.999,-0.2641133760707988,-0.23598862658788922,0.8672487189916323,-0.6044175406484266,1.3065523479402168,-0.24908408057050938,no_tremor
130,10124988,1.008,-0.26424376510633907,-0.2359410940280195,0.8671903753121369,-0.6052679118640656,1.3148079589573822,-0.24589635154418993,no_tremor
131,10124993,1.013,-0.2643669863791905,-0.23589490871474317,0.8671257461542865,-0.6046374148756644,1.322793997655358,-0.24335971075920804,no_tremor
132,10124998,1.018,-0.2644825969997286,-0.2358503061224803,0.8670549300852236,-0.6025263607851907,1.3304774281700669,-0.24140614124539161,no_tremor
133,10125003,1.023,-0.2645902592858561,-0.23580752507336364,0.8669780946342249,-0.598946108677973,1.337832262292249,-0.23996921482804714,no_tremor
134,10125008,1.028,-0.2646897404392537,-0.235766808036109,0.8668954772324983,-0.5939195265353161,1.3448399576510182,-0.23898488828875633,no_tremor
135,10125013,1.033,-0.26478091091863176,-0.23572840101612946,0.8668073851672167,-0.5874813267431654,1.3514896833807717,-0.2383922423860547,no_tremor
136,10125017,1.037,-0.2648637415481927,-0.23569255300252065,0.8667141945024709,-0.579678261949924,1.3577784488335587,-0.23813415255775372,no_tremor
137,10125022,1.042,-0.26493829941727226,-0.23565951495307086,0.8666163479372511,-0.5705691698392044,1.363711092355168,-0.23815788412252198,no_tremor
138,10125027,1.047,-0.26500474264346763,-0.23562953831430267,0.8665143515898517,-0.5602248576294232,1.3693001283647823,-0.238415608080212,no_tremor
139,10125032,1.052,-0.26506331408621925,-0.23560287308916414,0.8664087707187161,-0.5487278187557124,1.374565452940404,-0.23886483529744204,no_tremor
140,10125037,1.057,-0.2651143341107012,-0.23557976547987922,0.8663002244111585,-0.5361717756083217,1.3795339113500396,-0.23946876676003026,no_tremor
141,10125047,1.067,-0.2651581925130392,-0.23556045514722,0.8661893792930435,-0.5226610442201001,1.3842387350452137,-0.24019655631395073,no_tremor
142,10125052,1.072,-0.2651953397274892,-0.2355451721397051,0.8660769423338049,-0.5083097202142408,1.3887188595005768,-0.24102348090191272,no_tremor
143,10125077,1.097,-0.2652262774445555,-0.23553413355661781,0.8659636528416651,-0.49324069019337335,1.3930181372734833,-0.2419310124508914,no_tremor
144,10125082,1.102,-0.26525154877637463,-0.2355275400170443,0.8658502737632482,-0.47758447825737477,1.3971844629003523,-0.2429067855408787,no_tremor
145,10125086,1.106,-0.2652717281121996,-0.2355255720132926,0.8657375824196611,-0.46147794264493447,1.4012688280435763,-0.2439444557882288,no_tremor
146,10125091,1.111,-0.2652874108123879,-0.23552838623120465,0.8656263608271973,-0.44506284247400746,1.4053243265006705,-0.24504344534622005,no_tremor
147,10125096,1.116,-0.265299202893638,-0.23553611192229007,0.8655173857645108,-0.4284842994335331,1.4094051288291054,-0.246208573767476,no_tremor
148,10125101,1.121,-0.2653077108609786,-0.23554884741355642,0.8654114187585983,-0.41188918394371343,1.413565445177859,-0.24744957446441887,no_tremor
149,10125106,1.126,-0.265313531842827,-0.23556665684049574,0.8653091961681838,-0.39542445926328423,1.4178584928045466,-0.2487804992302154,no_tremor
150,10125111,1.131,-0.265317244183994,-0.2355895671868093,0.8652114195440085,-0.37923551970771935,1.4223354826603143,-0.25021901605635694,no_tremor
151,10125116,1.136,-0.26531939864749504,-0.23561756571084905,0.865118746440141,-0.363464559838785,1.4270446382931834,-0.2517856090956036,no_tremor
152,10125130,1.15,-0.2653205103692122,-0.2356505978331902,0.8650317818381399,-0.3482490091453395,1.4320302603162092,-0.25350269436920797,no_tremor
153,10125135,1.155,-0.2653210516996693,-0.2356885655521443,0.8649510703266797,-0.3337200608474394,1.4373318502103398,-0.2553936708531606,no_tremor
154,10125140,1.16,-0.26532144605424507,-0.23573132644452321,0.86487708915387,-0.3200013155318175,1.4429833076674536,-0.2574819330791088,no_tremor
155,10125154,1.174,-0.2653220628767631,-0.23577869329791767,0.864810242239867,-0.30720755320399956,1.449012215797048,-0.2597898764435196,no_tremor
156,10125159,1.179,-0.2653232138012939,-0.23583043440860674,0.8647508552064632,-0.2954436424345578,1.4554392281513555,-0.26233792859438665,no_tremor
157,10125168,1.188,-0.2653251500731963,-0.23588627456631833,0.8646991714517835,-0.2848035917628014,1.4622775702940265,-0.26514363969564325,no_tremor
158,10125173,1.193,-0.26532806126322533,-0.23594589673343278,0.864655349275596,-0.2753697453490363,1.4695326662585444,-0.2682208615622057,no_tremor
159,10125199,1.219,-0.2653320752784991,-0.23600894441143758,0.8646194600465762,-0.26721212223211915,1.4772018967841578,-0.271579040119168,no_tremor
160,10125204,1.224,-0.2653372596420483,-0.23607502467085723,0.8645914873977005,-0.26038789724221323,1.4852744919623824,-0.27522263703722144,no_tremor
161,10125208,1.228,-0.2653436239799616,-0.23614371180221255,0.8645713274379826,-0.25494102180484657,1.4937315562767708,-0.27915068649066366,no_tremor
162,10125213,1.233,-0.2653511236238937,-0.23621455152548146,0.8645587899744629,-0.2509019838293458,1.502546219631722,-0.28335648470633856,no_tremor
163,10125218,1.238,-0.2653596642093442,-0.23628706567570867,0.8645536007438127,-0.24828770659351534,1.5116839046236323,-0.2878274047023454,no_tremor
164,10125223,1.243,-0.2653691071286228,-0.23636075726498945,0.8645554046552517,-0.24710158636395815,1.5211026984444147,-0.29254482567379136,no_tremor
165,10125237,1.257,-0.2653792756829054,-0.23643511580795207,0.8645637700443733,-0.247333667344188,1.5307538173097,-0.2974841649126542,no_tremor
166,10125242,1.262,-0.26538996177066665,-0.2365096227904676,0.8645781939306109,-0.24896095075970967,1.5405821517840133,-0.30261499974182493,no_tremor
167,10125247,1.267,-0.26540093294996797,-0.23658375716050986,0.8645981082594161,-0.25194783299758583,1.5505268825661096,-0.30790126780726523,no_tremor
168,10125261,1.281,-0.26541193971913307,-0.23665700072638296,0.8646228870937036,-0.2562466662000023,1.5605221581324138,-0.3133015360819789,no_tremor
169,10125266,1.286,-0.26542272287331975,-0.23672884336081235,0.8646518546978226,-0.26179843378945794,1.5704978278725492,-0.31876933162355253,no_tremor
170,10125271,1.291,-0.26543302081179715,-0.23679878792853015,0.8646842944318729,-0.26853353305348016,1.5803802263171194,-0.32425352995449597,no_tremor
171,10125281,1.301,-0.26544257669016197,-0.23686635487788493,0.8647194583457997,-0.27637265702450003,1.5900930050960524,-0.32969879977559646,no_tremor
172,10125285,1.305,-0.2654511453308772,-0.23693108646114136,0.8647565773329624,-0.28522776813109224,1.5995580092197208,-0.3350461058590962,no_tremor
173,10125325,1.345,-0.2654584998223333,-0.23699255057110585,0.8647948716735345,-0.29500315575798125,1.6086961932243913,-0.34023327525730174,no_tremor
174,10125330,1.35,-0.2654644377496875,-0.2370503442014053,0.8648335617712751,-0.3055965682803484,1.6174285706513767,-0.3451956342514763,no_tremor
175,10125334,1.354,-0.26546878700932747,-0.23710409655223408,0.8648718788661034,-0.31690040759217286,1.6256771875362561,-0.34986672330683,no_tremor
176,10125339,1.359,-0.2654714111629989,-0.23715347181112403,0.8649090754935812,-0.32880297182321283,1.633366108032432,-0.3541790941870819,no_tremor
177,10125344,1.364,-0.2654722142882166,-0.2371981716387122,0.8649444354642142,-0.34118973074258435,1.6404223989821378,-0.35806518806930876,no_tremor
178,10125349,1.369,-0.265471145279776,-0.23723793738344237,0.8649772831510243,-0.35394461798854776,1.646777100348568,-0.36145828725969353,no_tremor
179,10125354,1.374,-0.26546820155429723,-0.23727255203855913,0.8650069919008562,-0.3669513239580271,1.6523661692049432,-0.3642935270161459,no_tremor
180,10125358,1.378,-0.2654634321068711,-0.23730184194173518,0.8650329914197471,-0.3800945728068419,1.657131385510482,-0.36650894884447366,no_tremor
181,10125363,1.383,-0.2654569398668318,-0.23732567820390885,0.8650547740219268,-0.39326136704227466,1.6610212077977242,-0.3680465731353963,no_tremor
182,10125378,1.398,-0.26544888329897115,-0.2373439778406212,0.8650718996727075,-0.4063421838749705,1.6639915663325893,-0.3688534675007591,no_tremor
183,10125388,1.408,-0.26543947719748573,-0.23735670456729158,0.8650839997951985,-0.41923210849164916,1.6660065804796782,-0.36888278733275376,no_tremor
184,10125392,1.412,-0.2654289926229735,-0.23736386921044555,0.8650907798471011,-0.43183189028625185,1.6670391859352462,-0.36809476610125835,no_tremor
185,10125397,1.417,-0.26541775593844535,-0.23736552968116223,0.8650920207045802,-0.444048908807297,1.6670716565046815,-0.3664576341168849,no_tremor
186,10125402,1.422,-0.2654061469092602,-0.23736179045628897,0.8650875789137186,-0.4557980369327502,1.6660960049603946,-0.3639484461816016,no_tremor
187,10125407,1.427,-0.2653945958446808,-0.23735280151821134,0.8650773858860045,-0.4670023896811753,1.664114248845639,-0.3605538013248227,no_tremor
188,10125412,1.432,-0.26538357977550564,-0.2373387567153099,0.8650614461236484,-0.4775939481635135,1.6611385300011268,-0.35627044157293863,no_tremor
189,10125442,1.462,-0.26537361768267376,-0.23731989152212657,0.865039834564911,-0.4875140496000839,1.657191080868939,-0.35110572054363787,no_tremor
190,10125447,1.467,-0.26536526481514683,-0.23729648019962338,0.8650126931406685,-0.4967137363083041,1.652304035808646,-0.34507793573272044,no_tremor
191,10125452,1.472,-0.2653591061604201,-0.23726883237997543,0.8649802266324539,-0.5051539593113814,1.646519090858257,-0.3382165203269385,no_tremor
192,10125457,1.477,-0.26535574915563914,-0.2372372891245393,0.864942697920189,-0.5128056355562708,1.6398870195265973,-0.33056209142908966,no_tremor
193,10125461,1.481,-0.26535581574926587,-0.2372022185251971,0.8649004227054472,-0.5196495610527266,1.6324670548032445,-0.3221663523343168,no_tremor
194,10125466,1.486,-0.2653599339409385,-0.23716401093614486,0.8648537637936173,-0.5256761849598135,1.6243261490431344,-0.3130918476342909,no_tremor
195,10125471,1.491,-0.26536872893999686,-0.2371230739344544,0.8648031250157723,-0.5308852514950789,1.6155381245890648,-0.30341157173597777,no_tremor
196,10125476,1.496,-0.2653828140911957,-0.23707982711332842,0.8647489448682685,-0.5352853175277262,1.6061827293542013,-0.29320843359564885,no_tremor
197,10125481,1.501,-0.26540278171987025,-0.23703469681232328,0.8646916899450556,-0.5388931541674181,1.5963446128318795,-0.2825745825645334,no_tremor
198,10125486,1.506,-0.26542919404884424,-0.23698811088463562,0.864631848234423,-0.5417330413313537,1.5861122388102378,-0.27161060190996716,no_tremor
199,10125490,1.51,-0.265462574336295,-0.23694049359372718,0.8645699223485246,-0.5438359658310703,1.5755767516056554,-0.2604245779995372,no_tremor
200,10125495,1.515,-0.26550339837815545,-0.23689226072104225,0.8645064227506674,-0.5452387358520303,1.564830813231833,-0.24913105488213577,no_tremor
201,10125505,1.525,-0.26555208651087453,-0.23684381495433754,0.8644418610421767,-0.545983027057251,1.5539674295871868,-0.23784988647648242,no_tremor
202,10125510,1.53,-0.26560899624081424,-0.23679554161316332,0.8643767433678461,-0.5461143773150289,1.5430787842436022,-0.22670500143577846,no_tremor
203,10125515,1.535,-0.26567441561539595,-0.2367478047552591,0.8643115639966682,-0.5456811481330911,1.532255098603897,-0.21582309793477683,no_tremor
204,10125520,1.54,-0.2657485574383135,-0.23670094369590172,0.8642467991327863,-0.5447334714757976,1.5215835368157005,-0.2053322862567782,no_tremor
205,10125525,1.545,-0.26583155441656603,-0.23665526996215153,0.8641829010103453,-0.543322200845415,1.5111471724780041,-0.19536069637700854,no_tremor
206,10125530,1.55,-0.26592345531058764,-0.23661106469569007,0.8641202923249781,-0.5414978851150211,1.5010240317022203,-0.1860350668308616,no_tremor
207,10125534,1.554,-0.2660242221402956,-0.23656857651138358,0.8640593610538141,-0.5393097821984751,1.4912862237597018,-0.1774793307941291,no_tremor
208,10125539,1.559,-0.2661337284794843,-0.23652801981346663,0.86400045571479,-0.5368049270557039,1.481999166806666,-0.16981321534988145,no_tremor
209,10125564,1.584,-0.2662517588488447,-0.23648957356684575,0.8639438811143341,-0.5340272653279508,1.4732209125662812,-0.1631508698496889,no_tremor
210,10125569,1.589,-0.26637800919455773,-0.23645338051698836,0.8638898946298348,-0.5310168612452604,1.4650015710160673,-0.157599538872335,no_tremor
211,10125574,1.594,-0.26651208841620916,-0.236419546847822,0.863838703069532,-0.5278091871313063,1.4573828345965412,-0.15325829469792734,no_tremor
212,10125579,1.599,-0.26665352088683036,-0.23638814226289034,0.8637904601476517,-0.5244345015812677,1.4503976012470001,-0.15021684365017554,no_tremor
213,10125584,1.604,-0.26680174989137423,-0.23635920047085351,0.8637452646070712,-0.5209173233244332,1.444069696048542,-0.1485544200429701,no_tremor
214,10125593,1.613,-0.266956141899105,-0.2363327200525843,0.8637031590159685,-0.5172760071277752,1.4384136914744583,-0.14833878048811308,no_tremor
215,10125598,1.618,-0.2671159915800476,-0.23630866568389197,0.8636641292590986,-0.5135224264509686,1.4334348257344727,-0.1496253097885527,no_tremor
216,10125603,1.623,-0.26728052747478903,-0.2362869696854464,0.8636281047386528,-0.509661765028424,1.4291290177048566,-0.15245624769680566,no_tremor
217,10125607,1.627,-0.26744891822927774,-0.23626753386980526,0.8635949592938911,-0.5056924167653203,1.4254829758283045,-0.15686004377242857,no_tremor
218,10125617,1.637,-0.26762027931064614,-0.23625023165454884,0.8635645128425714,-0.5016059910362105,1.422474397077972,-0.1628508457111123,no_tremor
219,10125622,1.642,-0.26779368012547566,-0.23623491041040837,0.8635365337402731,-0.49738741883780396,1.4200722504043717,-0.1704281251238557,no_tremor
220,10125626,1.646,-0.2679681514675846,-0.23622139401405368,0.8635107418457932,-0.49301515372611904,1.4182371372072904,-0.17957644408865728,no_tremor
221,10125631,1.651,-0.26814269322790807,-0.23620948557712979,0.8634868122717635,-0.48846145957380704,1.41692171986683,-0.19026536582592157,no_tremor
222,10125661,1.681,-0.268316282304209,-0.2361989703265381,0.8634643797895987,-0.4836927753392042,1.4160712087531855,-0.20244951291684218,no_tremor
223,10125696,1.716,-0.268487880653272,-0.2361896186160895,0.8634430438474414,-0.4786701462648303,1.4156238984586642,-0.21606877576284242,no_tremor
224,10125701,1.721,-0.26865644343305445,-0.23618118905623853,0.8634223741501967,-0.47334971166936113,1.4155117447382228,-0.2310486723263654,no_tremor
225,10125705,1.725,-0.2688209271870865,-0.2361734317554005,0.8634019167438909,-0.4676832412586422,1.4156609742631228,-0.24730085823605816,no_tremor
226,10125710,1.73,-0.2689802980279195,-0.2361660916712932,0.8633812005438282,-0.46161871399898613,1.4159927198960758,-0.26472378447741773,no_tremor
227,10125720,1.74,-0.2691335397799503,-0.2361589120720083,0.8633597442474621,-0.4551009360007422,1.416423675362029,-0.28320349766031144,no_tremor
228,10125734,1.754,-0.2692796620437897,-0.236151638103616,0.8633370635773286,-0.44807219693455064,1.4168667650711788,-0.3026145747158461,no_tremor
229,10125749,1.769,-0.26941770814411287,-0.23614402045496194,0.8633126788051051,-0.4404729683426056,1.417231826883749,-0.32282118007276295,no_tremor
230,10125754,1.774,-0.26954676292068347,-0.23613581910249168,0.8632861225129174,-0.43224265107437226,1.4174263071730329,-0.34367822981902674,no_tremor
231,10125764,1.784,-0.26966596031848344,-0.23612680710982317,0.8632569475501298,-0.4233203817953487,1.4173559685950652,-0.365032645121261,no_tremor
232,10125773,1.793,-0.26977449072842147,-0.2361167744491323,0.8632247351403944,-0.4136459093671552,1.416925611750793,-0.38672467689105067,no_tremor
233,10125778,1.798,-0.2698716080257863,-0.2361055318042934,0.8631891030826414,-0.4031605506590306,1.4160398123435236,-0.4085892852038764,no_tremor
234,10125783,1.803,-0.26995663624993155,-0.23609291430886456,0.8631497139704053,-0.3918082317263459,1.4146036752612736,-0.4304575595507457,no_tremor
235,10125807,1.827,-0.2700289758656669,-0.23607878516531824,0.8631062833277593,-0.3795366140747144,1.4125236065169902,-0.45215816872819836,no_tremor
236,10125817,1.837,-0.2700881095442953,-0.2360630390857405,0.8630585875302728,-0.3662982975368307,1.4097081035818186,-0.4735188312322861,no_tremor
237,10125822,1.842,-0.27013360740016584,-0.23604560548938608,0.8630064713504755,-0.3520520826029586,1.406068564063092,-0.4943677979837708,no_tremor
238,10125827,1.847,-0.27016513161742955,-0.23602645139000647,0.8629498549448952,-0.33676426748608884,1.401520111397379,-0.5145353391225405,no_tremor
239,10125832,1.852,-0.2701824404020617,-0.2360055839064359,0.8628887400885975,-0.3204099498325437,1.3959824346760856,-0.5338552256001255,no_tremor
240,10125836,1.856,-0.2701853911966156,-0.23598305233337186,0.8628232154651934,-0.3029743000524109,1.389380638809099,-0.5521661943757346,no_tremor
241,10125841,1.861,-0.2701739430995914,-0.2359589497147209,0.8627534608341345,-0.28445377235881436,1.3816461009566996,-0.5693133833268469,no_tremor
242,10125846,1.866,-0.27014815843738293,-0.2359334138681656,0.8626797499197753,-0.2648572201609966,1.3727173285918577,-0.5851497188886007,no_tremor
243,10125851,1.871,-0.2701082034441015,-0.2359066278158475,0.862602451895009,-0.24420688393644924,1.3625408128596814,-0.5995372364143443,no_tremor
244,10125856,1.876,-0.2700543480128436,-0.235878819581771,0.8625220313638324,-0.2225392218820195,1.3510718678654317,-0.6123483109902306,no_tremor
245,10125861,1.881,-0.26998696449100756,-0.23585026132167558,0.862439046780183,-0.1999055565794233,1.33827544268358,-0.623466775786635,no_tremor
246,10125865,1.885,-0.2699065255020565,-0.23582126775604487,0.8623541472736612,-0.17637251469306056,1.3241268893499705,-0.6327889064678972,no_tremor
247,10125870,1.89,-0.2698136007867958,-0.23579219388226824,0.8622680678855371,-0.15202224121404143,1.3086126677083592,-0.6402242534638252,no_tremor
248,10125875,1.895,-0.2697088530689932,-0.2357634319485623,0.8621816232503129,-0.12695237473589494,1.291730966711569,-0.6456963083544504,no_tremor
249,10125884,1.904,-0.2695930329632954,-0.2357354076808877,0.8620956997888384,-0.10127577546235667,1.2734922214804183,-0.6491429955569445,no_tremor
250,10125889,1.909,-0.26946697295809957,-0.23570857576537413,0.8620112465084172,-0.07512000273649538,1.2539195065969242,-0.6505169853392125,no_tremor
251,10125894,1.914,-0.26933158052243145,-0.23568341460303138,0.8619292645333134,-0.04862654342781754,1.2330487892612931,-0.6497858284631306,no_tremor
252,10125904,1.924,-0.2691878304037915,-0.2356604203708167,0.8618507955152428,-0.021949796513189273,1.2109290306892546,-0.6469319164572337,no_tremor
253,10125929,1.949,-0.26903675620296574,-0.23564010044314934,0.8617769090972841,0.0047441768285008765,1.1876221295576765,-0.6419522750933014,no_tremor
254,10125934,1.954,-0.2688794413311602,-0.2356229662498692,0.8617086896254105,0.03127912373667761,1.1632027068019717,-0.6348582024648179,no_tremor
255,10125939,1.959,-0.2687170094731475,-0.23560952566887888,0.8616472223183427,0.057470271760505835,1.1377577362181093,-0.6256747669359345,no_tremor
256,10125944,1.964,-0.2685506146954236,-0.23560027507215386,0.8615935791172592,0.08312617822022336,1.111386029507179,-0.6144401837285907,no_tremor
257,10125948,1.968,-0.2683814313486409,-0.2355956911604071,0.8615488044410441,0.10805072784462615,1.0841975869900748,-0.6012050919039451,no_tremor
258,10125958,1.978,-0.268210643917462,-0.23559622273324002,0.8615139010703096,0.1320452459662715,1.0563128260297625,-0.5860317558466681,no_tremor
259,10125963,1.983,-0.2680394369680464,-0.23560228254780075,0.8614898163754765,0.1549106921396611,1.027861698561552,-0.5689932165973124,no_tremor
260,10125968,1.988,-0.267868985333816,-0.23561423941998116,0.8614774290921581,0.17644989838726297,0.9989827076490386,-0.5501724180186227,no_tremor
261,10125977,1.997,-0.26770044466456505,-0.235632410718331,0.8614775368322625,0.19646981756330384,0.9698218313181382,-0.5296613307806038,no_tremor
262,10125987,2.007,-0.26753494244346127,-0.2356570553925841,0.8614908445026576,0.21478374999668973,0.9405313607367773,-0.5075600937531594,no_tremor
263,10125991,2.011,-0.2673735695527197,-0.23568836766661,0.8615179537858314,0.23121351945587257,0.9112686596873577,-0.4839761879417481,no_tremor
264,10125996,2.016,-0.267217372443963,-0.2357264715105169,0.8615593538194884,0.24559157166242146,0.8821948533751512,-0.459023653147742,no_tremor
265,10126001,2.021,-0.26706734594596687,-0.2357714159894093,0.8616154131950002,0.2577629701332952,0.8534734562740971,-0.43282235278489095,no_tremor
266,10126005,2.025,-0.26692442672274264,-0.23582317156777333,0.8616863733782262,0.26758726566854146,0.825268949947472,-0.4054972880629006,no_tremor
267,10126010,2.03,-0.2667894873800676,-0.23588162742938767,0.8617723436401957,0.27494021756362214,0.7977453223853758,-0.37717795880752175,no_tremor
268,10126015,2.035,-0.2666633312091634,-0.2359465898536626,0.861873297568929,0.2797153463754545,0.7710645810286728,-0.3479977643633455,no_tremor
269,10126020,2.04,-0.26654668755213695,-0.23601778167088583,0.8619890712165815,0.2818252996491532,0.7453852526945214,-0.31809343482616925,no_tremor
270,10126050,2.07,-0.2664402077744451,-0.2360948428013504,0.8621193629174521,0.28120301358774696,0.7208608847266286,-0.28760448088041174,no_tremor
271,10126054,2.074,-0.26634446183395993,-0.23617733186707557,0.8622637347916695,0.2778026555359827,0.6976385625129036,-0.25667264968767656,no_tremor
272,10126059,2.079,-0.2662599354426861,-0.23626472885018415,0.862421615926427,0.271600334615401,0.6758574592285534,-0.22544137416705787,no_tremor
273,10126064,2.084,-0.2661870278241002,-0.2363564387594175,0.8625923072019417,0.2625945710082647,0.6556474345126688,-0.19405520364902182,no_tremor
274,10126069,2.089,-0.266126050075053,-0.2364517962560513,0.862774987703895,0.250806518143078,0.6371276995554717,-0.1626592055867193,no_tremor
275,10126074,2.094,-0.2660772241456106,-0.2365500711825318,0.8629687226391899,0.23627993596242755,0.6204055664396897,-0.13139833075161264,no_tremor
276,10126079,2.099,-0.26604068245325985,-0.23665047493103006,0.8631724726485407,0.21908091684127165,0.6055752996570487,-0.10041673766601238,no_tremor
277,10126094,2.114,-0.2660164681499697,-0.23675216758425208,0.8633851043885211,0.19929736801694525,0.5927170877571516,-0.06985707535505249,no_tremor
278,10126099,2.119,-0.2660045360618763,-0.2368542657568041,0.8636054022378327,0.17703825577878765,0.5818961528121955,-0.039859726433878764,no_tremor
279,10126104,2.124,-0.26600475432162307,-0.2369558510618866,0.8638320809681312,0.15243261800525085,0.573162014254245,-0.0105620149542139,no_tremor
280,10126108,2.128,-0.2660169067120405,-0.23705597912478854,0.8640637992089159,0.12562835368043343,0.5665479216006699,0.017902614668517412,no_tremor
281,10126113,2.133,-0.26604069573621697,-0.23715368906123924,0.8642991735285463,0.09679080086766548,0.5620704679718679,0.045405439859991285,no_tremor
282,10126118,2.138,-0.26607574642262616,-0.23724801333478912,0.8645367929488926,0.06610111792154062,0.5597293931987464,0.07182331418655012,no_tremor
283,10126128,2.148,-0.26612161086467906,-0.2373379879027439,0.8647752337087523,0.03375448608961777,0.5595075815222346,0.09703952347233301,no_tremor
284,10126138,2.158,-0.266177773481908,-0.2374226625545956,0.8650130740905402,-4.184522294830618e-05,0.5613712545644023,0.12094463223534267,no_tremor
285,10126142,2.162,-0.26624365697521296,-0.23750111134036903,0.8652489091257788,-0.035070646515530095,0.5652703560638374,0.14343730782189437,no_tremor
286,10126147,2.167,-0.26631862893175057,-0.23757244297904706,0.8654813649979591,-0.07110690307174623,0.5711391214850338,0.16442510857916576,no_tremor
287,10126172,2.192,-0.2664020090170197,-0.237635811129655,0.8657091129669527,-0.10792008762221408,0.5788968233746123,0.18382522152816577,no_tremor
288,10126177,2.197,-0.2664930766736101,-0.23769042440027194,0.8659308826476442,-0.1452764792212215,0.5884486822600513,0.20156513459526357,no_tremor
289,10126182,2.202,-0.2665910792291487,-0.23773555596402857,0.8661454744865826,-0.18294149493733214,0.5996869325074722,0.21758322885015233,no_tremor
290,10126187,2.207,-0.26669524030132913,-0.23777055264710398,0.8663517712934997,-0.22068200127574034,0.6124920320299507,0.231829277582997,no_tremor
291,10126196,2.216,-0.2668047683763475,-0.23779484335281637,0.8665487486986596,-0.25826857574224116,0.6267340036067233,0.2442648415977916,no_tremor
292,10126201,2.221,-0.26691886542881743,-0.23780794668857816,0.8667354844215734,-0.29547769456736905,0.6422738940734349,0.254863553742227,no_tremor
293,10126206,2.226,-0.2670367354461236,-0.2378094776686831,0.866911166251386,-0.33209382772053236,0.6589653359105204,0.2636112898224307,no_tremor
294,10126210,2.23,-0.26715759271803297,-0.23779915337529528,0.8670750986543343,-0.3679114253753409,0.6766561933737099,0.2705062267307373,no_tremor
295,10126215,2.235,-0.26728066975324155,-0.23777679747224742,0.8672267079393324,-0.40273678125505946,0.6951902720044937,0.27555879124015514,no_tremor
296,10126220,2.24,-0.26740522468848976,-0.2377423434809446,0.8673655459291811,-0.4363897584861308,0.7144090666305855,0.27879150443070533,no_tremor
297,10126225,2.245,-0.2675305480629788,-0.2376958367443949,0.8674912921022909,-0.4687053629827225,0.7341535198391422,0.28023872730566385,no_tremor
298,10126230,2.25,-0.2676559688411088,-0.237637435023773,0.867603754188246,-0.4995351484096763,0.7542657612661076,0.2799463130891736,no_tremor
299,10126235,2.255,-0.2677808595801299,-0.2375674076916326,0.8677028672200866,-0.5287484361898791,0.7745907981634372,0.2779711713858679,no_tremor
300,10126245,2.265,-0.26790464065628333,-0.23748613350662467,0.8677886910668196,-0.5562333343164889,0.7949781292323223,0.27438074930877643,no_tremor
301,10126259,2.279,-0.2680267834835435,-0.23739409697606398,0.8678614064912126,-0.5818975398152735,0.8152832561614756,0.2692524349138273,no_tremor
302,10126264,2.284,-0.2681468126832494,-0.23729188333459852,0.8679213097999785,-0.6056689113532421,0.8353690705035328,0.2626728882719948,no_tremor
303,10126269,2.289,-0.268264307190693,-0.23718017218916881,0.867968806175158,-0.6274958007328441,0.8551070974475821,0.25473730470758355,no_tremor
304,10126294,2.314,-0.2683789003156992,-0.23705972990190377,0.868004401795637,-0.6473471348332799,0.8743785824307433,0.24554861333407227,no_tremor
305,10126299,2.319,-0.2684902788072368,-0.23693140080309347,0.8680286948748671,-0.6652122425779509,0.893075410789564,0.23521661287556112,no_tremor
306,10126308,2.328,-0.268598181004956,-0.2367960973454753,0.8680423657538249,-0.6811004244413622,0.9111008543158877,0.22385704645415222,no_tremor
307,10126313,2.333,-0.268702394190257,-0.23665478932844689,0.8680461661963582,-0.6950402652759378,0.9283701416775904,0.21159061740591614,no_tremor
308,10126318,2.338,-0.26880275127310904,-0.23650849233632412,0.8680409080374552,-0.7070786955539975,0.9448108525004093,0.19854194902357997,no_tremor
309,10126323,2.343,-0.26889912696657736,-0.23635825554849035,0.8680274513347211,-0.717279811576731,0.9603631375201971,0.18483849258878246,no_tremor
310,10126328,2.348,-0.2689914336085685,-0.23620514909146922,0.8680066921713546,-0.7257234710290756,0.9749797693002751,0.1706093901219504,no_tremor
311,10126333,2.353,-0.2690796167904115,-0.2360502511137346,0.8679795502570962,-0.732503685493991,0.9886260295280079,0.1559843002574152,no_tremor
312,10126337,2.357,-0.2691636509456697,-0.2358946347733207,0.8679469564735062,-0.73772683581965,1.0012794403911958,0.14109219696232644,no_tremor
313,10126342,2.362,-0.2692435350411543,-0.23573935533560625,0.8679098405123375,-0.7415097398768575,1.0129293494184686,0.1260601516814081,no_tremor
314,10126347,2.367,-0.26931928849646164,-0.2355854375833556,0.867869118760905,-0.7439776056221699,1.0235763790747392,0.1110121105071345,no_tremor
315,10126352,2.372,-0.2693909474392624,-0.23543386374236977,0.8678256825958093,-0.7452619052910153,1.0332317535809519,0.09606767939020133,no_tremor
316,10126362,2.382,-0.2694585613817203,-0.2352855621230198,0.8677803872551688,-0.7454982082967521,1.0419165157584085,0.08134093198410987,no_tremor
317,10126366,2.386,-0.26952219037951886,-0.2351413966696262,0.8677340414680936,-0.7448240106645205,1.049660646898272,0.0669392561243807,no_tremor
318,10126381,2.401,-0.26958190270997684,-0.23500215759534712,0.8676873980263671,-0.7433765981235944,1.056502103505596,0.05296225608416381,no_tremor
319,10126386,2.406,-0.2696377730810161,-0.23486855325952338,0.8676411454846494,-0.7412909791822754,1.0624857864311046,0.03950072883300241,no_tremor
320,10126391,2.411,-0.26968988136005867,-0.23474120341767027,0.8675959011695279,-0.7386979239665217,1.0676624599329945,0.026635733801355088,no_tremor
321,10126421,2.441,-0.2697383117930094,-0.23462063394296412,0.867552205662557,-0.7357221440532936,1.072087639851524,0.0144377769576629,no_tremor
322,10126436,2.456,-0.269783152669301,-0.23450727308438854,0.8675105188970467,-0.7324806474089256,1.0758204705837318,0.002966130663122695,no_tremor
323,10126441,2.461,-0.2698244963790636,-0.23440144929305,0.8674712179723965,-0.7290813002024811,1.0789226094471411,-0.007731689932532453,no_tremor
324,10126446,2.466,-0.2698624398009813,-0.23430339061652744,0.8674345967434,-0.7256216232263765,1.0814571344291666,-0.017620275561303193,no_tremor
325,10126455,2.475,-0.2698970849521155,-0.23421322563286306,0.8674008671862952,-0.7221878449587853,1.0834874881380263,-0.026676482019937237,no_tremor
326,10126469,2.489,-0.26992853982266807,-0.23413098587164494,0.8673701624813311,-0.7188542264836035,1.085076468313997,-0.0348893899037763,no_tremor
327,10126474,2.494,-0.26995691930962584,-0.23405660964976255,0.8673425416880849,-0.7156826661739097,1.0862852743464209,-0.04226005935438043,no_tremor
328,10126479,2.499,-0.26998234615507305,-0.2339899472336969,0.8673179958308825,-0.7127225848325942,1.0871726199152478,-0.048801078138547546,no_tremor
329,10126484,2.504,-0.27000495178984374,-0.2339307672281969,0.8672964551637057,-0.710011085560123,1.0877939237818226,-0.05453590496792538,no_tremor
330,10126489,2.509,-0.27002487698293814,-0.23387876408199407,0.8672777973512311,-0.707573377370473,1.0882005931024967,-0.05949801373940068,no_tremor
331,10126494,2.514,-0.2700422722025307,-0.23383356659346854,0.8672618562860991,-0.705423447016884,1.0884394152051562,-0.06372984847771786,no_tremor
332,10126499,2.519,-0.27005729760521696,-0.23379474729137298,0.867248431260097,-0.703564958723225,1.0885520738344443,-0.06728160310368947,no_tremor
