sample,t_ms,t_s,ax,ay,az,gx,gy,gz,tremor
0,10111369,0.0,-0.10215740373040674,-0.10520933099691393,-1.0414028631374057,1.0216043696284614,-0.030338066874146176,-0.8995410350390745,no_tremor
1,10111393,0.024,-0.10207543312065437,-0.10521300982318245,-1.0414687930911186,0.9625078703477945,-0.004732162883216406,-0.8784735638439021,no_tremor
2,10111403,0.034,-0.10196264777245573,-0.10521956331295573,-1.0415577399212244,0.9040755402752298,0.021662431127495305,-0.8569295472525361,no_tremor
3,10111408,0.039,-0.10181681742056849,-0.10523007274085201,-1.041670372779738,0.8465704149731249,0.04871043664458143,-0.8349900250379809,no_tremor
4,10111412,0.043,-0.10164145417620928,-0.1052453130897392,-1.0418028321498694,0.7902477059995605,0.07627476716257571,-0.8127361563582326,no_tremor
5,10111422,0.053,-0.10144305750364681,-0.1052656976809246,-1.0419491548203388,0.7353523419925193,0.10421810957389366,-0.790248286422613,no_tremor
6,10111427,0.058,-0.1012285964481367,-0.10529136192019817,-1.0421033260821724,0.6821166719795768,0.13240445229827358,-0.7676050555983139,no_tremor
7,10111432,0.063,-0.10100418928927093,-0.1053222714178611,-1.042260276820651,0.6307583670206742,0.16070053409482354,-0.7448825687045044,no_tremor
8,10111446,0.077,-0.10077471101521997,-0.10535830429487344,-1.0424161177650237,0.5814785514156031,0.18897719163502413,-0.7221536405021495,no_tremor
9,10111451,0.082,-0.10054387366256651,-0.10539930012596654,-1.0425680096481256,0.5344601894562965,0.21711058794386373,-0.699487130543561,no_tremor
10,10111456,0.087,-0.10031446637252923,-0.10544508416425107,-1.0427139267966077,0.48986674779676775,0.2449833076404705,-0.6769473769065013,no_tremor
11,10111461,0.092,-0.10008860250487864,-0.10549547705333824,-1.042852432368397,0.4478411466996841,0.2724853088555881,-0.6545937342685643,no_tremor
12,10111470,0.101,-0.09986791987796852,-0.1055502972781094,-1.042982502554514,0.40850500571199616,0.2995147260378563,-0.6324802175465375,no_tremor
13,10111475,0.106,-0.0996537261327401,-0.10560936055251412,-1.0431034014808114,0.37195818133828723,0.3259785225306685,-0.6106552482795085,no_tremor
14,10111480,0.111,-0.09944709770187939,-0.10567247828069633,-1.0432145969590976,0.33827858694403373,0.35179299648347795,-0.5891614977176596,no_tremor
15,10111485,0.116,-0.0992489442176808,-0.10573945606005246,-1.0433157057981328,0.30752227889934897,0.37688414792428226,-0.5680358187922593,no_tremor
16,10111490,0.121,-0.09906004881533521,-0.10581009260211947,-1.0434064592917782,0.2797237877241558,0.4011879181723208,-0.54730925874093,no_tremor
17,10111519,0.15,-0.09888109230019193,-0.10588417917269496,-1.0434866819711115,0.25489666861433474,0.42465031468621695,-0.5270071446036525,no_tremor
18,10111524,0.155,-0.09871266685111822,-0.10596149953794091,-1.0435562788174277,0.23303424261704164,0.4472274346944703,-0.5071492347419567,no_tremor
19,10111529,0.16,-0.09855528316019602,-0.10604183036200278,-1.0436152277036297,0.21411049845060487,0.4688853998158871,-0.48774993086659,no_tremor
20,10111534,0.165,-0.09840937364445211,-0.10612494199037659,-1.0436635749291046,0.19808112567501412,0.48960021160552947,-0.4688185464571676,no_tremor
21,10111538,0.169,-0.09827529349609963,-0.1062105995517049,-1.0437014324570215,0.18488465230482293,0.509357534467877,-0.45035962843968913,no_tremor
22,10111543,0.174,-0.09815332074965309,-0.10629856431069284,-1.0437289759601966,0.174443663652601,0.5281524079243319,-0.43237332942663764,no_tremor
23,10111553,0.184,-0.09804365614698964,-0.10638859520395315,-1.0437464431126928,0.16666608385628598,0.5459888858634124,-0.41485582791257464,no_tremor
24,10111557,0.188,-0.09794642331034516,-0.1064804504888123,-1.0437541317849244,0.16144650651355832,0.5628795972345708,-0.3977997936419224,no_tremor
25,10111562,0.193,-0.09786166954425854,-0.10657388943334796,-1.0437523979472496,0.15866756499572274,0.5788452212425452,-0.38119489487465746,no_tremor
26,10111567,0.198,-0.09778936745144909,-0.10666867397536747,-1.043741653184766,0.1582013353231075,0.5939138708482001,-0.36502834354377506,no_tremor
27,10111572,0.203,-0.0977294174458391,-0.10676457027983348,-1.0437223617894509,0.1599107649274875,0.6081203814056565,-0.3492854734694372,no_tremor
28,10111577,0.208,-0.09768165116688501,-0.10686135012937906,-1.0436950374347114,0.16365112023775066,0.6215055058208483,-0.33395034581231203,no_tremor
29,10111591,0.222,-0.09764583573633098,-0.10695879209182199,-1.0436602394584518,0.1692714457624629,0.6341150224792408,-0.3190063746119828,no_tremor
30,10111596,0.227,-0.09762167874797213,-0.10705668242256544,-1.0436185687886284,0.17661602706167084,0.6459987668159274,-0.304436963581863,no_tremor
31,10111610,0.241,-0.09760883384183228,-0.10715481567867793,-1.0435706635436424,0.1855258488002967,0.6572096022289297,-0.29022614370856453,no_tremor
32,10111635,0.266,-0.09760690668669805,-0.107252995044744,-1.0435171943319168,0.19584003654737175,0.6678023515242547,-0.2763592001434469,no_tremor
33,10111640,0.271,-0.0976154611801937,-0.10735103239622536,-1.0434588592638259,0.20739726785160167,0.677832715504187,-0.26282327666745514,no_tremor
34,10111645,0.276,-0.09763402567404994,-0.10744874814988449,-1.0433963786783798,0.2200371356008998,0.6873562087201176,-0.2496079466396593,no_tremor
35,10111655,0.286,-0.09766209904316012,-0.10754597096728397,-1.0433304895804254,0.23360144543330272,0.6964271421430301,-0.23670574058499072,no_tremor
36,10111664,0.295,-0.09769915643816962,-0.10764253738227514,-1.0432619397844234,0.247935428952159,0.7050976785628725,-0.22411262200992255,no_tremor
37,10111669,0.3,-0.09774465458936597,-0.10773829141620984,-1.0431914817690815,0.2628888555283195,0.7134169801941338,-0.21182840403115716,no_tremor
38,10111674,0.305,-0.09779803656088756,-0.10783308422847881,-1.0431198662623464,0.27831702758379745,0.7214304605581533,-0.1998570994472139,no_tremor
39,10111678,0.309,-0.09785873588565193,-0.10792677382963736,-1.0430478355962816,0.29408164741893666,0.7291791453121967,-0.18820719594515017,no_tremor
40,10111683,0.314,-0.09792618004088977,-0.10801922486409678,-1.0429761168934746,0.3100515474302201,0.7366991406334237,-0.17689184677744615,no_tremor
41,10111688,0.319,-0.09799979325087096,-0.10811030845198796,-1.0429054151681418,0.32610327924557425,0.7440212044280166,-0.16592896644190305,no_tremor
42,10111693,0.324,-0.0980789986272229,-0.10819990206684275,-1.0428364064437574,0.3421215603857166,0.7511704154492906,-0.15534122150366858,no_tremor
43,10111698,0.329,-0.09816321967840481,-0.10828788941777849,-1.0427697310030997,0.35799957960887513,0.7581659375018902,-0.1451559088002788,no_tremor
44,10111702,0.333,-0.09825188123868835,-0.1083741603019686,-1.0427059868949513,0.3736391645782161,0.7650208789600885,-0.13540471621530337,no_tremor
45,10111707,0.338,-0.09834440988358938,-0.10845861039503485,-1.0426457238237155,0.3889508183000997,0.7717422507487175,-0.12612336438767177,no_tremor
46,10111712,0.343,-0.09844023391314176,-0.10854114095306172,-1.0425894375439348,0.40385363372092536,0.7783310277223445,-0.11735113105437599,no_tremor
47,10111717,0.348,-0.098538782996548,-0.10862165840949184,-1.0425375648714772,0.41827509812175834,0.7847823181151996,-0.10913026331107062,no_tremor
48,10111726,0.357,-0.09863948758119118,-0.10870007386232537,-1.0424904794078196,0.4321507997982345,0.7910856431260573,-0.10150528682055467,no_tremor
49,10111731,0.362,-0.09874177817503096,-0.10877630246077336,-1.0424484880544862,0.44542404907086497,0.7972253243153615,-0.09452222456736813,no_tremor
50,10111756,0.387,-0.098845084613003,-0.10885026271461137,-1.0424118283725523,0.45804542483093824,0.803180971371874,-0.08822774070541936,no_tremor
51,10111765,0.396,-0.09894883541418525,-0.10892187576263165,-1.0423806668186717,0.46997225767219153,0.8089280580391309,-0.08266822699815626,no_tremor
52,10111770,0.401,-0.09905245732698793,-0.10899106464741933,-1.0423550978658764,0.4811680617272283,0.8144385705789078,-0.07788885018160849,no_tremor
53,10111775,0.406,-0.09915537514577412,-0.10905775365095634,-1.0423351439960913,0.4916019290590846,0.8196817118926576,-0.07393257852375852,no_tremor
54,10111780,0.411,-0.0992570118667536,-0.10912186774858101,-1.042320756533241,0.5012479014497807,0.8246246454287283,-0.07083920540405222,no_tremor
55,10111790,0.421,-0.09935678923646972,-0.10918333223765624,-1.0423118172715062,0.5100843335669083,0.8292332651334652,-0.06864438737566518,no_tremor
56,10111809,0.44,-0.09945412873437325,-0.10924207259254727,-1.0423081408423853,0.5180932588125434,0.8334729789341612,-0.0673787142184813,no_tremor
57,10111819,0.45,-0.09954845302185708,-0.10929801458992237,-1.0423094777560744,0.5252597656343737,0.8373094921074704,-0.06706682907693078,no_tremor
58,10111824,0.455,-0.09963918788221997,-0.10935108473857102,-1.042315518046722,0.5315713890866821,0.8407095737051892,-0.06772661772492622,no_tremor
59,10111829,0.46,-0.09972576466707833,-0.10940121103645589,-1.0423258954472658,0.5370175214744549,0.84364178588083,-0.06936848678893477,no_tremor
60,10111833,0.464,-0.09980762325296477,-0.10944832406532148,-1.042340192017891,0.5415888475579526,0.8460771547743735,-0.07199475080610465,no_tremor
61,10111838,0.469,-0.09988421549695349,-0.10949235842081949,-1.0423579431526555,0.5452768123178536,0.847989764101965,-0.07559914696962351,no_tremor
62,10111853,0.484,-0.09995500916333004,-0.10953325446473129,-1.0423786428912314,0.5480731298861178,0.8493572588049574,-0.0801664943510599,no_tremor
63,10111891,0.522,-0.10001949227635369,-0.10957096037619905,-1.0424017494665343,0.5499693401098533,0.8501612544506005,-0.08567251152932065,no_tremor
64,10111896,0.527,-0.10007717783848208,-0.1096054344711777,-1.0424266910239148,0.5509564160510688,0.8503876561169483,-0.09208380307882019,no_tremor
65,10111915,0.546,-0.10012760883958252,-0.10963664775307401,-1.0424528714534291,0.5510244234795938,0.8500268962433524,-0.0993580213183978,no_tremor
66,10111920,0.551,-0.10017036347039003,-0.10966458665143469,-1.0424796762836868,0.5501622326651403,0.8490741035642437,-0.10744420514464831,no_tremor
67,10111930,0.561,-0.10020506044264098,-0.10968925589818523,-1.0425064785940694,0.5483572831369501,0.8475292151026824,-0.11628329288298944,no_tremor
68,10111935,0.566,-0.1002313643097666,-0.10971068148178716,-1.0425326449116559,0.5455954031180543,0.845397041348298,-0.12580880134342476,no_tremor
69,10111939,0.57,-0.10024899067737236,-0.10972891360941195,-1.0425575410695072,0.5418606867734332,0.8426872922704763,-0.1359476592404026,no_tremor
70,10111944,0.575,-0.10025771119317263,-0.10974402959708343,-1.0425805380134499,0.5371354338995801,0.8394145693150099,-0.14662118020574966,no_tremor
71,10111959,0.59,-0.10025735821172262,-0.10975613659893751,-1.0426010175544869,0.531400157983828,0.8355983263130604,-0.15774615877040885,no_tremor
72,10111978,0.609,-0.10024782903934855,-0.10976537408019682,-1.0426183780728429,0.5246336698250047,0.8312628006203131,-0.1692360715698112,no_tremor
73,10112002,0.633,-0.10022908967769786,-0.10977191593488828,-1.042632040186548,0.5168132453155954,0.8264369148381143,-0.18100236510217085,no_tremor
74,10112026,0.657,-0.10020117799858774,-0.10977597214953422,-1.0426414524008887,0.5079148870959731,0.821154148815505,-0.19295581004193804,no_tremor
75,10112036,0.667,-0.10016420629665036,-0.10977778991884393,-1.0426460967530728,0.4979136895769332,0.8154523812225359,-0.20500790009682474,no_tremor
76,10112045,0.676,-0.10011836317852489,-0.1097776541292983,-1.0426454944575447,0.4867843144926864,0.8093737001766934,-0.21707227114689698,no_tremor
77,10112050,0.681,-0.10006391475775012,-0.10977588714119156,-1.0426392115416774,0.47450157988003444,0.8029641831707476,-0.22906611487929238,no_tremor
78,10112060,0.691,-0.10000120513331696,-0.10977284781815516,-1.0426268644411425,0.46104116016214286,0.7962736470942754,-0.24091156088329138,no_tremor
79,10112065,0.696,-0.09993065613716369,-0.10976892977406534,-1.0426081255021178,0.44638038969531435,0.7893553686211373,-0.25253700190506534,no_tremor
80,10112070,0.701,-0.09985276634148992,-0.10976455882925365,-1.042582728316489,0.43049915705292713,0.782265773519097,-0.2638783382787595,no_tremor
81,10112075,0.706,-0.09976810932037401,-0.1097601896900925,-1.042550472798545,0.4133808727179722,0.7750640911609856,-0.2748801195019345,no_tremor
82,10112080,0.711,-0.09967733116202869,-0.10975630188744988,-1.0425112298988894,0.3950134890705054,0.7678119688296956,-0.28549656335300266,no_tremor
83,10112089,0.72,-0.0995811472289973,-0.10975339502929275,-1.0424649458442794,0.3753905489101091,0.760573040469504,-0.2956924351163547,no_tremor
84,10112094,0.725,-0.09948033816506563,-0.10975198343992343,-1.042411645791146,0.35451223756446754,0.7534124467469501,-0.3054437710267203,no_tremor
85,10112099,0.73,-0.09937574515124406,-0.10975259027208321,-1.0423514367854372,0.33238641387554085,0.7463963070157421,-0.314738431624756,no_tremor
86,10112124,0.755,-0.09926826442027561,-0.10975574118783969,-1.0422845099316471,0.3090295962881286,0.7395911477716886,-0.32357647320010646,no_tremor
87,10112129,0.76,-0.09915884105032828,-0.1097619577096357,-1.0422111416888291,0.28446788112335436,0.7330632950184173,-0.3319703290626931,no_tremor
88,10112134,0.765,-0.09904846207287696,-0.10977175034458567,-1.042131694230216,0.25873777095586564,0.726878238732064,-0.3399447966279466,no_tremor
89,10112139,0.77,-0.09893814894477185,-0.10978561158398648,-1.0420466148248713,0.23188689229975806,0.7210999768194591,-0.3475368307827579,no_tremor
90,10112144,0.775,-0.09882894944726077,-0.10980400887705824,-1.041956434223261,0.20397458374585017,0.7157903453649974,-0.35479514837067083,no_tremor
91,10112148,0.779,-0.09872192908356099,-0.10982737767385638,-1.0418617640522938,0.17507233846604542,0.7110083428908875,-0.361779652579679,no_tremor
92,10112153,0.784,-0.09861816205137683,-0.1098561146275091,-1.0417632932475165,0.14526408884613595,0.7068094585017239,-0.36856068936405156,no_tremor
93,10112158,0.789,-0.09851872186845878,-0.10989057104073205,-1.0416617835690807,0.11464632548934284,0.7032450157981693,-0.37521815077567244,no_tremor
94,10112163,0.794,-0.09842467172904756,-0.1099310466363052,-1.041558064262443,0.08332804690187064,0.7003615453070934,-0.3818404420244756,no_tremor
95,10112172,0.803,-0.09833705466782443,-0.10997778372631511,-1.0414530259337216,0.05143053930352948,0.6982001978429829,-0.3885233297215647,no_tremor
96,10112177,0.808,-0.09825688360650804,-0.11003096185097332,-1.0413476137132152,0.019086988461938854,0.696796210360779,-0.3953686877890299,no_tremor
97,10112182,0.813,-0.09818513135692748,-0.11009069295518763,-1.0412428197794485,-0.013558072606840815,0.6961784351385663,-0.4024831554651889,no_tremor
98,10112186,0.817,-0.0981227206534789,-0.11015701717008002,-1.0411396753114877,-0.04634947489556266,0.6963689425508193,-0.4099767199155137,no_tremor
99,10112191,0.822,-0.0980705142874505,-0.11022989926724709,-1.0410392419307426,-0.0791222773667569,0.6973827068116676,-0.41796123531648116,no_tremor
100,10112196,0.827,-0.09802930541590833,-0.1103092258552254,-1.0409426026867197,-0.11170277582541586,0.6992273827428329,-0.42654889118160216,no_tremor
101,10112201,0.832,-0.0979998081189048,-0.11039480338940412,-1.0408508526356504,-0.14390964677640047,0.7019031802233479,-0.4358506443958371,no_tremor
102,10112206,0.837,-0.09798264828103129,-0.11048635706726434,-1.0407650890577318,-0.1755552141836869,0.7054028417742367,-0.4459746307234668,no_tremor
103,10112211,0.842,-0.0979783548771121,-0.11058353067890106,-1.0406864013584498,-0.206446825504601,0.7097117273936704,-0.4570245717407966,no_tremor
104,10112221,0.852,-0.09798735174736362,-0.11068588747692971,-1.0406158607022766,-0.23638832287023456,0.7148080086454944,-0.46909819261790386,no_tremor
105,10112245,0.876,-0.09800994995468239,-0.11079291211896983,-1.0405545094327622,-0.2651815960450797,0.7206629708713231,-0.48228566618993485,no_tremor
106,10112250,0.881,-0.09804634082567788,-0.11090401371918678,-1.040503350341308,-0.29262820544362084,0.7272414187763506,-0.4966681002813386,no_tremor
107,10112255,0.886,-0.09809658978699787,-0.1110185300227106,-1.0404633358573319,-0.3185310648741586,0.7345021775395602,-0.5123160878875308,no_tremor
108,10112260,0.891,-0.09816063111826681,-0.11113573268894275,-1.0404353572445115,-0.3426961737275356,0.7423986798274319,-0.5292883420909931,no_tremor
109,10112265,0.896,-0.09823826375115789,-0.11125483363868618,-1.0404202339006616,-0.3649343869778135,0.7508796286888152,-0.5476304383383066,no_tremor
110,10112269,0.9,-0.09832914824946201,-0.11137499238820896,-1.0404187028716885,-0.3850632096338742,0.759889726500765,-0.5673736860727415,no_tremor
111,10112274,0.905,-0.09843280510651697,-0.11149532426326748,-1.0404314087022168,-0.4029086013244838,0.769370459973663,-0.58853415056019,no_tremor
112,10112279,0.91,-0.09854861449319374,-0.11161490935983312,-1.0404588937561483,-0.41830677685415024,0.7792609303264972,-0.6111118444958006,no_tremor
113,10112284,0.915,-0.09867581758098383,-0.11173280209738039,-1.0405015891489693,-0.4311059892121405,0.7894987162268962,-0.6350901074507094,no_tremor
114,10112299,0.93,-0.09881351954971698,-0.11184804119629241,-1.0405598064394557,-0.44116828163114147,0.8000207549956553,-0.6604351892030383,no_tremor
115,10112303,0.934,-0.09896069436723143,-0.11195965990397505,-1.0406337302309483,-0.4483711942118137,0.8107642248012694,-0.6870960504945152,no_tremor
116,10112308,0.939,-0.09911619139836844,-0.11206669629491782,-1.0407234118309243,-0.45260940851769355,0.8216674074356768,-0.7150043917697867,no_tremor
117,10112313,0.944,-0.09927874386309254,-0.11216820347791365,-1.040828764111357,-0.453796311142027,0.8326705087913996,-0.7440749169906183,no_tremor
118,10112318,0.949,-0.09944697911948355,-0.11226325955798958,-1.040949557700638,-0.4518654550711468,0.8437164135497851,-0.7742058357419918,no_tremor
119,10112322,0.953,-0.09961943069898235,-0.1123509772196332,-1.0410854186203522,-0.44677189567231124,0.8547513525217426,-0.8052796024877922,no_tremor
120,10112327,0.958,-0.09979455197144545,-0.11243051281953251,-1.0412358274572433,-0.43849337633638225,0.865725465602231,-0.8371638866630795,no_tremor
121,10112337,0.968,-0.09997073126928338,-0.11250107489923235,-1.0414001201329726,-0.4270313378810796,0.8765932498796607,-0.8697127611195072,no_tremor
122,10112346,0.977,-0.10014630825608736,-0.11256193204913864,-1.0415774903027009,-0.4124117266459062,0.8873138898185514,-0.9027680895748182,no_tremor
123,10112371,1.002,-0.10031959128837825,-0.11261242007382935,-1.0417669933795368,-0.3946855790391176,0.8978514728156637,-0.9361610867951116,no_tremor
124,10112376,1.007,-0.10048887549183348,-0.11265194842372361,-1.0419675521475684,-0.3739293646772649,0.9081750973421666,-0.9697140190937584,no_tremor
125,10112381,1.012,-0.10065246125704577,-0.11268000586945592,-1.042177963894484,-0.3502450754006265,0.9182588819314759,-1.0032420085412543,no_tremor
126,10112385,1.016,-0.10080867285444621,-0.11269616540312782,-1.0423969089688576,-0.32376005239747474,0.9280818822688098,-1.036554903179205,no_tremor
127,10112390,1.021,-0.10095587687193988,-0.1127000883557654,-1.042622960649051,-0.29462654762333607,0.9376279221257104,-1.0694591775842803,no_tremor
128,10112395,1.026,-0.10109250019002887,-0.11269152772365298,-1.0428545962002729,-0.2630210185818591,0.9468853431616271,-1.1017598320685413,no_tremor
129,10112400,1.031,-0.10121704722611405,-0.11267033069838932,-1.0430902089917584,-0.22914315798818755,0.9558466789931882,-1.1332622630896785,no_tremor
130,10112405,1.036,-0.10132811620132229,-0.11263644039696707,-1.0433281215447403,-0.1932146625715941,0.9645082600396719,-1.1637740813344353,no_tremor
131,10112409,1.04,-0.10142441420909899,-0.11258989678927385,-1.043566599381717,-0.15547774863250635,0.9728697572624723,-1.1931068574949297,no_tremor
132,10112414,1.045,-0.10150477089457566,-0.11253083682151324,-1.0438038655468873,-0.11619342596291818,0.9809336749921842,-1.22107777922118,no_tremor
133,10112419,1.05,-0.10156815058686233,-0.11245949373553908,-1.0440381156655298,-0.07563954614023655,0.9887048052073157,-1.2475112061344673,no_tremor
134,10112424,1.055,-0.10161366276213152,-0.11237619558638832,-1.0442675334062137,-0.03410864557570899,0.9961896571378295,-1.2722401130316645,no_tremor
135,10112429,1.06,-0.10164057075250962,-0.112281362963758,-1.0444903062041861,0.008094392496384578,1.003395876254143,-1.2951074144537436,no_tremor
136,10112438,1.069,-0.10164829865292856,-0.1121755059281018,-1.0447046410976126,0.050654830011027156,1.0103316654584626,-1.3159671666243806,no_tremor
137,10112443,1.074,-0.10163643641358927,-0.11205922017861643,-1.0449087805214237,0.09325069086297065,1.0170052191859735,-1.3346856453872717,no_tremor
138,10112448,1.079,-0.10160474313792872,-0.1119331824786904,-1.0451010178973488,0.13555547161935327,1.0234241789212308,-1.3511423012108883,no_tremor
139,10112453,1.084,-0.10155314863353762,-0.11179814537426548,-1.0452797128544258,0.17724091396689137,1.029595116701187,-1.3652305944930823,no_tremor
140,10112457,1.088,-0.10148175328540092,-0.11165493125170238,-1.0454433059128494,0.21797980609984832,1.0355230515349525,-1.3768587158630814,no_tremor
141,10112462,1.093,-0.10139082633689271,-0.11150442579371145,-1.0455903324660627,0.25744878044657205,1.0412110022460712,-1.385950196389594,no_tremor
142,10112491,1.122,-0.10128080267457909,-0.11134757090417938,-1.0457194359016913,0.29533107583547724,1.0466595786111506,-1.392444411424434,no_tremor
143,10112496,1.127,-0.1011522782187662,-0.11118535718456221,-1.0458293797113432,0.3313192332447431,1.0518666104999987,-1.396296979799573,no_tremor
144,10112501,1.132,-0.101006004023391,-0.11101881605466593,-1.0459190584525282,0.36511769582132414,1.0568268129778524,-1.3974800581974514,no_tremor
145,10112506,1.137,-0.10084287918649328,-0.11084901161728354,-1.045987507443166,0.3964452859601126,1.0615314856710076,-1.395982529543987,no_tremor
146,10112511,1.142,-0.1006639426664311,-0.11067703236765775,-1.0460339110901704,0.4250375345878568,1.0659682471633911,-1.3918100845639618,no_tremor
147,10112516,1.147,-0.10047036409016251,-0.11050398284458325,-1.0460576097776446,0.4506488401082213,1.0701208079318756,-1.3849851968859108,no_tremor
148,10112525,1.156,-0.10026343363003011,-0.11033097531096778,-1.04605810526595,0.47305443696954763,1.0739687869913093,-1.3755469935331976,no_tremor
149,10112530,1.161,-0.1000445510166646,-0.11015912153936136,-1.0460350645788288,0.49205215699639265,1.0774875784394107,-1.3635510237170096,no_tremor
150,10112535,1.166,-0.09981521374997857,-0.10998952476400244,-1.0459883223804713,0.5074639704677014,1.0806482754061066,-1.3490689296260552,no_tremor
151,10112540,1.171,-0.09957700456944081,-0.10982327184688052,-1.045917881866792,0.5191372977987654,1.083417660434741,-1.3321880237904773,no_tremor
152,10112545,1.176,-0.09933157824969,-0.10966142569253533,-1.0458239142144163,0.5269460859251321,1.0857582719411798,-1.3130107787373442,no_tremor
153,10112550,1.181,-0.0990806477976485,-0.10950501793582468,-1.0457067566465779,0.5307916458835272,1.0876285550656233,-1.2916542357767296,no_tremor
154,10112554,1.185,-0.09882597014119368,-0.10935504191932964,-1.0455669091873094,0.5306032499358796,1.0889831017238152,-1.2682493402670478,no_tremor
155,10112564,1.195,-0.09856933141513279,-0.10921244597269672,-1.0454050301842734,0.5263384884170748,1.0897729794156508,-1.2429402100008697,no_tremor
156,10112569,1.2,-0.09831253196552933,-0.10907812700501571,-1.0452219306866912,0.5179833885959767,1.089946142234104,-1.2158833414081658,no_tremor
157,10112573,1.204,-0.09805737120618556,-0.10895292442300995,-1.0450185677685855,0.5055523000010711,1.089447911974155,-1.1872467558624233,no_tremor
158,10112579,1.21,-0.09780563246946082,-0.10883761439183512,-1.044796036889395,0.48908755238465135,1.088221513989098,-1.1572090863217823,no_tremor
159,10112583,1.214,-0.09755906799661411,-0.10873290446090453,-1.0445555633844807,0.468658893519868,1.0862086525827421,-1.1259586030150375,no_tremor
160,10112588,1.219,-0.09731938421079027,-0.10863942858355674,-1.0442984931775907,0.44436271453829035,1.0833501142243223,-1.093692175705073,no_tremor
161,10112612,1.243,-0.0970882274100272,-0.10855774256573872,-1.0440262828063875,0.4163210710258365,1.0795863928734097,-1.0606141693239042,no_tremor
162,10112617,1.248,-0.09686717001011777,-0.1084883199844217,-1.043740488850853,0.3846805092050983,1.0748583387996034,-1.02693526983246,no_tremor
163,10112622,1.253,-0.09665769745949387,-0.10843154862039574,-1.0434427568526834,0.34961070866633326,1.069107838290689,-0.9928712381841678,no_tremor
164,10112627,1.258,-0.09646119594154262,-0.10838772745160445,-1.0431348098114355,0.3113029560520921,1.062278534024429,-0.9586415921024471,no_tremor
165,10112632,1.263,-0.0962789409740742,-0.10835706425172391,-1.042818436340045,0.26996846695255544,1.0543165933453609,-0.9244682177486384,no_tremor
166,10112641,1.272,-0.09611208701041689,-0.10833967383420327,-1.0424954785586822,0.2258365752017208,1.045171525291912,-0.8905739160280439,no_tremor
167,10112646,1.277,-0.09596165814078692,-0.10833557697489454,-1.042167819802323,0.1791528097082335,1.034797039602317,-0.8571808910215183,no_tremor
168,10112650,1.281,-0.09582853998518666,-0.10834470003733677,-1.0418373722145893,0.13017687936136735,1.0231519346705364,-0.8245091905160074,no_tremor
169,10112655,1.286,-0.09571347285950696,-0.10836687531435164,-1.0415060642988008,0.07918058668245075,1.0102009978605644,-0.7927751104298778,no_tremor
170,10112660,1.291,-0.09561704628465399,-0.10840184208840854,-1.0411758284970498,0.02644569056242052,0.9959159005323536,-0.762189575870907,no_tremor
171,10112675,1.306,-0.09553969489481809,-0.10844924840172017,-1.0408485888694954,-0.02773826264929475,0.9802760704995762,-0.7329565119952144,no_tremor
172,10112679,1.31,-0.09548169578627647,-0.10850865351568187,-1.0405262489487022,-0.08307612221356207,0.96326952539374,-0.7052712184748553,no_tremor
173,10112684,1.315,-0.09544316733335904,-0.1085795310285041,-1.0402106798471749,-0.13926931458462652,0.944893651015398,-0.6793187625114523,no_tremor
174,10112694,1.325,-0.09542406948428003,-0.10866127261013869,-1.0399037086993836,-0.19601800884395867,0.925155909161895,-0.6552724065797856,no_tremor
175,10112698,1.329,-0.09542420553687415,-0.10875319230524104,-1.039607107521703,-0.25302325101345186,0.9040744599816801,-0.6332920880171332,no_tremor
176,10112703,1.334,-0.09544322538263415,-0.10885453134822995,-1.039322582574187,-0.309989051171796,0.8816786849205166,-0.6135229681767453,no_tremor
177,10112713,1.344,-0.09548063019595256,-0.10896446342975995,-1.0390517643067003,-0.3666244060166395,0.8580095973578079,-0.5960940695201089,no_tremor
178,10112738,1.369,-0.09553577853291988,-0.10908210035138097,-1.0387961979685634,-0.4226452380670251,0.8331201280849125,-0.5811170201584068,no_tremor
179,10112743,1.374,-0.09560789378919321,-0.10920649800509502,-1.0385573349556674,-0.4777762310521837,0.8070752716085523,-0.5686849267644773,no_tremor
180,10112748,1.379,-0.09569607294833705,-0.10933666261704424,-1.0383365249619696,-0.5317525399804386,0.7799520783123151,-0.5588713973759614,no_tremor
181,10112752,1.383,-0.09579929653032143,-0.10947155719943646,-1.0381350089931873,-0.5843213550617674,0.7518394790187329,-0.5517297343669173,no_tremor
182,10112757,1.388,-0.09591643962531886,-0.10961010816138603,-1.0379539132889999,-0.635243301301473,0.7228379334843669,-0.5472923148378573,no_tremor
183,10112762,1.393,-0.09604628387249278,-0.10975121203682,-1.0377942441860413,-0.6842936593967035,0.6930589017298391,-0.545570171718951,no_tremor
184,10112767,1.398,-0.09618753021956691,-0.10989374229538043,-1.037656883937711,-0.7312633976753089,0.6626241447254286,-0.5465527846185866,no_tremor
185,10112772,1.403,-0.09633881227883592,-0.1100365562100743,-1.037542587488959,-0.7759600088488279,0.6316648672206729,-0.5502080848920166,no_tremor
186,10112777,1.408,-0.09649871008051893,-0.11017850176324236,-1.037451980185622,-0.8182081494308701,0.6003207199885731,-0.5564826744985377,no_tremor
187,10112782,1.413,-0.09666576401592436,-0.11031842458024974,-1.0373855563796173,-0.8578500840779777,0.5687386819326122,-0.5653022534073178,no_tremor
188,10112786,1.417,-0.0968384887612184,-0.11045517488809606,-1.0373436788744603,-0.8947459416055414,0.5370718450279053,-0.5765722463415875,no_tremor
189,10112791,1.422,-0.09701538697767065,-0.11058761450366937,-1.0373265791411839,-0.9287737931014254,0.5054781270695695,-0.5901786169380329,no_tremor
190,10112801,1.432,-0.09719496259571418,-0.11071462386310883,-1.0373343582237855,-0.9598295648847255,0.47411893833516977,-0.6059888558573666,no_tremor
191,10112806,1.437,-0.09737573350730837,-0.11083510910881363,-1.0373669882465857,-0.9878268007293011,0.44315782819624805,-0.6238531286281959,no_tremor
192,10112810,1.441,-0.09755624351303539,-0.11094800925278493,-1.037424314433878,-1.012696289712052,0.4127591362340232,-0.6436055685211826,no_tremor
193,10112820,1.451,-0.09773507339611424,-0.11105230343276916,-1.0375060575550976,-1.0343855780619613,0.3830866693313294,-0.66506569911298,no_tremor
194,10112825,1.456,-0.09791085102406547,-0.11114701826986376,-1.0376118167161144,-1.0528583845337425,0.3543024216437581,-0.6880399704149479,no_tremor
195,10112829,1.46,-0.09808226040909052,-0.11123123532227397,-1.0377410724284835,-1.0680939386595618,0.32656534921954566,-0.7123233918873206,no_tremor
196,10112834,1.465,-0.09824804968942345,-0.11130409861000655,-1.037893189902802,-1.0800862600919747,0.3000302068314151,-0.7377012455933879,no_tremor
197,10112859,1.49,-0.09840703802525498,-0.1113648221604844,-1.0380674225289015,-1.0888433957646744,0.2748464524442205,-0.7639508630691578,no_tremor
198,10112864,1.495,-0.09855812143375706,-0.11141269749725803,-1.038262915523649,-1.094386630209243,0.2511572248206343,-0.7908434499570067,no_tremor
199,10112869,1.5,-0.09870027761753675,-0.11144710096611608,-1.0384787097456265,-1.0967496831056014,0.2290984012670229,-0.8181459428704724,no_tremor
200,10112878,1.509,-0.098832569868336,-0.11146750076870841,-1.0387137456936604,-1.0959779067245203,0.20879774410961674,-0.845622883107233,no_tremor
201,10112883,1.514,-0.09895415015125583,-0.11147346355671539,-1.0389668677217652,-1.0921274941791514,0.19037414484760629,-0.8730382916922889,no_tremor
202,10112888,1.519,-0.09906426149216202,-0.11146466043141752,-1.039236828515519,-1.0852647074771853,0.1739369732126616,-0.900157530389632,no_tremor
203,10112898,1.529,-0.09916223980004568,-0.11144087219415648,-1.039522293883635,-1.075465132483744,0.15958553439446707,-0.9267491346494338,no_tremor
204,10112908,1.539,-0.09924751525505894,-0.1114019937014545,-1.0398218479233476,-1.062812966268112,0.1474086320339037,-0.9525866070194359,no_tremor
205,10112912,1.543,-0.09931961338070078,-0.11134803719298107,-1.0401339986192881,-1.0474003409799553,0.1374842285033336,-0.9774501621310068,no_tremor
206,10112922,1.553,-0.09937815589557898,-0.11127913447967944,-1.0404571839329928,-1.0293266871974511,0.12987918899288017,-1.0011284155862084,no_tremor
207,10112927,1.558,-0.09942286140831293,-0.11119553790190391,-1.0407897784342728,-1.0086981384590203,0.12464909318830143,-1.023420008579598,no_tremor
208,10112932,1.563,-0.09945354598196154,-0.1110976199922463,-1.0411301005166245,-0.9856269774928145,0.12183809854440383,-1.0441351585789453,no_tremor
209,10112937,1.568,-0.09947012355636324,-0.11098587180384539,-1.0414764202269318,-0.9602311234128107,0.12147884234367866,-1.0630971248314496,no_tremor
210,10112942,1.573,-0.09947260618249724,-0.11086089989152886,-1.0418269677252685,-0.9326336575807539,0.1235923747821904,-1.0801435764378193,no_tremor
211,10112947,1.578,-0.09946110399589518,-0.11072342195948402,-1.042179942374065,-0.9029623838940045,0.1281881202138065,-1.0951278502179713,no_tremor
212,10112951,1.582,-0.09943582483809273,-0.11057426121484815,-1.0425335224378232,-0.871349417242558,0.1352638668343318,-1.1079200853037747,no_tremor
213,10112956,1.587,-0.09939707342651924,-0.11041433949132934,-1.0428858753555366,-0.8379307922048828,0.14480578655790402,-1.1184082213704243,no_tremor
214,10112986,1.617,-0.09934524997353536,-0.11024466923042267,-1.0432351685286525,-0.8028460830864391,0.1567884877275517,-1.126498848054352,no_tremor
215,10113001,1.632,-0.09928084816341182,-0.1100663444294844,-1.0435795805486079,-0.7662380261498261,0.1711751040758825,-1.132117894700403,no_tremor
216,10113005,1.636,-0.09920445241024618,-0.10988053068481711,-1.0439173127706716,-0.7282521348999343,0.18791742325305577,-1.1352111520217243,no_tremor
217,10113010,1.641,-0.09911673433802101,-0.10968845447235205,-1.0442466011263007,-0.6890362993180947,0.20695605652622862,-1.135744620122928,no_tremor
218,10113020,1.651,-0.09901844844398891,-0.10949139181704082,-1.0445657280553935,-0.648740360447855,0.22822064851168083,-1.1337046801095954,no_tremor
219,10113025,1.656,-0.0989104269266167,-0.10929065650448963,-1.0448730344327368,-0.607515653309126,0.25163012352461595,-1.1290980887070792,no_tremor
220,10113030,1.661,-0.09879357367863696,-0.1090875879859212,-1.0451669313588916,-0.5655145136474762,0.2770929644026323,-1.1219517966625436,no_tremor
221,10113035,1.666,-0.09866885746430842,-0.1088835391221154,-1.0454459116838302,-0.5228897469690011,0.3045075206870817,-1.112312592210731,no_tremor
222,10113040,1.671,-0.0985373043180741,-0.10867986390525904,-1.0457085611311783,-0.479794061341569,0.33376234558031315,-1.1002465708009104,no_tremor
223,10113044,1.675,-0.09839998921969532,-0.10847790529079723,-1.0459535688915995,-0.436379468312741,0.36473656473861765,-1.0858384320935957,no_tremor
224,10113049,1.68,-0.09825802711870958,-0.10827898326507038,-1.0461797375555728,-0.3927966586067899,0.39730028418329827,-1.0691906055330636,no_tremor
225,10113054,1.685,-0.09811256339854124,-0.10808438326897708,-1.0463859922586278,-0.3491943609300859,0.43131504858597597,-1.050422207025593,no_tremor
226,10113059,1.69,-0.09796476388738762,-0.1078953450930367,-1.046571388916273,-0.30571869359945114,0.4666343636461169,-1.0296678315918726,no_tremor
227,10113064,1.695,-0.09781580453851203,-0.10771305235470914,-1.0467351214317522,-0.2625125198742992,0.5031042960477138,-1.0070761903660088,no_tremor
228,10113068,1.699,-0.09766686091607732,-0.1075386226641749,-1.0468765277679062,-0.21971481824550865,0.5405641614499149,-0.9828086048746425,no_tremor
229,10113078,1.709,-0.09751909763336927,-0.10737309857940369,-1.0469950947853297,-0.17746007805694886,0.5788473062405918,-0.9570373766603435,no_tremor
230,10113103,1.734,-0.097373657897401,-0.10721743944458614,-1.0470904617632064,-0.13587772893720107,0.6177819836228619,-0.9299440551641803,no_tremor
231,10113108,1.739,-0.0972316533166096,-0.10707251419702395,-1.0471624225371103,-0.09509161012288547,0.6571923196103467,-0.9017176305718786,no_tremor
232,10113113,1.744,-0.09709415412581628,-0.10693909521532007,-1.0472109262096474,-0.05521948333412232,0.696899359917077,-0.8725526806485521,no_tremor
233,10113118,1.749,-0.09696217997435919,-0.10681785326528619,-1.0472360764143585,-0.016372591019831215,0.7367221849253303,-0.8426475012652407,no_tremor
234,10113128,1.759,-0.09683669140970441,-0.10670935357938459,-1.0472381291394195,0.021344738954817935,0.7764790772664413,-0.8122022493749533,no_tremor
235,10113133,1.764,-0.0967185821711112,-0.10661405308207902,-1.0472174891437174,0.05783544100828868,0.8159887249549646,-0.7814171250391742,no_tremor
236,10113137,1.768,-0.09660867238752795,-0.10653229874955966,-1.0471747050224325,0.0930100107317938,0.8550714418490656,-0.7504906163018001,no_tremor
237,10113142,1.773,-0.09650770275188775,-0.10646432707056538,-1.0471104630012336,0.1267867543211118,0.8935503858358709,-0.7196178274122532,no_tremor
238,10113147,1.778,-0.09641632972085372,-0.10641026455758207,-1.0470255795568375,0.15909198860924967,0.9312527535294912,-0.6889889069887689,no_tremor
239,10113152,1.783,-0.09633512176498295,-0.10637012924574035,-1.0469209929765577,0.189860191934001,0.9680109290201381,-0.6587875885181766,no_tremor
240,10113156,1.787,-0.09626455666930686,-0.10634383311053179,-1.046797753980338,0.21903410558529032,1.0036635640919627,-0.6291898520445058,no_tremor
241,10113166,1.797,-0.0962050198586688,-0.10633118533459411,-1.0466570155355415,0.24656478475922966,1.0380565689327474,-0.6003627137409812,no_tremor
242,10113176,1.807,-0.09615680369637843,-0.10633189635738584,-1.0465000219974876,0.2724115970708004,1.0710439959337115,-0.5724631491107333,no_tremor
243,10113180,1.811,-0.09612010768006232,-0.1063455826482111,-1.0463280977076184,0.2965421657733145,1.1024888044730181,-0.5456371549586332,no_tremor
244,10113185,1.816,-0.09609503943705926,-0.10637177215097347,-1.046142635176671,0.31893225395300756,1.132263501058894,-0.5200189541525053,no_tremor
245,10113190,1.821,-0.09608161640580692,-0.10640991035631686,-1.0459450829729051,0.33956558565125744,1.1602506563006216,-0.4957303450005913,no_tremor
246,10113195,1.826,-0.09607976808140893,-0.10645936696189959,-1.045736933426,0.3584336012806242,1.1863433068684908,-0.47288019371832446,no_tremor
247,10113200,1.831,-0.09608933870375413,-0.10651944308356641,-1.0455197102465754,0.3755351485142997,1.210445255179396,-0.45156406452395764,no_tremor
248,10113226,1.857,-0.09611009027472887,-0.10658937897888104,-1.045294956150295,0.39087611465740063,1.232471280570633,-0.4318639784864931,no_tremor
249,10113231,1.862,-0.09614170580593509,-0.10666836223994561,-1.0450642205651284,0.4044690096530304,1.2523472735515018,-0.41384829026010395,no_tremor
250,10113235,1.866,-0.09618379271822435,-0.10675553640486124,-1.044829047491521,0.4163325090208039,1.2700103017704383,-0.3975716715304633,no_tremor
251,10113240,1.871,-0.09623588633755586,-0.10685000992684415,-1.0445909635789288,0.42649096419139915,1.2854086156319444,-0.38307519099827014,no_tremor
252,10113250,1.881,-0.09629745345678985,-0.10695086542735638,-1.0443514664791325,0.43497388566072126,1.2985016043975437,-0.3703864821554054,no_tremor
253,10113260,1.891,-0.0963678959591414,-0.10705716914540643,-1.044112013537199,0.4418154031327611,1.3092597185977948,-0.359519990993658,no_tremor
254,10113265,1.896,-0.09644655452541333,-0.10716798048057216,-1.0438740108846831,0.4470537063646749,1.317664378419533,-0.3504772958350186,no_tremor
255,10113270,1.901,-0.09653271247254362,-0.10728236151373735,-1.0436388030061106,0.4507304704227063,1.3237078877444644,-0.3432474912208807,no_tremor
256,10113275,1.906,-0.0966255997933315,-0.10739938637843395,-1.0434076628583082,0.45289026938494625,1.327393369063513,-0.33780762780448287,no_tremor
257,10113279,1.91,-0.09672439748392114,-0.10751815034803926,-1.0431817826318053,0.45357998325646165,1.3287347268101601,-0.3341232006034125,no_tremor
258,10113284,1.915,-0.09682824225462354,-0.10763777850031518,-1.0429622652533819,0.45284820391996544,1.32775663763074,-0.33214867891472094,no_tremor
259,10113289,1.92,-0.0969362317197374,-0.10775743382096752,-1.0427501167376885,0.45074464715574875,1.3244945571608353,-0.3318280728826928,no_tremor
260,10113294,1.925,-0.09704743015288199,-0.10787632461207723,-1.0425462395025675,0.44731957901410707,1.3189947249362468,-0.3330955339784477,no_tremor
261,10113299,1.93,-0.09716087487646456,-0.10799371107955731,-1.042351426766004,0.44262326599273527,1.3113141431772355,-0.3358759890497392,no_tremor
262,10113303,1.934,-0.09727558332852516,-0.10810891098643649,-1.042166358141376,0.4367054594891403,1.3015205023839391,-0.3400858099458784,no_tremor
263,10113308,1.939,-0.09739056081931358,-0.10822130427591051,-1.0419915965409732,0.429614925958592,1.2896920272649404,-0.34563352294322874,no_tremor
264,10113313,1.944,-0.09750480895610218,-0.10833033658962343,-1.041827586485167,0.4213990350761932,1.2759172199974425,-0.35242056371943425,no_tremor
265,10113318,1.949,-0.09761733468064285,-0.10843552163212083,-1.0416746538962145,0.41210341856250127,1.2602944835203325,-0.3603420836599797,no_tremor
266,10113323,1.954,-0.09772715983173429,-0.10853644236118036,-1.0415330074318558,0.40177171179054333,1.2429316148004699,-0.36928781164414765,no_tremor
267,10113348,1.979,-0.09783333111725177,-0.10863275101491442,-1.041402741385269,0.39044538879004537,1.2239451658292784,-0.37914297263519003,no_tremor
268,10113353,1.984,-0.09793493035643402,-0.10872416801898872,-1.0412838401453617,0.3781636987638479,1.2034596773173234,-0.38978926097622785,no_tremor
269,10113358,1.989,-0.0980310848339035,-0.10881047984923825,-1.0411761841758074,0.36496370869728895,1.1816067954141278,-0.40110586260895953,no_tremor
270,10113363,1.994,-0.09812097759063547,-0.10889153595400033,-1.0410795574339342,0.3508804526402665,1.1585242843167403,-0.4129705166874687,no_tremor
271,10113367,1.998,-0.0982038574625554,-0.10896724486432674,-1.0409936561131141,0.3359471848376611,1.134354947509171,-0.4252606035937793,no_tremor
272,10113372,2.003,-0.09827904866408528,-0.10903756963758889,-1.04091809855623,0.3201957315430874,1.1092454693400242,-0.43785424365048187,no_tremor
273,10113377,2.008,-0.09834595970249699,-0.10910252279076672,-1.0408524361546276,0.3036569344349216,1.0833451889248418,-0.45063138912563216,no_tremor
274,10113382,2.013,-0.09840409140125143,-0.1091621608844834,-1.040796165017968,0.2863611760712335,1.0568048210548378,-0.46347489136934916,no_tremor
275,10113392,2.023,-0.09845304380919549,-0.10921657891829144,-1.0407487381766611,0.2683389743159093,1.0297751434889464,-0.4762715250333202,no_tremor
276,10113396,2.027,-0.09849252178023653,-0.10926590469244514,-1.040709578060913,0.24962162845729752,1.002405675431433,-0.48891295232939924,no_tremor
277,10113401,2.032,-0.09852233902706656,-0.10931029328191381,-1.0406780889897376,0.23024189572628956,0.9748433765214003,-0.5012966120524056,no_tremor
278,10113406,2.037,-0.09854242048377518,-0.10934992175507767,-1.040653669400437,0.21023467419469133,0.9472313975779674,-0.513326520272186,no_tremor
279,10113411,2.042,-0.09855280285541926,-0.10938498425268332,-1.0406357235546855,0.18963766731490256,0.9197079126340278,-0.5249139719301592,no_tremor
280,10113416,2.047,-0.09855363328579535,-0.10941568752251783,-1.0406236724716174,0.16849200658540495,0.89240505684312,-0.5359781350928201,no_tremor
281,10113426,2.057,-0.09854516613443892,-0.109442246982271,-1.0406169638607063,0.14684281131062785,0.8654479881759725,-0.5464465323951965,no_tremor
282,10113430,2.061,-0.0985277579161901,-0.10946488335769912,-1.0406150808569545,0.12473966743384095,0.8389540841133155,-0.5562554070422395,no_tremor
283,10113435,2.066,-0.09850186051717018,-0.1094838199161803,-1.0406175493969398,0.1022370103919696,0.813032278929247,-0.5653499733179248,no_tremor
284,10113440,2.071,-0.09846801285546695,-0.10949928028802751,-1.040623944115457,0.0793943993422288,0.7877825429832899,-0.5736845539203079,no_tremor
285,10113445,2.076,-0.09842683119988849,-0.10951148684070187,-1.040633892687372,0.05627667174352395,0.7632955023317302,-0.5812226089034241,no_tremor
286,10113469,2.1,-0.09837899839414606,-0.10952065954568893,-1.0406470785863147,0.032953968679374765,0.7396521944382061,-0.5879366635074179,no_tremor
287,10113479,2.11,-0.09832525225666078,-0.10952701525585179,-1.0406632422790842,0.009501623342370633,0.716923953750149,-0.5938081440039137,no_tremor
288,10113488,2.119,-0.09826637343833715,-0.1095307672946851,-1.0406821809198763,-0.01400009186502537,0.6951724195587468,-0.5988271311605398,no_tremor
289,10113493,2.124,-0.09820317302238052,-0.10953212525059602,-1.040703746648793,-0.037466360423566714,0.674449657635754,-0.6029920400684,no_tremor
290,10113498,2.129,-0.0981364801416544,-0.10953129487094257,-1.040727843631848,-0.06080835590587738,0.6547983860166355,-0.6063092335664974,no_tremor
291,10113503,2.134,-0.09806712987066965,-0.10952847796185358,-1.04075442400337,-0.08393390852374219,0.6362522935000319,-0.6087925750040893,no_tremor
292,10113513,2.144,-0.09799595162224264,-0.10952387221857576,-1.0407834828863944,-0.10674829377331149,0.6188364369653616,-0.6104629250084916,no_tremor
293,10113527,2.158,-0.09792375824484435,-0.10951767093405851,-1.0408150526734417,-0.1291551296522024,0.60256770092314,-0.6113475865712219,no_tremor
294,10113532,2.163,-0.0978513359777379,-0.10951006255760684,-1.040849196750294,-0.15105736581995424,0.5874553005529967,-0.6114797031456025,no_tremor
295,10113537,2.168,-0.09777943537966842,-0.10950123009805256,-1.0408860028402187,-0.1723583452199279,0.5735013086898805,-0.6108976150558534,no_tremor
296,10113542,2.173,-0.097708763306109,-0.10949135038498455,-1.0409255761366922,-0.19296291619317288,0.5607011883466873,-0.6096441797669365,no_tremor
297,10113546,2.177,-0.09763997597287985,-0.10948059321600159,-1.04096803238025,-0.21277857121188792,0.5490443153581299,-0.607766061487207,no_tremor
298,10113551,2.182,-0.09757367311265172,-0.10946912042755515,-1.0410134910209075,-0.23171658739508283,0.5385144800021833,-0.605312995798495,no_tremor
299,10113556,2.187,-0.09751039320671905,-0.10945708493227672,-1.0410620685928105,-0.24969314423953834,0.5290903612607796,-0.6023370361011099,no_tremor
300,10113561,2.192,-0.09745060975795027,-0.10944462976749969,-1.0411138724134117,-0.2666303953711468,0.5207459720135814,-0.5988917906630139,no_tremor
301,10113566,2.197,-0.0973947285618815,-0.10943188719866373,-1.0411689947062364,-0.2824574730241461,0.5134510770107265,-0.5950316615587203,no_tremor
302,10113591,2.222,-0.09734308593086345,-0.10941897791794514,-1.0412275072345365,-0.29711140596220725,0.5071715868643729,-0.5908110992294069,no_tremor
303,10113596,2.227,-0.09729594782960542,-0.10940601037321078,-1.0412894565227102,-0.3105379338063174,0.5018699302242742,-0.5862838882823439,no_tremor
304,10113601,2.232,-0.097253509886966,-0.10939308025567493,-1.0413548597325883,-0.32269220363272677,0.49750540417804845,-0.5815024810304359,no_tremor
305,10113606,2.237,-0.09721589825517267,-0.10938027016694536,-1.041423701251382,-0.33353933834509175,0.4940345021292896,-0.5765173948074166,no_tremor
306,10113620,2.251,-0.09718317129083849,-0.10936764947805795,-1.0414959300360496,-0.34305487027341053,0.49141122013362964,-0.5713766870825946,no_tremor
307,10113630,2.261,-0.09715532203073551,-0.10935527438527468,-1.0415714577444357,-0.35122503697913243,0.4895873459438521,-0.5661255188731252,no_tremor
308,10113635,2.266,-0.09713228142959261,-0.10934318816059109,-1.0416501576670143,-0.35804693888182537,0.4885127380584478,-0.5608058123267817,no_tremor
309,10113644,2.275,-0.097113922318485,-0.10933142158980463,-1.0417318644554026,-0.363528560231295,0.48813560382385346,-0.5554560035076096,no_tremor
310,10113649,2.28,-0.0971000640320107,-0.1093199935881259,-1.041816374626354,-0.3676886565943076,0.48840278583998853,-0.5501108874265614,no_tremor
311,10113663,2.294,-0.09709047764131248,-0.10930891198261836,-1.0419034478039881,-0.3705565136183577,0.48926006457340004,-0.544801549739342,no_tremor
312,10113668,2.299,-0.09708489171850077,-0.10929817445156381,-1.0419928086495511,-0.3721715833250204,0.4906524823909974,-0.5395553778390068,no_tremor
313,10113673,2.304,-0.09708299854630911,-0.1092877696120776,-1.042084149417667,-0.3725830054354865,0.4925246907280571,-0.5343961425268,no_tremor
314,10113678,2.309,-0.09708446067513507,-0.10927767824771144,-1.0421771330710565,-0.37184902191050284,0.4948213185909841,-0.5293441399805875,no_tremor
315,10113682,2.313,-0.09708891771861763,-0.10926787466634924,-1.0422713968819377,-0.37003629262460075,0.4974873577284443,-0.5244163831038459,no_tremor
316,10113687,2.318,-0.0970959932695869,-0.10925832817484096,-1.0423665564471911,-0.36721911906378185,0.5004685578396835,-0.5196268320566181,no_tremor
317,10113712,2.343,-0.09710530181181286,-0.10924900465049436,-1.0424622100450132,-0.36347858195068034,0.5037118241525327,-0.5149866551480581,no_tremor
318,10113717,2.348,-0.09711645550066014,-0.10923986818123957,-1.0425579432622833,-0.3589015985064181,0.5071656095594859,-0.5105045118810744,no_tremor
319,10113722,2.353,-0.0971290706883586,-0.10923088273705299,-1.0426533338235555,-0.3535799058062524,0.5107802938603548,-0.5061868493038546,no_tremor
320,10113726,2.357,-0.09714277407728109,-0.10922201382665615,-1.0427479565541458,-0.34760897823844905,0.5145085427598421,-0.5020382020792921,no_tremor
321,10113736,2.367,-0.09715720839662402,-0.10921323008724282,-1.0428413884112517,-0.3410868894574734,0.5183056388027825,-0.49806148724636823,no_tremor
322,10113741,2.372,-0.09717203751265203,-0.1092045047521361,-1.042933213518529,-0.33411313239599777,0.5221297760453395,-0.4942582866291483,no_tremor
323,10113746,2.377,-0.09718695089838386,-0.10919581694212208,-1.0430230281411168,-0.3267874141908437,0.525942310711747,-0.4906291120957509,no_tremor
324,10113751,2.382,-0.09720166740387216,-0.10918715273046344,-1.043110445539617,-0.3192084451508757,0.5297079613931416,-0.4871736502459639,no_tremor
325,10113755,2.386,-0.0972159382824507,-0.10917850593873382,-1.0431951006427485,-0.3114727416004391,0.533394954210967,-0.48389098345469056,no_tremor
326,10113760,2.391,-0.0972295494416041,-0.1091698786300289,-1.0432766544790526,-0.3036734621321982,0.5369751108441507,-0.48077978410215744,no_tremor
327,10113770,2.401,-0.09724232290000448,-0.10916128127720652,-1.0433547983079767,-0.2958992963706575,0.5404238805325748,-0.47783847874146546,no_tremor
328,10113775,2.406,-0.09725411744539528,-0.10915273259604469,-1.0434292573900015,-0.28823342499091353,0.5437203206979393,-0.47506537894814044,no_tremor
329,10113779,2.41,-0.0972648285018783,-0.10914425904608589,-1.0434997943345834,-0.2807525690658929,0.5468470337305332,-0.47245877575122924,no_tremor
330,10113784,2.415,-0.0972743872299854,-0.10913589401495262,-1.0435662119642248,-0.2735261455130674,0.5497900688600144,-0.47001699514294687,no_tremor
331,10113789,2.42,-0.09728275889855276,-0.10912767671453825,-1.0436283556337551,-0.2666155435528418,0.5525387974087403,-0.4677384133630206,no_tremor
332,10113799,2.43,-0.09728994058339144,-0.10911965082918612,-1.0436861149465853,-0.26007353493857066,0.5550857674296032,-0.4656214323902246,no_tremor
333,10113804,2.435,-0.09729595826338396,-0.10911186296628365,-1.0437394248147325,-0.2539438284858149,0.5574265409028721,-0.4636644181718207,no_tremor
334,10113809,2.44,-0.09730086339922053,-0.10910436096811037,-1.0437882658170323,-0.24826077733313878,0.5595595147228186,-0.4618656061629116,no_tremor
335,10113839,2.47,-0.09730472909289785,-0.10909719214975305,-1.043832663820261,-0.2430492456913675,0.5614857263890819,-0.46022298014472024,no_tremor
336,10113843,2.474,-0.09730764593687342,-0.10909040153102034,-1.0438726888408125,-0.23832464065999934,0.5632086463004329,-0.45873413096034515,no_tremor
337,10113853,2.484,-0.09730971767009805,-0.10908403013045681,-1.0439084531398473,-0.23409311357503404,0.5647339598109364,-0.457396102508246,no_tremor
338,10113858,2.489,-0.09731105676382446,-0.109078113387077,-1.043940108562018,-0.2303519334967509,0.5660693427843712,-0.4562052338685,no_tremor
339,10113862,2.493,-0.09731178006292278,-0.1090726797708837,-1.043967843146312,-0.22709003218097115,0.5672242339233247,-0.4551570085671722,no_tremor
340,10113867,2.498,-0.09731200460823508,-0.10906774963717143,-1.0439918770565926,-0.22428871514657017,0.5682096057651992,-0.4542459235665273,no_tremor
341,10113872,2.503,-0.09731184376210471,-0.10906333437238044,-1.044012457898428,-0.22192252791675895,0.5690377339927359,-0.45346539085697823,no_tremor
