sample,t_ms,t_s,ax,ay,az,gx,gy,gz,tremor
0,9065948,0.0,-0.3660353602021059,-0.12388467464112976,-0.991230411843326,2.1581913954421497,-0.573828027360811,0.8900387518703663,no_tremor
1,9065963,0.015,-0.3659170228908904,-0.12395808195592277,-0.9911385912093617,2.1854768496705743,-0.7637451718328171,0.7065598827698412,no_tremor
2,9065968,0.02,-0.3657566979975732,-0.12406024845146894,-0.9909959190186747,2.2080618038977198,-0.9740784323013635,0.5278583969399095,no_tremor
3,9065977,0.029,-0.36555366616480806,-0.12419382119995634,-0.9907886471171511,2.22568521440063,-1.2027363056897025,0.3543817730597487,no_tremor
4,9066012,0.064,-0.365316071274517,-0.1243561692731994,-0.9905095907219912,2.238111930133799,-1.4472943873346833,0.1865332145013422,no_tremor
5,9066017,0.069,-0.3650565054023592,-0.12454172159651111,-0.9901570727355452,2.245135204122755,-1.7049987262569177,0.024668694154052654,no_tremor
6,9066021,0.073,-0.3647880965062785,-0.12474422298941601,-0.9897325514541383,2.2465790840707456,-1.9727725499524469,-0.13090558051195098,no_tremor
7,9066037,0.089,-0.36452248392856784,-0.12495797731452835,-0.9892387225254835,2.2423006622902926,-2.2472265191616363,-0.27993525446880674,no_tremor
8,9066041,0.093,-0.36426922024498753,-0.12517826575511742,-0.9886784553500999,2.232192161382315,-2.524672655807403,-0.42221943536005685,no_tremor
9,9066046,0.098,-0.36403588393903386,-0.1254013268213302,-0.9880543666154571,2.2161828290678858,-2.80114206450244,-0.5576117960320697,no_tremor
10,9066051,0.103,-0.3638284219566762,-0.12562417661452202,-0.9873687506424071,2.1942406144156323,-3.072406542202872,-0.6860211367457668,no_tremor
11,9066055,0.107,-0.36365149303392674,-0.12584441047258127,-0.9866236671470134,2.1663735986963424,-3.334004144110925,-0.807411373750162,no_tremor
12,9066070,0.122,-0.36350873428322694,-0.12606003907203184,-0.9858210776802782,2.1326311567088445,-3.5812687484917407,-0.9218009212714912,no_tremor
13,9066086,0.138,-0.36340294252168237,-0.12626936959619714,-0.984962981726996,2.093104828005697,-3.809363639382726,-1.0292614351666105,no_tremor
14,9066090,0.142,-0.3633361856566972,-0.12647092646905306,-0.9840515349791318,2.0479288818838928,-4.013319102725826,-1.1299158888342544,no_tremor
15,9066095,0.147,-0.36330986355475775,-0.12666340220013175,-0.9830891465211156,1.9972805656039994,-4.188074003590466,-1.2239359568647814,no_tremor
16,9066099,0.151,-0.36332473507723223,-0.126845629532917,-0.9820785569967159,1.9413800321394936,-4.328521274231291,-1.3115386910516396,no_tremor
17,9066109,0.161,-0.36338092380893355,-0.12701656797958155,-0.9810229011460075,1.8804899514037305,-4.42955719241621,-1.392982487269744,no_tremor
18,9066134,0.186,-0.36347791132833546,-0.1271752996914447,-0.9799257578526476,1.8149148166486644,-4.486134269790418,-1.4685623588752144,no_tremor
19,9066139,0.191,-0.36361452411415573,-0.1273210310934739,-0.9787911901325155,1.7449999647778496,-4.493317507377471,-1.5386045501151304,no_tremor
20,9066143,0.195,-0.36378891828126053,-0.12745309778068095,-0.9776237767721279,1.6711303349788988,-4.44634371584665,-1.603460539377039,no_tremor
21,9066148,0.2,-0.3639985650872066,-0.12757097091705116,-0.9764286367374014,1.593728994164856,-4.340683545272683,-1.6635004963016364,no_tremor
22,9066152,0.204,-0.36424023934949,-0.127674263889587,-0.9752114470432327,1.5132554605283617,-4.172105822361766,-1.7191062696840362,no_tremor
23,9066167,0.219,-0.36451001240456277,-0.12776273832975205,-0.9739784544784406,1.4302038583332413,-3.9367437492787842,-1.7706639956136443,no_tremor
24,9066183,0.235,-0.3648032509099736,-0.12783630887800593,-0.9727364813826243,1.3451009375768965,-3.631162473545471,-1.8185564269050678,no_tremor
25,9066198,0.25,-0.3651146225641409,-0.12789504627147344,-0.9714929255348812,1.2585039902910866,-3.2524274910371833,-1.863155093902832,no_tremor
26,9066203,0.255,-0.36543810964386664,-0.1279391785034589,-0.9702557541070959,1.17099868993912,-2.7981732953429206,-1.9048124120583956,no_tremor
27,9066207,0.259,-0.3657670311059613,-0.12796908994868234,-0.9690334915343095,1.0831968719102694,-2.266671641721725,-1.9438538532112264,no_tremor
28,9066223,0.275,-0.3660940738482089,-0.12798531847296873,-0.9678352010536406,0.9957342633964167,-1.6568987584942407,-1.980570295620866,no_tremor
29,9066227,0.279,-0.36641133356792066,-0.1279885506485349,-0.966670459567119,0.909268161907492,-0.9686008152953681,-2.0152106630780717,no_tremor
30,9066257,0.309,-0.36671036549132996,-0.12797961527261037,-0.9655493254056992,0.824475054207085,-0.20235694342141167,-2.047974956960597,no_tremor
31,9066287,0.339,-0.36698224507707994,-0.1279594754357721,-0.9644822985247377,0.7420481616436743,0.6403609063435668,-2.0790077781735814,no_tremor
32,9066302,0.354,-0.3672176386304936,-0.12792921940751295,-0.9634802726529188,0.6626948933871398,1.5571319913154897,-2.1083924293835796,no_tremor
33,9066307,0.359,-0.3674068836132072,-0.12789005060406022,-0.9625544789456713,0.5871341853068538,2.5445354183004003,-2.136145682225965,no_tremor
34,9066312,0.364,-0.3675400783012003,-0.12784327688403782,-0.9617164207518125,0.5160936991077971,3.598104126339212,-2.162213289428389,no_tremor
35,9066317,0.369,-0.36760718032984074,-0.12779029938862602,-0.9609777991785982,0.45030685496305495,4.712284928930676,-2.186466318015466,no_tremor
36,9066332,0.384,-0.36759811355884775,-0.12773260111024112,-0.9603504292298969,0.3905096723587027,5.880405316505014,-2.2086983767167045,no_tremor
37,9066347,0.399,-0.36750288258801095,-0.12767173534097567,-0.9598461463942802,0.33743739814310303,7.094647696388023,-2.2286238081145817,no_tremor
38,9066352,0.404,-0.36731169415788045,-0.12760931412119358,-0.95947670367678,0.2918209068263698,8.346031718550595,-2.24587691351656,no_tremor
39,9066357,0.409,-0.36701508458480114,-0.1275469967816088,-0.9592536592030585,0.2543828649445816,9.624405301091995,-2.260012275297943,no_tremor
40,9066386,0.438,-0.36660405231306376,-0.12748647865091134,-0.9591882546793064,0.22583365813052675,10.91844492970195,-2.270506236764906,no_tremor
41,9066401,0.453,-0.36607019462015744,-0.12742947998725493,-0.9592912851624693,0.20686708607237053,12.215665759965702,-2.2767595928433004,no_tremor
42,9066406,0.458,-0.36540584747718075,-0.12737773518636147,-0.9595729607745332,0.1981558366873533,13.502441998949136,-2.278101535628833,no_tremor
43,9066411,0.463,-0.36460422753077376,-0.12733298232084522,-0.9600427611683213,0.20034675667321114,14.764037981494054,-2.2737948866971793,no_tremor
44,9066416,0.468,-0.36365957512005853,-0.1272969530723086,-0.9607092837084915,0.2140559411230494,15.984650287257484,-2.263042633184558,no_tremor
45,9066420,0.472,-0.3625672971643016,-0.1272713631265022,-0.9615800864646047,0.23986366999534067,17.147461168608267,-2.2449957675319427,no_tremor
46,9066431,0.483,-0.3613241086571717,-0.12725790310905932,-0.9626615272249616,0.2783092241548329,18.234703478174932,-2.218762411900167,no_tremor
47,9066435,0.487,-0.3599281713909394,-0.12725823014247567,-0.9639585998355362,0.32988561904670094,19.22773719706467,-2.1834181879460783,no_tremor
48,9066445,0.497,-0.35837922841948033,-0.12727396010239825,-0.9654747692526637,0.3950343001627546,20.107137568484017,-2.138017771561818,no_tremor
49,9066449,0.501,-0.3566787326618927,-0.1273066606418066,-0.9672118067744339,0.4741398509996649,20.852794735476948,-2.08160755142038,no_tremor
50,9066469,0.521,-0.35482996795636507,-0.12735784503483852,-0.9691696269856451,0.5675247706039238,21.444024666082004,-2.0132392907764505,no_tremor
51,9066474,0.526,-0.35283816080224456,-0.1274289668682955,-0.97134612801509,0.6754443835610555,21.85969102595712,-1.9319846744668916,no_tremor
52,9066509,0.561,-0.3507105809814922,-0.12752141558005006,-0.9737370367614492,0.7980819501042552,22.078337529790215,-1.8369506075421187,no_tremor
53,9066514,0.566,-0.348456629232751,-0.1276365128130992,-0.9763357607942732,0.9355440477435212,22.07833017123454,-1.7272951183740086,no_tremor
54,9066518,0.57,-0.3460879101650159,-0.12777550952686062,-0.9791332486778884,1.0878562984922078,21.83800859864656,-1.6022437071432714,no_tremor
55,9066523,0.575,-0.34361828864414884,-0.12793958378896164,-0.98211786049628,1.2549595174897281,21.335845771257713,-1.4611059696946083,no_tremor
56,9066538,0.59,-0.34106392796204893,-0.12812983916490764,-0.9852752503731471,1.4367063594535243,20.55061489749286,-1.3032923163160093,no_tremor
57,9066553,0.605,-0.3384433082005102,-0.1283473036296299,-0.9885882627806144,1.6328585385694354,19.461562524065176,-1.1283305950879816,no_tremor
58,9066568,0.62,-0.3357772233238662,-0.1285929289403618,-0.9920368444103226,1.8430846950337196,18.04858651218212,-0.9358824203765916,no_tremor
59,9066573,0.625,-0.33308875567110074,-0.12886759042900664,-0.995597973340425,2.066958978075982,16.292417507691,-0.7257589987206919,no_tremor
60,9066578,0.63,-0.3304032266659846,-0.12917208718854997,-0.999245607171003,2.3039604119863486,14.174802388069224,-0.497936236403074,no_tremor
61,9066608,0.66,-0.32774812272289594,-0.12950714263812202,-1.0029506517192441,2.553473109302598,11.678688053797298,-0.25256890527550996,no_tremor
62,9066648,0.7,-0.32515299549898147,-0.1298734054536573,-1.0066809517656583,2.8147873939401276,8.788403827408203,0.009996363749778348,no_tremor
63,9066664,0.716,-0.32264933583434663,-0.1302714508472245,-1.0104013052245144,3.0871018957682086,5.489840632485772,0.2892094956637775,no_tremor
64,9066668,0.72,-0.3202704209352228,-0.13070178217164927,-1.0140735019751568,3.3695266753509356,1.7706250494723599,0.584307032671325,no_tremor
65,9066673,0.725,-0.3180511345936166,-0.13116483282229363,-1.0176563884343572,3.6610874314239594,-2.379713711421817,0.8943040755392488,no_tremor
66,9066720,0.772,-0.31602776050144754,-0.13166096840787175,-1.0211059587718596,3.9607308327463286,-6.969585914657935,1.2179883281258768,no_tremor
67,9066724,0.776,-0.31423774900494283,-0.13219048916782203,-1.0243754734713508,4.267331000308389,-12.005194487179654,1.5539164530492175,no_tremor
68,9066729,0.781,-0.31271945795002476,-0.13275363262389728,-1.0274156057177435,4.579697147479927,-17.490401283186312,1.9004129285007347,no_tremor
69,9066754,0.806,-0.3115118685838877,-0.13335057646606335,-1.0301746158494554,4.896582367177501,-23.426608380459854,2.255571575927325,no_tremor
70,9066759,0.811,-0.310654277796354,-0.1339814416848176,-1.032598553851928,5.216693537716312,-29.81265629346244,2.617259904990465,no_tremor
71,9066763,0.815,-0.31018596830654716,-0.1346462959707664,-1.0346314895871476,5.538702301884288,-36.644740886170354,2.9831263951954754,no_tremor
72,9066768,0.82,-0.3101458587293948,-0.13534515740507527,-1.0362157701554706,5.861257055434662,-43.916350631960576,3.3506108026203067,no_tremor
73,9066772,0.824,-0.31057213579492493,-0.13607799845946003,-1.0372923034731483,6.182995860822414,-51.61822569815894,3.716957545284608,no_tremor
74,9066818,0.87,-0.3115018713393152,-0.13684475031122734,-1.0378008668239476,6.50256017959644,-59.73834012629986,4.079232182189823,no_tremor
75,9066823,0.875,-0.3129706270350413,-0.13764530745767103,-1.0376804388082277,6.818609292579078,-68.26190813100823,4.434340959425002,no_tremor
76,9066838,0.89,-0.3150120501737424,-0.1384795325844289,-1.0368695527695218,7.129835250960294,-77.1714152455914,4.7790533521656835,no_tremor
77,9066884,0.936,-0.3176574641582897,-0.1393472616026132,-1.0353066694296376,7.4349781742387595,-86.44667469702772,5.110027483501595,no_tremor
78,9066925,0.977,-0.3209354577003922,-0.14024830871839294,-1.032930566114352,7.7328416841438035,-96.06490899587877,5.423838249176674,no_tremor
79,9066940,0.992,-0.3248714770548901,-0.1411824713378785,-1.029680739614962,8.022308240480031,-106.00085628097922,5.71700792121575,no_tremor
80,9066970,1.022,-0.32948742594484304,-0.14214953454549012,-1.0254978194236697,8.302354129659715,-116.22690047462117,5.986038943564811,no_tremor
81,9066975,1.027,-0.33480127813133315,-0.14314927483406426,-1.020323987819946,8.572063852791027,-126.71322380303302,6.227448571054409,no_tremor
82,9066980,1.032,-0.3408267078430483,-0.1441814627178178,-1.0141034030813896,8.830643667082661,-137.42797975665073,6.437804942270504,no_tremor
83,9066984,1.036,-0.34757274348338185,-0.14524586382976346,-1.0067826219501819,9.077434047849508,-148.3374841480617,6.61376412059114,no_tremor
84,9067010,1.062,-0.35504345015646255,-0.14634223809440777,-0.9983110174055,9.311920853355987,-159.40642159702753,6.752107587863684,no_tremor
85,9067015,1.067,-0.36323764658162633,-0.14747033657398328,-0.9886411877722197,9.533744987529808,-170.59806453195787,6.849779633412924,no_tremor
86,9067019,1.071,-0.3721486618841417,-0.14862989561301218,-0.977729353234223,9.74271036565391,-181.87450165034588,6.903924050544505,no_tremor
87,9067024,1.076,-0.38176413754206123,-0.149820627955794,-0.9655357359112325,9.93878999782304,-193.19687275194556,6.911919539109037,no_tremor
88,9067029,1.081,-0.3920658794193184,-0.15104221058926404,-0.952024919793852,10.122130017924396,-204.52560696173674,6.871413220348856,no_tremor
89,9067034,1.086,-0.40302976431768517,-0.15229426917067576,-0.9371661870050639,10.293051505429238,-215.8206615675753,6.780351698262487,no_tremor
90,9067039,1.091,-0.4146257048415096,-0.15357635903162634,-0.9209338270622278,10.452049975195811,-227.04175896017884,6.6370091450995625,no_tremor
91,9067043,1.095,-0.4268176756034412,-0.15488794289984215,-0.9033074160479043,10.599792446906669,-238.14861944505626,6.440011942556155,no_tremor
92,9067048,1.1,-0.4395638029237304,-0.15622836563973053,-0.88427206285798,10.737112049294872,-249.10118798366764,6.1883594724361535,no_tremor
93,9067053,1.105,-0.45281651920944355,-0.15759682647366233,-0.8638186199799326,10.865000162679527,-259.85985321020127,5.881440720063075,no_tremor
94,9067057,1.109,-0.4665227821653136,-0.15899234929984613,-0.8419438565620169,10.984596153876254,-270.3856573559994,5.519046429205884,no_tremor
95,9067062,1.114,-0.4806243579103724,-0.16041375186118484,-0.8186505918661556,11.097174807120652,-280.6404959891404,5.101376626320071,no_tremor
96,9067067,1.119,-0.4950581659817628,-0.1618596146349931,-0.7939477875548514,11.204131599819403,-290.58730673536877,4.629043411955528,no_tremor
97,9067071,1.123,-0.5097566831278609,-0.16332825039937415,-0.7678505976473349,11.306966010163947,-300.1902463827194,4.103068996601967,no_tremor
98,9067076,1.128,-0.5246484017545975,-0.16481767548350712,-0.740380375392774,11.40726307399998,-309.4148559804665,3.524879036493912,no_tremor
99,9067086,1.138,-0.5396583379165768,-0.16632558372309086,-0.7115646367448005,11.5066734311785,-318.22821371906144,2.8962914022262938,no_tremor
100,9067090,1.142,-0.5547085828611662,-0.16784932411766815,-0.6814369805731945,11.606892117851336,-326.59907552005177,2.219500589845671,no_tremor
101,9067095,1.147,-0.5697188913633541,-0.1693858831241044,-0.6500369662051096,11.709636372222672,-334.498003376195,1.4970580599142742,no_tremor
102,9067100,1.152,-0.5846072994574324,-0.1709318724221047,-0.6174099493419108,11.816622728825749,-341.8974815668967,0.731848863017261,no_tremor
103,9067105,1.157,-0.5992907636969815,-0.17248352285669222,-0.5836068778453974,11.929543681842974,-348.7720209359594,-0.0729350221993226,no_tremor
104,9067141,1.193,-0.6136858137601688,-0.1740366851037531,-0.5486840493311317,12.050044202117059,-355.09825145719094,-0.913824152406748,no_tremor
105,9067150,1.202,-0.6277092100593404,-0.17558683742384792,-0.5127028329481844,12.179698395737832,-360.85500332614447,-1.7871033491352344,no_tremor
106,9067155,1.207,-0.6412785980273349,-0.17712910067349574,-0.475729358148952,12.319986594265236,-366.0233768006801,-2.6888451266138116,no_tremor
107,9067160,1.212,-0.654313150981104,-0.17865826054079018,-0.43783417362127336,12.472273166435507,-370.5868009695098,-3.614944241034908,no_tremor
108,9067174,1.226,-0.6667341939458963,-0.1801687967735321,-0.39909187982628747,12.637785336657634,-374.531081563066,-4.561152801232033,no_tremor
109,9067179,1.231,-0.6784658015517675,-0.18165491898280559,-0.3595807387448831,12.817593285579182,-377.8444378501089,-5.523115417992142,no_tremor
110,9067184,1.236,-0.689435364022728,-0.1831106084418085,-0.31938226449852186,13.01259179261266,-380.51752860885813,-6.4964039187059806,no_tremor
111,9067188,1.24,-0.6995741162752488,-0.18452966516649685,-0.2785807984988522,13.223483660569986,-382.5434671457002,-7.4765512109111585,no_tremor
112,9067193,1.245,-0.7088176261421808,-0.18590575946649812,-0.23726307271026334,13.450765139962723,-383.917825368903,-8.459083939709295,no_tremor
113,9067198,1.25,-0.7171062386775628,-0.18723248709229437,-0.19551776449333513,13.694713546690032,-384.6386270032024,-9.439553645675526,no_tremor
114,9067203,1.255,-0.724385474336417,-0.1885034270735466,-0.15343504635052943,13.95537724277418,-384.70633013733504,-10.413566186408184,no_tremor
115,9067208,1.26,-0.7306063795364321,-0.18971220133692393,-0.11110613373570702,14.232568125692318,-384.12379941504327,-11.376809233247757,no_tremor
116,9067213,1.265,-0.7357258286814918,-0.19085253520318543,-0.06862283393316997,14.52585674754224,-382.89626829976896,-12.325077695354436,no_tremor
117,9067218,1.27,-0.739706777156803,-0.1919183178866352,-0.02607709887355634,14.834570160837808,-381.03129195566333,-13.254296958636425,no_tremor
118,9067223,1.275,-0.7425184651000708,-0.19290366215056245,0.016439415360220453,15.157792563117024,-378.53869138466894,-14.160543859326244,no_tremor
119,9067228,1.28,-0.744136571932347,-0.1938029623062403,0.05883577967460201,15.4943687867289,-375.4304895338241,-15.04006534304103,no_tremor
120,9067233,1.285,-0.7445433217251674,-0.19461094977833704,0.10102221116723073,15.842910651047706,-371.7208401326595,-15.889294791373294,no_tremor
121,9067260,1.312,-0.7437275395249123,-0.19532274549581247,0.14291047787394534,16.201806160026354,-367.42595003278717,-16.704866030652628,no_tremor
122,9067265,1.317,-0.7416846587977477,-0.19593390840665695,0.18441428663532386,16.56923148809206,-362.5639957932094,-17.483625071962315,no_tremor
123,9067270,1.322,-0.7384166802576019,-0.1964404794630244,0.22544965179641788,16.94316565340429,-357.15503517325664,-18.222639667056743,no_tremor
124,9067275,1.327,-0.7339320825590746,-0.19683902048949733,0.265935242685749,17.32140773192135,-351.22091405117635,-18.91920679981659,no_tremor
125,9067280,1.332,-0.7282456857213002,-0.19712664743950203,0.3057927081739612,17.701596420864966,-344.78516908987444,-19.570858265449345,no_tremor
126,9067285,1.337,-0.7213784686977511,-0.19730105766527004,0.34494697707277067,18.081231717589528,-337.87292625407997,-20.175364518356414,no_tremor
127,9067295,1.347,-0.7133573431775626,-0.1973605509701058,0.3833265336421599,18.45769844064608,-330.5107950824164,-20.730736993202978,no_tremor
128,9067300,1.352,-0.7042148864300778,-0.19730404436863944,0.4208636679573889,18.828291285285776,-322.72675845881975,-21.23522912055365,no_tremor
129,9067305,1.357,-0.6939890367120565,-0.19713108063984244,0.4574947012910647,19.190241077643133,-314.55005752304623,-21.68733626621167,no_tremor
130,9067309,1.361,-0.6827227553713892,-0.19684183090648505,0.49316018695467667,19.540741872248223,-306.0110713159641,-22.085794820097,no_tremor
131,9067314,1.366,-0.6704636602392773,-0.19643709160173387,0.5278050872023707,19.87697852709717,-297.1411907741397,-22.429580645446727,no_tremor
132,9067319,1.371,-0.6572636351700725,-0.1959182762801139,0.5613789268244473,20.196154388735813,-287.9726867679346,-22.717907073325033,no_tremor
133,9067329,1.381,-0.6431784206612641,-0.19528740279147686,0.5938359239571647,20.495518726202018,-278.5385720127774,-22.950222592804437,no_tremor
134,9067333,1.385,-0.6282671903829294,-0.19454707636121027,0.6251350984292122,20.772393567848336,-268.8724568662327,-23.126208345611712,no_tremor
135,9067343,1.395,-0.6125921181927685,-0.1937004691073805,0.6552403576902808,21.024199619611135,-259.0083992408627,-23.2457754874955,no_tremor
136,9067348,1.4,-0.5962179398416597,-0.1927512964764359,0.6841205600765303,21.248480975507512,-248.980749097472,-23.309062430439372,no_tremor
137,9067353,1.405,-0.579211513125631,-0.19170379099589627,0.7117495549203963,21.44292836702214,-238.82398821894017,-23.316431935724676,no_tremor
138,9067385,1.437,-0.561641379762763,-0.1905626736308915,0.7381061988558524,21.605400733750955,-228.57256619078342,-23.268467993969065,no_tremor
139,9067390,1.442,-0.5435773318211718,-0.1893331229027901,0.7631743476309257,21.73394493042309,-218.26073372353812,-23.165972408487395,no_tremor
140,9067395,1.447,-0.5250899851426692,-0.18802074180176395,0.7869428228232568,21.826813411853543,-207.9223746330202,-23.00996099289991,no_tremor
141,9067404,1.456,-0.5062503619230174,-0.18663152242707906,0.8094053530552946,21.88247975445425,-197.59083793228288,-22.80165929942761,no_tremor
142,9067409,1.461,-0.48712948442522797,-0.1851718082430605,0.8305604896054382,21.899651882813348,-187.29877157571892,-22.542497802762693,no_tremor
143,9067415,1.467,-0.46779798169266157,-0.18364825385500166,0.850411496680649,21.877282881208046,-177.07795943748735,-22.234106465094595,no_tremor
144,9067420,1.472,-0.448325711052694,-0.18206778228030035,0.8689662170193179,21.814579291734308,-166.9591631144224,-21.878308594930562,no_tremor
145,9067424,1.476,-0.42878139611726906,-0.18043753979704855,0.886236913896339,21.711006835677754,-156.97197012361963,-21.47711389061704,no_tremor
146,9067429,1.481,-0.409232282864708,-0.17876484857337477,0.9022400909764278,21.566293538975255,-147.14465001845153,-21.032710541024763,no_tremor
147,9067434,1.486,-0.38974381521753615,-0.17705715739647826,0.9169962917859465,21.38043028998317,-137.50401987497972,-20.54745625088877,no_tremor
148,9067448,1.5,-0.3703793313202824,-0.17532199091559264,0.9305298808365491,21.15366890285351,-128.07532050566428,-20.023868069791202,no_tremor
149,9067453,1.505,-0.35119978148579795,-0.17356689787861873,0.9428688086303889,20.88651779840538,-118.88210464036027,-19.46461092930704,no_tremor
150,9067458,1.51,-0.3322634685388161,-0.17179939887425022,0.9540443629018315,20.57973544360445,-109.94613817231664,-18.872484828959514,no_tremor
151,9067463,1.515,-0.31362581106088994,-0.17002693409277922,0.9640909084995402,20.23432170992928,-101.28731539156847,-18.2504106559304,no_tremor
152,9067468,1.52,-0.29533912984958266,-0.1682568115983578,0.9730456182833763,19.851507321583696,-92.92358891864433,-17.601414673711382,no_tremor
153,9067473,1.525,-0.2774524577629946,-0.1664961565766001,0.9809481973078015,19.432741569315017,-84.87091482094755,-16.928611767957968,no_tremor
154,9067478,1.53,-0.2600113730407788,-0.16475186199800226,0.9878406024012255,18.97967846672998,-77.14321316284706,-16.235187589699255,no_tremor
155,9067482,1.534,-0.24305785618098252,-0.16303054113080268,0.9937667590500329,18.49416152475818,-69.75234402472402,-15.524379782514387,no_tremor
156,9067509,1.561,-0.22663017050663972,-0.1613384823526482,0.9987722772825903,17.978207317065312,-62.70809883499094,-14.799458517919396,no_tremor
157,9067513,1.565,-0.21076276666286542,-0.15968160674785678,1.002904168051989,17.43398800577572,-56.0182066963066,-14.063706589799823,no_tremor
158,9067518,1.57,-0.19548621140897057,-0.15806542902551998,1.0062105614696493,16.86381299449646,-49.68835525197981,-13.320399331837,no_tremor
159,9067523,1.575,-0.18082714115434284,-0.15649502233300736,1.0087404281752312,16.270109876309036,-43.7222255251526,-12.572784618643285,no_tremor
160,9067528,1.58,-0.16680824067578487,-0.15497498754767558,1.010543305153036,15.655404849408013,-38.121540064329544,-11.82406319197632,no_tremor
161,9067538,1.59,-0.1534482473217507,-0.15350942759364009,1.011669027402364,15.02230278207277,-32.88612363884141,-11.077369523951077,no_tremor
162,9067543,1.595,-0.14076198076565855,-0.15210192724966579,1.0121674669946497,14.373467119340956,-28.013975643800123,-10.33575339798949,no_tremor
163,9067547,1.599,-0.1287603980454011,-0.15075553879604414,1.0120882811496825,13.711599832380195,-23.501353293362683,-9.602162360554656,no_tremor
164,9067552,1.604,-0.11745067325152152,-0.14947277370358,1.0114806709903565,13.039421614052532,-19.342864601791295,-8.879425173658495,no_tremor
165,9067557,1.609,-0.10683630083367514,-0.14825560040897914,1.0103931525651781,12.359652517372242,-15.531570074787213,-8.170236379663908,no_tremor
166,9067562,1.614,-0.09691722111547296,-0.14710544806140688,1.0088733415630051,11.67499321659317,-12.059091963158924,-7.477142076406834,no_tremor
167,9067566,1.618,-0.08768996627147216,-0.14602321597773957,1.0069677529073529,10.988107045561026,-8.915729872764432,-6.802526992071929,no_tremor
168,9067581,1.633,-0.07914782475115081,-0.14500928842012414,1.0047216161361183,10.301602938777089,-6.090581483774701,-6.14860294390497,no_tremor
169,9067586,1.638,-0.07128102194861147,-0.14406355421719982,1.00217870717425,9.618019371930563,-3.571667112611358,-5.51739875960735,no_tremor
170,9067591,1.643,-0.06407691481848268,-0.14318543069457804,0.9993811968196412,8.939809374850363,-1.346056855442639,-4.910751731754137,no_tremor
171,9067596,1.648,-0.05752019812158966,-0.14237389136120268,0.9963695160146294,8.269326674372842,0.6000009136788665,-4.3303006617577955,no_tremor
172,9067606,1.658,-0.051593120030927135,-0.1416274968104562,0.9931822377903553,7.608813018455135,2.280950854218046,-3.7774805310830497,no_tremor
173,9067631,1.683,-0.046275704913880285,-0.1409444283271561,0.9898559756601992,6.960386733328552,3.711802858919795,-3.253518815866307,no_tremor
174,9067635,1.687,-0.04154598120333315,-0.14032252372961507,0.9864252981972003,6.326032567483394,4.908006123656062,-2.7594334395482045,no_tremor
175,9067640,1.692,-0.037380212357143346,-0.13975931500627703,0.9829226595392844,5.7075928746460685,5.885325973485927,-2.2960323388221706,no_tremor
176,9067645,1.697,-0.033753128974274973,-0.13925206732070086,0.9793783455952599,5.10676017947298,6.65972424822724,-1.8639146025757134,no_tremor
177,9067655,1.707,-0.030638160193362858,-0.13879781895626195,0.9758204357433543,4.525071154422364,7.247243984593013,-1.463473131725435,no_tremor
178,9067659,1.711,-0.02800766256176201,-0.13839342175937772,0.9722747798024387,3.9639020169736,7.663899077253641,-1.0948987585337606,no_tremor
179,9067664,1.716,-0.025833144646834123,-0.13803558162697468,0.9687649900073498,3.424465336722855,7.925569549197689,-0.7581857551469942,no_tremor
180,9067669,1.721,-0.024085485776914863,-0.13772089857886283,0.9653124476357301,2.9078082244570784,8.04790300561986,-0.4531386516376124,no_tremor
181,9067674,1.726,-0.02273514744937199,-0.13744590596376316,0.961936323820393,2.414811860821956,8.04622278232308,-0.1793802741735594,no_tremor
182,9067679,1.731,-0.021752376121971704,-0.13720710837009958,0.958653613947101,1.9461923100424463,7.935443229545839,0.06363909479525523,no_tremor
183,9067683,1.735,-0.02110739630063665,-0.13700101784743843,0.9554791848938377,1.502502553445734,7.7299924970747895,0.2766315395599909,no_tremor
184,9067688,1.74,-0.020770593038755475,-0.1368241880882844,0.9524258342257631,1.0841356678999734,7.443743108114341,0.46046042839901175,no_tremor
185,9067693,1.745,-0.02071268315842919,-0.13667324626928798,0.9495043603305043,0.6913290657758323,7.089950528435162,0.6161285412420353,no_tremor
186,9067698,1.75,-0.020904874682689235,-0.13654492230279938,0.9467236423696892,0.32416970573885767,6.681199854601732,0.7447655288632407,no_tremor
187,9067703,1.755,-0.021319014122883614,-0.1364360753018929,0.9440907288409449,-0.01739982231647072,6.229360662214803,0.8476148292218405,no_tremor
188,9067708,1.76,-0.02192772139310655,-0.13634371711298288,0.9416109334939476,-0.33357443928088515,5.7455499744015635,0.9260201703812369,no_tremor
189,9067717,1.769,-0.022704512222775645,-0.136265032819005,0.9392879373262112,-0.6246790493884529,5.240103234678226,0.9814117920763367,no_tremor
190,9067722,1.774,-0.023623908011514497,-0.13619739816216847,0.9371238953980919,-0.8911604474692273,4.722553098904838,1.0152925185810968,no_tremor
191,9067727,1.779,-0.024661533123153292,-0.13613839387786814,0.9351195472480266,-1.133578763545928,4.201615799621235,1.0292238130499543,no_tremor
192,9067752,1.804,-0.02579419965680898,-0.13608581696978053,0.9332743297518761,-1.3525985434101644,3.685184782652614,1.0248119374396714,no_tremor
193,9067756,1.808,-0.02699997977291335,-0.13603768898979465,0.9315864913465993,-1.548979557019582,3.1803312694320316,1.0036943329025647,no_tremor
194,9067766,1.818,-0.028258265699627114,-0.13599226141474344,0.9300532066201488,-1.723567417671257,2.693311357299157,0.967526324829462,no_tremor
195,9067771,1.823,-0.02954981760520809,-0.135948018234637,0.9286706903491465,-1.877284085312918,2.229579232615617,0.9179682468804651,no_tremor
196,9067780,1.832,-0.030856799593694813,-0.1359036758843544,0.9274343101389234,-2.0111183182277212,1.7938060376467833,0.8566730709603224,no_tremor
197,9067790,1.842,-0.03216280415841867,-0.13585818066307456,0.9263386968862963,-2.1261161293486137,1.3899039031010283,0.7852746247511435,no_tremor
198,9067795,1.847,-0.033452865502011424,-0.1358107037939917,0.9253778523467067,-2.2233712971104964,1.021054635976452,0.7053764732016465,no_tremor
199,9067800,1.852,-0.03471346219661452,-0.13576063428210514,0.9245452531475477,-2.304015976390173,0.689742538495604,0.6185415336018029,no_tremor
200,9067804,1.856,-0.0359325097120779,-0.13570756973133583,0.9238339506512505,-2.369211452717307,0.3977908289235896,0.5262824852111906,no_tremor
201,9067809,1.861,-0.03709934338461911,-0.13565130528530772,0.9232366661361798,-2.4201390822099635,0.14640113809748087,0.4300530245993233,no_tremor
202,9067814,1.866,-0.038204692436634824,-0.13559182086022115,0.9227458808308631,-2.4579914601000863,-0.06380443564726423,0.3312400076163568,no_tremor
203,9067823,1.875,-0.03924064569282666,-0.13552926684438424,0.9223539204072201,-2.483963861630905,-0.23273921833878702,0.2311565083363289,no_tremor
204,9067828,1.88,-0.040200609670193836,-0.13546394844764237,0.9220530336106862,-2.4992459996459164,-0.36080629053988456,0.13103581428086206,no_tremor
205,9067833,1.885,-0.041079259750074655,-0.1353963088949369,0.9218354647786816,-2.505014142484157,-0.4488517329137861,0.032026365967301684,no_tremor
206,9067838,1.89,-0.04187248516827853,-0.1353269116706576,0.9216935200730189,-2.5024236335420826,-0.4981172493959684,-0.06481236211281814,no_tremor
207,9067843,1.895,-0.04257732858253142,-0.13525642203307228,0.9216196273259211,-2.492601850476604,-0.5101926148570913,-0.15851305198272833,no_tremor
208,9067848,1.9,-0.043191920992834344,-0.13518558802972,0.9216063894729118,-2.4766416381917917,-0.48696837788171976,-0.24820282574675162,no_tremor
209,9067873,1.925,-0.04371541279808609,-0.1351152212543612,0.9216466316186219,-2.4555952459009136,-0.4305892314928895,-0.3331046515792678,no_tremor
210,9067878,1.93,-0.04414790177002016,-0.1350461775933393,0.9217334418527021,-2.430468794862462,-0.3434084449498813,-0.41253790899573256,no_tremor
211,9067883,1.935,-0.04449035871187079,-0.13497933821357694,0.9218602060004084,-2.402217300022238,-0.22794372772739996,-0.4859181575512261,no_tremor
212,9067887,1.939,-0.04474455154310842,-0.13491559104532977,0.9220206365523863,-2.3717402658501325,-0.08683487172566495,-0.5527561589682836,no_tremor
213,9067892,1.944,-0.044912968512939085,-0.13485581300953248,0.9222087960669015,-2.3398778739386277,0.07719651101091322,-0.6126562061176887,no_tremor
214,9067897,1.949,-0.04499874119574689,-0.13480085323138769,0.9224191153731589,-2.307407776871722,0.26138487047758846,-0.665313813637661,no_tremor
215,9067902,1.954,-0.04500556786465735,-0.13475151746817327,0.9226464069265781,-2.27504250878884,0.46295597288351725,-0.7105128252583095,no_tremor
216,9067907,1.959,-0.04493763777893079,-0.1347085539595958,0.9228858736775244,-2.2434275177154386,0.6791593200035408,-0.748121992436375,no_tremor
217,9067917,1.969,-0.044799556860731546,-0.13467264088306338,0.9231331138160795,-2.2131398187971603,0.907297572744516,-0.7780910775270862,no_tremor
218,9067922,1.974,-0.04459627518023276,-0.1346443755639644,0.9233841217492649,-2.184687262234773,1.1447528676901282,-0.8004465326491282,no_tremor
219,9067927,1.979,-0.044333016617865456,-0.13462426555293797,0.9236352856562987,-2.158508405473271,1.3890099666341065,-0.8152868034737738,no_tremor
220,9067932,1.984,-0.04401521103116938,-0.134612721639452,0.9238833819547392,-2.1349729754181133,1.637676228984656,-0.8227773062333336,no_tremor
221,9067937,1.989,-0.043648429222534535,-0.13461005282574623,0.9241255669981575,-2.114382902290767,1.8884984431550684,-0.8231451265548506,no_tremor
222,9067941,1.993,-0.04323832098296196,-0.13461646323981538,0.924359366315846,-2.0969739021903577,2.1393765944171146,-0.8166734899080468,no_tremor
223,9067946,1.998,-0.042790556474036776,-0.13463205092321948,0.9245826616974506,-2.0829175811629095,2.388374682540014,-0.8036960547054608,no_tremor
224,9067956,2.008,-0.042310771202581324,-0.13465680839155125,0.9247936764198699,-2.0723240299594052,2.6337287319704807,-0.7845910793125496,no_tremor
225,9067966,2.018,-0.041804514835822336,-0.13469062483447736,0.924990958909006,-2.065244875335122,2.8738521589445885,-0.7597755125855743,no_tremor
226,9067971,2.023,-0.04127720409368815,-0.13473328980007745,0.9251733651228207,-2.0616767500899433,3.1073386727067027,-0.7296990543906966,no_tremor
227,9067996,2.048,-0.040734079931806534,-0.1347844981957426,0.9253400399316403,-2.0615651397133794,3.3329628921890473,-0.6948382291833283,no_tremor
228,9068001,2.053,-0.04018016918734952,-0.1348438564348139,0.9254903977537887,-2.064808558569428,3.549678857186323,-0.65569051294193,no_tremor
229,9068006,2.058,-0.03962025079851868,-0.13491088956206707,0.9256241026781876,-2.0712630038032587,3.7566166085584287,-0.6127685512260019,no_tremor
230,9068015,2.067,-0.03905882663332814,-0.13498504919812382,0.9257410482722491,-2.0807466319811114,3.9530770107379634,-0.5665945035465477,no_tremor
231,9068020,2.072,-0.03850009688617059,-0.1350657221492412,0.9258413372374323,-2.0930446029773444,4.138524995036051,-0.517694547109146,no_tremor
232,9068025,2.077,-0.03794793993366546,-0.13515223953322983,0.9259252610413565,-2.1079140375397825,4.312581412554189,-0.4665935719165659,no_tremor
233,9068030,2.082,-0.03740589649317416,-0.13524388627542902,0.9259932796289108,-2.1250890379837086,4.475013696646531,-0.41381009898888643,no_tremor
234,9068035,2.087,-0.0368771579017983,-0.1353399108327479,0.9260460012982401,-2.1442857243154823,4.625725543336655,-0.3598514532296399,no_tremor
235,9068040,2.092,-0.0363645583294282,-0.13543953501042216,0.9260841628214835,-2.1652072399773363,4.764745822550427,-0.3052092216054409,no_tremor
236,9068044,2.096,-0.03587057075149643,-0.13554196374593036,0.9261086098931385,-2.187548681956829,4.8922169330997045,-0.2503550258659426,no_tremor
237,9068049,2.101,-0.03539730652853054,-0.13564639474711615,0.9261202779979391,-2.2110019095034312,5.008382809413385,-0.19573663736350522,no_tremor
238,9068054,2.106,-0.03494651846301823,-0.13575202788602211,0.9261201738015925,-2.2352601850853824,5.113576777381814,-0.14177445969172353,no_tremor
239,9068059,2.111,-0.03451960722272689,-0.13585807426503763,0.9261093571781212,-2.2600226012176714,5.208209440265426,-0.08885840262477586,no_tremor
240,9068064,2.116,-0.03411763102782037,-0.1359637648864054,0.9260889239938412,-2.2849982472350576,5.2927567541094165,-0.03734516811326009,no_tremor
241,9068068,2.12,-0.03374131849271662,-0.13606835886868454,0.9260599897679079,-2.309910070517761,5.36774842699364,0.012444033967401704,no_tremor
242,9068073,2.125,-0.0333910844901618,-0.13617115116337938,0.9260236743215804,-2.3344983872007847,5.433756750027126,0.06022532580566238,no_tremor
243,9068078,2.13,-0.03306704886390153,-0.1362714797308346,0.9259810875128098,-2.358523998690269,5.491385942781117,0.10575354609124826,no_tremor
244,9068083,2.135,-0.032769057759120035,-0.13636873213625697,0.9259333161305949,-2.3817708731676954,5.541262073605895,0.14882317090515687,no_tremor
245,9068088,2.14,-0.03249670727012078,-0.13646235152438047,0.9258814119970977,-2.404048356171731,5.584023596829198,0.18926876647463514,no_tremor
246,9068093,2.145,-0.0322493690280563,-0.13655184192529332,0.9258263812979145,-2.4251928811840804,5.620312534701692,0.22696497271045424,no_tremor
247,9068118,2.17,-0.032026217274912866,-0.13663677283513476,0.9257691751355646,-2.445069159173665,5.6507663226549605,0.2618260200074396,no_tremor
248,9068123,2.175,-0.03182625690205879,-0.13671678300500847,0.925710681281561,-2.463570834355907,5.676010332273976,0.293804785385759,no_tremor
249,9068127,2.179,-0.03164835188332908,-0.1367915833614869,0.9256517170913884,-2.4806206015820615,5.69665108711813,0.32289139765362634,no_tremor
250,9068132,2.184,-0.031491253515616394,-0.1368609589750955,0.9255930235464627,-2.4961697893035217,5.71327019107401,0.3491114049794911,no_tremor
251,9068137,2.189,-0.0313536279019604,-0.13692476999173728,0.9255352603978421,-2.5101974219570726,5.726418995272144,0.37252352242394454,no_tremor
252,9068142,2.194,-0.03123408217183675,-0.13698295144770825,0.9254790024055994,-2.5227087871442007,5.736614035174765,0.3932169820065661,no_tremor
253,9068147,2.199,-0.031131189020961614,-0.1370355119021145,0.9254247366909724,-2.5337335449925904,5.744333271951888,0.4113085138646577,no_tremor
254,9068152,2.204,-0.031043509255307918,-0.13708253084074196,0.9253728612410709,-2.543323427854436,5.750013170476809,0.42693899369321486,no_tremor
255,9068156,2.208,-0.030969612128946385,-0.13712415483204804,0.9253236846243863,-2.5515495869372447,5.754046640074254,0.4402697985117877,no_tremor
256,9068161,2.213,-0.030908093363034708,-0.13716059244794737,0.9252774269871941,-2.558499648630161,5.756781853955646,0.4514789196448859,no_tremor
257,9068171,2.223,-0.030857590817060493,-0.13719210799813583,0.9252342224046584,-2.564274547984448,5.758521949627009,0.4607568886299364,no_tremor
