sample,t_ms,t_s,ax,ay,az,gx,gy,gz,tremor
0,8921786,0.0,-0.2553718638720026,-0.16222504764715692,-1.001149763814018,2.2230931413159394,1.3203262481703861,-1.9286263225531395,no_tremor
1,8921791,0.005,-0.25549254002721056,-0.16216064163304847,-1.001545398522662,2.3338693943782296,1.088424607435205,-1.9672823893824347,no_tremor
2,8921801,0.015,-0.2556727674547652,-0.16207723339811023,-1.0020947417109987,2.4569899750083293,0.845473945987605,-2.0140531073763275,no_tremor
3,8921806,0.02,-0.25592575025912173,-0.16197724780701458,-1.0028111109671105,2.5926372700781264,0.5917931874899989,-2.069321306126691,no_tremor
4,8921810,0.024,-0.25625621386819264,-0.16186807624113647,-1.0036793191939761,2.7409097139066323,0.32780145264178545,-2.13343738417468,no_tremor
5,8921815,0.029,-0.25666265113197834,-0.16175921388169626,-1.0046684186988895,2.901815892279942,0.05402274527573656,-2.206714566512439,no_tremor
6,8921825,0.039,-0.2571405827859529,-0.16166002107561384,-1.0057438843960698,3.075269236084039,-0.22891017787378765,-2.2894242106377534,no_tremor
7,8921830,0.044,-0.2576848204040043,-0.16157871304116142,-1.0068742688363077,3.261083400473993,-0.5202528519543437,-2.3817912112639834,no_tremor
8,8921835,0.049,-0.2582905579555512,-0.1615221790297764,-1.0080333921947147,3.4589684206601703,-0.8191471427472317,-2.483989554344761,no_tremor
9,8921844,0.058,-0.25895368684426684,-0.1614961684877365,-1.0092001753463808,3.6685277295611534,-1.1246203411848146,-2.596138072139173,no_tremor
10,8921849,0.063,-0.2596707299082282,-0.16150556372626823,-1.0103576234799445,3.8892561161711146,-1.435585359370088,-2.718296452182186,no_tremor
11,8921859,0.073,-0.2604386409814968,-0.16155461893533307,-1.0114917193999173,4.1205386964656645,-1.750842058353094,-2.8504615541732212,no_tremor
12,8921864,0.078,-0.2612545899995411,-0.16164713327311164,-1.0125905094190524,4.361650960356579,-2.069079721714928,-2.9925640903864528,no_tremor
13,8921869,0.083,-0.2621157796418377,-0.16178656199488875,-1.0136434364232785,4.611759947864838,-2.3888806713583395,-3.144465727391621,no_tremor
14,8921874,0.088,-0.26301930423374614,-0.16197607987648174,-1.014640888903095,4.86992659512494,-2.708725002846676,-3.3059566691116453,no_tremor
15,8921898,0.112,-0.26396204770089393,-0.1622186111739148,-1.0155739143449163,5.135109276401898,-3.026996397515143,-3.476753783054227,no_tremor
16,8921903,0.117,-0.2649406134171549,-0.16251683735182926,-1.0164340495382937,5.406168552554531,-3.341988947818113,-3.656499333038837,no_tremor
17,8921908,0.122,-0.26595127884571024,-0.16287319062382175,-1.0172132310158606,5.681873120065684,-3.6519149119264895,-3.8447603827815713,no_tremor
18,8921913,0.127,-0.26698996919874607,-0.16328983880784978,-1.0179037592284597,5.960906938848866,-3.9549132949279056,-4.041028934208595,no_tremor
19,8921917,0.131,-0.26805224581806397,-0.16376866519137542,-1.018498298249967,6.241877502276335,-4.249059138062831,-4.244722860913458,no_tremor
20,8921922,0.136,-0.26913330622594245,-0.16431124588419949,-1.0189898987049166,6.523325199183244,-4.532373384473148,-4.455187690138595,no_tremor
21,8921927,0.141,-0.2702279937348668,-0.16491882634381716,-1.0193720356573384,6.803733704146198,-4.802833180892871,-4.671699276428528,no_tremor
22,8921932,0.146,-0.2713308151658419,-0.165592298250302,-1.0196386558932828,7.081541318254466,-5.058382471529138,-4.893467397228357,no_tremor
23,8921937,0.151,-0.2724359656650165,-0.1663321775854895,-1.0197842307888498,7.355153167748412,-5.296942744089376,-5.119640285261025,no_tremor
24,8921942,0.156,-0.2735373598822705,-0.1671385845671663,-1.019803812088107,7.6229541530115,-5.516423798082308,-5.349310094421353,no_tremor
25,8921946,0.16,-0.2746286689275723,-0.16801122595912038,-1.0196930886365696,7.883322526587051,-5.71473442221054,-5.581519275712991,no_tremor
26,8921951,0.165,-0.2757033625843774,-0.16894938019416278,-1.0194484425722146,8.13464396710475,-5.889792891899988,-5.815267818786357,no_tremor
27,8921956,0.17,-0.27675475625800455,-0.16995188569165898,-1.0190670037650227,8.375326006773456,-6.039537229950515,-6.049521294343397,no_tremor
28,8921971,0.185,-0.27777606208815897,-0.17101713271204858,-1.0185467014822926,8.603812663446519,-6.161935211394728,-6.2832196136016,no_tremor
29,8921976,0.19,-0.27876044357220053,-0.17214305906035704,-1.017886312382946,8.81859912380095,-6.2549941352915095,-6.515286402788337,no_tremor
30,8921980,0.194,-0.27970107294205593,-0.17332714992305231,-1.0170855040379634,9.018246321546814,-6.316770427825341,-6.7446388731081965,no_tremor
31,8921985,0.199,-0.2805911904264212,-0.17456644209324002,-1.0161448732547367,9.201395253881211,-6.34537917829464,-6.970198050586527,no_tremor
32,8921990,0.204,-0.28142416442539975,-0.1758575328044091,-1.0150659785625298,9.366780880817672,-6.339003738586117,-7.190899216550848,no_tremor
33,8921995,0.209,-0.28219355154044395,-0.1771965933498086,-1.0138513663010218,9.513245455364222,-6.2959055366353125,-7.405702398079377,no_tremor
34,8922020,0.234,-0.28289315534985027,-0.17857938761091194,-1.0125045898469172,9.6397511375158,-6.214434267246927,-7.613602737573254,no_tremor
35,8922025,0.239,-0.28351708280773524,-0.18000129555299957,-1.0110302216151832,9.745391752181177,-6.09303863245666,-7.813640561646887,no_tremor
36,8922030,0.244,-0.2840597971773967,-0.18145734166843527,-1.009433857580234,9.829403561964153,-5.930277809867638,-8.004910963648177,no_tremor
37,8922044,0.258,-0.2845161664883289,-0.1829422282600298,-1.0077221141751203,9.891174941374986,-5.7248338299675865,-8.186572714155032,no_tremor
38,8922049,0.263,-0.2848815066241725,-0.18445037336117956,-1.005902617538746,9.930254858747185,-5.475525038673088,-8.35785632150176,no_tremor
39,8922054,0.268,-0.2851516182957685,-0.18597595299139488,-1.0039839851862866,9.94636009276099,-5.1813208042896415,-8.518071079520727,no_tremor
40,8922058,0.272,-0.28532281731704323,-0.18751294735185992,-1.0019758002693422,9.939381128459356,-4.841357595038253,-8.66661096082384,no_tremor
41,8922063,0.277,-0.2853919577722981,-0.18905519048185232,-0.999888578663329,9.90938669114923,-4.454956505027265,-8.80295923948463,no_tremor
42,8922068,0.282,-0.2853564478368329,-0.19059642282704464,-0.9977337291662027,9.85662688607354,-4.021642248910209,-8.926691755355428,no_tremor
43,8922073,0.287,-0.2852142581873113,-0.19213034611634672,-0.9955235071146593,9.78153491890556,-3.5411635861221895,-9.037478762095366,no_tremor
44,8922078,0.292,-0.2849639231135689,-0.19365067990515433,-0.993270961724496,9.684727378523876,-3.01351507971687,-9.135085331168073,no_tremor
45,8922083,0.297,-0.28460453461871055,-0.1951512191192312,-0.9909898774455784,9.567003070118307,-2.4389600438832297,-9.219370313425385,no_tremor
46,8922088,0.302,-0.28413572996707886,-0.19662589192400448,-0.9886947095942482,9.429340394001391,-1.8180544877895293,-9.290283887287156,no_tremor
47,8922092,0.306,-0.283557673306492,-0.19806881724726708,-0.9864005144924363,9.272893273735946,-1.1516718218092656,-9.347863747500474,no_tremor
48,8922098,0.312,-0.2828710321476565,-0.1994743612973314,-0.9841228743084438,9.098985645864348,-0.44102805767907094,-9.39223001137821,no_tremor
49,8922107,0.321,-0.28207694962497337,-0.20083719244171205,-0.9818778167642624,8.909104531823989,0.31229279008771565,-9.423578940672892,no_tremor
50,8922117,0.331,-0.2811770135835853,-0.20215233384161385,-0.97968172985308,8.704891720470275,1.1063134059256727,-9.442175596561155,no_tremor
51,8922143,0.357,-0.2801732236305334,-0.2034152132730886,-0.9775512717026409,8.48813409821676,1.93863828113196,-9.448345561655735,no_tremor
52,8922148,0.362,-0.2790679573439409,-0.20462170960486747,-0.9755032757290797,8.260752674828852,2.8064295171142497,-9.442465875391454,no_tremor
53,8922153,0.367,-0.27786393684251276,-0.2057681954437367,-0.9735546512535793,8.024790367139529,3.706383588302771,-9.424955337004185,no_tremor
54,8922158,0.372,-0.2765641968704887,-0.20685157549951635,-0.9717222797996998,7.782398619665991,4.634709297538456,-9.396264334294427,no_tremor
55,8922167,0.381,-0.2751720554510634,-0.2078693202629145,-0.9700229073486089,7.535822958635159,5.5871071253617295,-9.356864357756864,no_tremor
56,8922172,0.386,-0.2736910880152343,-0.20881949463167523,-0.9684730328971495,7.287387592601244,6.5587501508627675,-9.307237359231388,no_tremor
57,8922177,0.391,-0.2721251057414496,-0.20970078116525157,-0.9670887937334162,7.039479187507658,7.544266711863,-9.247865111987087,no_tremor
58,8922182,0.396,-0.2704781386641074,-0.2105124976975476,-0.9658858479098922,6.794529956128508,8.537724979921224,-9.17921872497325,no_tremor
59,8922187,0.401,-0.2687544239423545,-0.2112546090922874,-0.9648792544496891,6.555000211257855,9.532619650636196,-9.101748457844998,no_tremor
60,8922192,0.406,-0.26695839953554945,-0.21192773298627984,-0.9640833518635038,6.323360539218049,10.521860987095865,-9.015873975297662,no_tremor
61,8922196,0.41,-0.26509470341322017,-0.2125331394310921,-0.9635116355824526,6.102073755849274,11.497766497022873,-8.921975169492322,no_tremor
62,8922201,0.415,-0.2631681783356051,-0.21307274441157337,-0.9631766349256137,5.89357681141013,12.452055565676254,-8.820383668606453,no_tremor
63,8922211,0.425,-0.2611838821723992,-0.21354909728822608,-0.9630897902228168,5.700262813643059,13.375847402080316,-8.711375138699823,no_tremor
64,8922216,0.43,-0.2591471036753988,-0.21396536227758367,-0.9632613307059413,5.524463339676269,14.259662682633161,-8.595162476041839,no_tremor
65,8922225,0.439,-0.25706338357603853,-0.21432529414863777,-0.9637001537699056,5.368431207867394,15.093429292228743,-8.471889978321293,no_tremor
66,8922230,0.444,-0.25493854083074485,-0.21463320837234695,-0.9644137061927028,5.2343238802232985,15.866492568573543,-8.341628575528462,no_tremor
67,8922235,0.449,-0.25277870377603373,-0.21489394601422362,-0.9654078678973361,5.124187663665014,16.567630450930043,-8.204372194135534,no_tremor
68,8922240,0.454,-0.25059034587533063,-0.21511283370646178,-0.9666868388411711,5.039942872518507,17.18507392086731,-8.060035321180168,no_tremor
69,8922266,0.48,-0.2483803256396214,-0.21529563907629792,-0.968253029631511,4.983370104240604,17.706533100223865,-7.908451827867478,no_tremor
70,8922271,0.485,-0.2461559301882353,-0.21544852204213538,-0.9701069564885434,4.956097765933455,18.119229339515943,-7.7493751047242645,no_tremor
71,8922275,0.489,-0.24392492179164446,-0.21557798241966677,-0.9722471412035744,4.959590971783553,18.409933585474874,-7.582479550887368,no_tremor
72,8922280,0.494,-0.24169558661323376,-0.21569080430816753,-0.974670016765033,4.9951419122405065,18.565011255612855,-7.407363447665984,no_tremor
73,8922285,0.499,-0.2394767847477273,-0.21579399775343688,-0.9773698393405417,5.063861775658776,18.570473769910638,-7.223553231197389,no_tremor
74,8922300,0.514,-0.23727800054317444,-0.21589473820909466,-0.9803386073062399,5.166674283690588,18.412036798731503,-7.030509162333855,no_tremor
75,8922304,0.518,-0.235109392091232,-0.2160003043419873,-0.9835659880036061,5.30431088382997,18.07518518806285,-6.827632375528836,no_tremor
76,8922319,0.533,-0.23298183867646752,-0.2161180147495238,-0.9870392528815433,5.477307625410158,17.54524442369542,-6.614273272918522,no_tremor
77,8922329,0.543,-0.23090698489084466,-0.2162551641754427,-0.9907432216521491,5.686003727108043,16.807458399034694,-6.389741214426052,no_tremor
78,8922334,0.548,-0.22889728004907275,-0.21641895982392043,-0.9946602160581647,5.930541823603702,15.847073159454458,-6.153315438786369,no_tremor
79,8922339,0.553,-0.2269660114918807,-0.21661645837807142,-0.9987700238247155,6.210869857782861,14.649426210295424,-5.904257133433522,no_tremor
80,8922343,0.557,-0.22512733034560642,-0.21685450432617304,-1.0030498733538635,6.526744565132743,13.200040895508964,-5.6418225532593445,no_tremor
81,8922348,0.562,-0.2233962683226271,-0.2171396701866678,-1.007474419721504,6.8777364798869325,11.484725279256143,-5.3652770700891805,no_tremor
82,8922353,0.567,-0.22178874419832484,-0.21747819920142042,-1.0120157425483678,7.2632363772679485,9.489674893774,-5.073910017322113,no_tremor
83,8922358,0.572,-0.22032155868357703,-0.21787595103670626,-1.016643356328496,7.682463051533106,7.201578654406631,-4.767050178000173,no_tremor
84,8922363,0.577,-0.2190123765232828,-0.218338350993983,-1.02132423379728,8.134472314791925,4.607727188163869,-4.444081749531945,no_tremor
85,8922388,0.602,-0.2178796947875828,-0.21887034318848356,-1.0260228429013438,8.618167086945364,1.696122776698006,-4.104460604696549,no_tremor
86,8922393,0.607,-0.21694279648049145,-0.21947634810369568,-1.030701197895142,9.132308433519032,-1.5444099216411005,-3.747730657493217,no_tremor
87,8922397,0.611,-0.21622168876926273,-0.22016022487438225,-1.0353189250393215,9.675527397284801,-5.124113234615004,-3.3735401350594634,no_tremor
88,8922402,0.616,-0.21573702533659575,-0.22092523859052662,-1.0398333433211886,10.246337463520383,-9.052186811254849,-2.981657553574032,no_tremor
89,8922417,0.631,-0.21551001257603397,-0.221774032850186,-1.044199560564722,10.843147498945173,-13.336679836002713,-2.571987196227484,no_tremor
90,8922422,0.636,-0.2155622995861518,-0.2227086077216128,-1.0483705852487202,11.46427501030073,-17.98438604047084,-2.14458389430612,no_tremor
91,8922426,0.64,-0.21591585216726547,-0.22373030320535459,-1.052297454304164,12.107959578328153,-23.000742432401328,-1.6996669179840063,no_tremor
92,8922436,0.65,-0.2165928112810331,-0.22483978821690073,-1.0559293771107634,12.7723763347794,-28.389732649103617,-1.2376327915882803,no_tremor
93,8922441,0.655,-0.21761533669458605,-0.22603705504152397,-1.0592138958528599,13.45564936307891,-34.15379581685414,-0.7590668583572526,no_tremor
94,8922446,0.66,-0.2190054367933127,-0.22732141914696677,-1.0620970623219046,14.155864916586646,-40.293741759902765,-0.26475343054801453,no_tremor
95,8922451,0.665,-0.22078478580622768,-0.22869152417828384,-1.0645236311629316,14.871084361275528,-46.80867335673488,0.24431562955006092,no_tremor
96,8922456,0.67,-0.22297452993998168,-0.23014535190424285,-1.0664372694535376,15.599356761271453,-53.69591679260577,0.7669340442675917,no_tremor
97,8922461,0.675,-0.22559508415557147,-0.23168023683781427,-1.0677807823753325,16.338731035686052,-60.9509604098961,1.301676110467002,no_tremor
98,8922465,0.679,-0.22866592153787316,-0.23329288521586103,-1.0684963545908086,17.087267623540335,-68.56740281138816,1.8468936762577617,no_tremor
99,8922470,0.684,-0.2322053573931607,-0.2349793979964682,-1.0685258067756693,17.84304960094613,-76.53691082319705,2.4007152252765795,no_tremor
100,8922475,0.689,-0.2362303303540499,-0.23673529751739922,-1.067810866581484,18.60419320221592,-84.84918787035036,2.9610471752703504,no_tremor
101,8922480,0.694,-0.24075618286590372,-0.23855555745604393,-1.0662934531205817,19.368857705368633,-93.49195325555368,3.525577480647193,no_tremor
102,8922485,0.699,-0.24579644346728674,-0.24043463573900922,-1.063915973879538,20.135254653078754,-102.45093275654682,4.091781608443769,no_tremor
103,8922511,0.725,-0.25136261325703463,-0.24236651006638077,-1.0606216327851195,20.901656392083517,-111.70986086586583,4.656930933309012,no_tremor
104,8922515,0.729,-0.25746395886499934,-0.24434471573911526,-1.0563547479726894,21.666403926131654,-121.25049489096094,5.218103570041953,no_tremor
105,8922521,0.735,-0.2641073141244248,-0.2463623855047748,-1.0510610776461284,22.427914086873315,-131.05264102857885,5.772197634686531,no_tremor
106,8922525,0.739,-0.27129689250232236,-0.2484122911632866,-1.0446881522717595,23.184686029182114,-141.09419245213473,6.315946901396797,no_tremor
107,8922530,0.744,-0.27903411220291435,-0.250486886697566,-1.0371856112158782,23.935307048892657,-151.35117942381663,6.845938804643541,no_tremor
108,8922540,0.754,-0.287317435730938,-0.25257835271218615,-1.0285055418155058,24.678457703180598,-161.79783146232072,7.358634723301942,no_tremor
109,8922545,0.759,-0.29614222558367975,-0.25467864197714607,-1.0186028187661242,25.412916193646424,-172.40665164794459,7.850392470712024,no_tremor
110,8922550,0.764,-0.30550061761856856,-0.2567795258848129,-1.0074354416211166,26.137561959323385,-183.14850321864793,8.317490899192595,no_tremor
111,8922554,0.768,-0.31538141349787546,-0.25887264163826657,-0.9949648681277776,26.85137842928957,-193.99270869704182,8.756156506728088,no_tremor
112,8922564,0.778,-0.32576999342657226,-0.260949539999702,-0.9811563410747528,27.553454903793952,-204.90716187431218,9.162591907611711,no_tremor
113,8922569,0.783,-0.33664825016548156,-0.2630017334376616,-0.9659792062931419,28.242987562864112,-215.85845303463697,9.533005998938066,no_tremor
114,8922578,0.792,-0.34799454502646504,-0.26502074451953134,-0.9494072194305145,28.919279632696863,-226.81200779913797,9.863645621932633,no_tremor
115,8922583,0.797,-0.3597836862654953,-0.26699815439837604,-0.9314188390902719,29.581740763485236,-237.7322398741651,10.150828480862643,no_tremor
116,8922588,0.802,-0.37198693002545685,-0.26892565123942624,-0.9119975038827866,30.229885680070012,-248.58271778960201,10.390977042048965,no_tremor
117,8922593,0.807,-0.38457200379188666,-0.27079507842216405,-0.8911318908587352,30.863332153692042,-259.32634540851404,10.58065309217033,no_tremor
118,8922598,0.812,-0.39750315225130745,-0.2725984823419032,-0.8688161526883051,31.481798307826832,-269.92555559333067,10.716592591397243,no_tremor
119,8922635,0.849,-0.41074120550170107,-0.27432815962398505,-0.8450501308239023,32.08509921719674,-280.3425159511421,10.795740416193599,no_tremor
120,8922640,0.854,-0.4242436697466078,-0.27597670355773574,-0.8198395417600262,32.67314269620827,-290.53934509320055,10.815284551956804,no_tremor
121,8922645,0.859,-0.43796484086,-0.27753704955752123,-0.7931961334088042,33.245924118603625,-300.47833739874307,10.772689270968554,no_tremor
122,8922650,0.864,-0.45185594145605784,-0.2790025194622429,-0.7651378085705394,33.80352008538472,-310.1221939482021,10.665726821171427,no_tremor
123,8922655,0.869,-0.4658652822475977,-0.28036686448638065,-0.735688712518813,34.34608077586001,-319.4342571216274,10.49250715890544,no_tremor
124,8922660,0.874,-0.4799384484732866,-0.28162430662753585,-0.7048792818544745,34.87382087255646,-328.3787463108007,10.251505282570768,no_tremor
125,8922665,0.879,-0.4940185120090925,-0.2827695783109508,-0.6727462520163724,35.38700902934319,-336.9209922046476,9.941585759449719,no_tremor
126,8922670,0.884,-0.508046269478907,-0.28379796000722707,-0.6393326211609655,35.88595593810839,-345.0276671392444,9.562024078690929,no_tremor
127,8922675,0.889,-0.5219605062811186,-0.284705315495498,-0.6046875685211331,36.371001131060794,-352.66700904985066,9.112524504995813,no_tremor
128,8922679,0.893,-0.5356982859936966,-0.2854881243642182,-0.5688663258087425,36.84249872481171,-359.80903662385117,8.593234148254501,no_tremor
129,8922684,0.898,-0.5491952641512149,-0.2861435112525334,-0.5319300007232185,37.30080236432759,-366.4257533265306,8.00475300593632,no_tremor
130,8922689,0.903,-0.5623860249389362,-0.286669271246734,-0.4939453521611327,37.746249658553765,-372.4913380542212,7.348139780553656,no_tremor
131,8922694,0.908,-0.5752044389464763,-0.28706389077035316,-0.45498451728189615,38.17914641549022,-377.98232026773684,6.624913326410372,no_tremor
132,8922699,0.913,-0.5875840397790376,-0.28732656325553324,-0.41512469116477835,38.59975098438714,-382.87773758490374,5.837049638835301,no_tremor
133,8922704,0.918,-0.5994584170399133,-0.287457198869373,-0.37444776038793126,39.00825900040882,-387.159273974306,4.986974364429973,no_tremor
134,8922714,0.928,-0.6107616229692331,-0.28745642760234014,-0.3330398924688237,39.40478880879504,-390.81137689663615,4.077550881127576,no_tremor
135,8922719,0.933,-0.6214285898418155,-0.28732559511321193,-0.29099108372709354,39.78936782815252,-393.82135198396537,3.11206407039409,no_tremor
136,8922724,0.938,-0.6313955550800746,-0.2870667508669511,-0.24839466876652608,40.161920101785036,-396.1794341286171,2.094199978269799,no_tremor
137,8922729,0.943,-0.6406004909127743,-0.28668262829070174,-0.20534679542746118,40.52225528467057,-397.87883417098965,1.0280216334823145,no_tremor
138,8922756,0.97,-0.64898353529197,-0.2861766168928623,-0.16194586974353845,40.870059319677594,-398.91576072763746,-0.08205864486576123,no_tremor
139,8922761,0.975,-0.6564874206538458,-0.28555272651892866,-0.1182919761509629,41.20488706243924,-399.2894170817949,-1.2313100648259887,no_tremor
140,8922766,0.98,-0.6630578969638891,-0.28481554412947957,-0.07448627891721327,41.526157109645666,-399.0019734603631,-2.414716881728987,no_tremor
141,8922771,0.985,-0.6686441453207769,-0.2839701836552667,-0.03063041140566794,41.83314906178362,-398.05851543557156,-3.627014178113764,no_tremor
142,8922776,0.99,-0.6731991782132969,-0.2830222295976855,0.013174139719056985,42.12500340611444,-396.4669696050687,-4.862725455516829,no_tremor
143,8922781,0.995,-0.6766802223442482,-0.28197767510423327,0.05682664797009696,42.40072414306971,-394.23800810548767,-6.116201593412074,no_tremor
144,8922790,1.004,-0.6790490797725756,-0.28084285527699787,0.10022775077553973,42.65918420571411,-391.38493388320416,-7.38166073517204,no_tremor
145,8922800,1.014,-0.6802724630009873,-0.2796243764901345,0.14328003618734758,42.8991336426142,-387.92354896211043,-8.653228664096119,no_tremor
146,8922805,1.019,-0.6803222995756807,-0.27832904251654217,0.18588860558653214,43.11921045381353,-383.87200818626684,-9.924979237323315,no_tremor
147,8922810,1.024,-0.679176001797568,-0.27696377830292945,0.227961605896838,43.31795389332271,-379.2506610445753,-11.190974458037825,no_tremor
148,8922815,1.029,-0.6768166973035419,-0.2755355522857665,0.26941072549937484,43.49381998597991,-374.0818841846626,-12.445303791526237,no_tremor
149,8922819,1.033,-0.6732334165890846,-0.27405129820048696,0.31015164890834285,43.645198956500714,-368.38990710158504,-13.682122368732085,no_tremor
150,8922829,1.043,-0.6684212340226142,-0.2725178373912224,0.3501044662802073,43.77043423542238,-362.20063327677974,-14.89568776923236,no_tremor
151,8922834,1.048,-0.6623813595440627,-0.27094180266735385,0.3891940349170883,43.86784268833726,-355.54145878142987,-16.0803951305593,no_tremor
152,8922839,1.053,-0.6551211790304179,-0.26932956476842873,0.4273502910207345,43.935735706946836,-348.44109007334123,-17.230810388579634,no_tremor
153,8922843,1.057,-0.6466542422265713,-0.2676871624869067,0.46450851099885976,43.97244079851086,-340.9293624266202,-18.34170150950396,no_tremor
154,8922848,1.062,-0.6370001981508915,-0.26602023746037756,0.5006095225743481,43.97632331101281,-333.0370601582259,-19.40806762399381,no_tremor
155,8922853,1.067,-0.6261846789547049,-0.2643339745884036,0.535599866761274,43.94580793313365,-324.7957395763613,-20.425166016087516,no_tremor
156,8922881,1.095,-0.6142391342992897,-0.26263304896489426,0.5694319124196769,43.8793996106737,-316.23755538966213,-21.388536953959676,no_tremor
157,8922886,1.1,-0.6012006193535752,-0.26092158015566275,0.6020639255666456,43.775703526899605,-307.395091187177,-22.294026374261954,no_tremor
158,8922891,1.105,-0.5871115404216315,-0.25920309459746865,0.6334600959084465,43.63344381039818,-298.3011945148009,-23.137806443740768,no_tremor
159,8922895,1.109,-0.5720193628707145,-0.2574804968439145,0.6635905231950122,43.451480669417954,-288.9888170113499,-23.91639401912939,no_tremor
160,8922900,1.114,-0.5559762863648318,-0.2557560503201381,0.6924311660260218,43.228825710092316,-279.4908600070739,-24.626667011278595,no_tremor
161,8922906,1.12,-0.539038892410324,-0.2540313681549243,0.7199637556959775,42.964655271408134,-269.84002592247356,-25.26587863796907,no_tremor
162,8922910,1.124,-0.521267768959067,-0.25230741452274175,0.7461756775814704,42.65832169080235,-260.0686757404835,-25.831669528310993,no_tremor
163,8922915,1.129,-0.5027271163907624,-0.250584516743675,0.7710598224673179,42.309362490287064,-250.2086927680929,-26.322077625077572,no_tremor
164,8922920,1.134,-0.48348433869765,-0.24886238815798783,0.794614410099111,41.91750753664265,-240.29135286024373,-26.735545822599942,no_tremor
165,8922925,1.139,-0.4636096231908705,-0.24714016152286855,0.8168427871587562,41.482684276093934,-230.347201253284,-27.070927277442493,no_tremor
166,8922930,1.144,-0.4431755115861981,-0.24541643238701052,0.8377532018045384,41.00502117279925,-220.40593614988433,-27.32748833544682,no_tremor
167,8922934,1.148,-0.42225646493979535,-0.2436893116041811,0.8573585569078055,40.48484949256869,-210.49629921301946,-27.50490902994578,no_tremor
168,8922939,1.153,-0.40092842460919204,-0.24195648587197222,0.8756761441554503,39.922703569965215,-200.64597316113174,-27.603281121137293,no_tremor
169,8922944,1.158,-0.37926837121586937,-0.2402152849477022,0.8927273612657313,39.31931967990818,-190.88148670300146,-27.62310366523551,no_tremor
170,8922949,1.163,-0.35735388347939656,-0.2384627540177416,0.9085374146762275,38.675633607566425,-181.22812709799211,-27.565276121874238,no_tremor
171,8922954,1.168,-0.3352626987684411,-0.23669572959206728,0.9231350101963521,37.99277697872235,-171.7098606636486,-27.431089025534416,no_tremor
172,8922959,1.173,-0.31307227725645237,-0.2349109172691242,0.9365520342607491,37.272072383717486,-162.3492615711141,-27.222212258911252,no_tremor
173,8922969,1.183,-0.29085937166208825,-0.23310496976674022,0.9488232285606863,36.51502730706409,-153.16744926876265,-26.940680973898726,no_tremor
174,8922974,1.188,-0.26869960467805293,-0.23127456373510447,0.9599858609538504,35.72332686512908,-144.18403485756465,-26.58887921319987,no_tremor
175,8923002,1.216,-0.24666705632952837,-0.22941647404184126,0.9700793956428628,34.89882535692121,-135.41707670635694,-26.169521298060662,no_tremor
176,8923007,1.221,-0.22483386363977537,-0.2275276444231176,0.9791451656514522,34.04353664660144,-126.88304553476127,-25.685631069747014,no_tremor
177,8923012,1.226,-0.20326983510166655,-0.22560525359891154,0.9872260505949129,33.159623417082095,-118.59679909978838,-25.14051910428579,no_tremor
178,8923016,1.23,-0.1820420825456049,-0.22364677612656864,0.9943661626210011,32.24938535615359,-110.57156650154825,-24.53775805731531,no_tremor
179,8923026,1.24,-0.161214673045143,-0.22165003739784137,1.00061054318148,31.315246354839566,-102.81894198862838,-23.881156333387263,no_tremor
180,8923031,1.245,-0.14084830350590635,-0.21961326227271463,1.0060048729915356,30.35974081039681,-95.34888801658998,-23.174730308457075,no_tremor
181,8923036,1.25,-0.121000000535918,-0.21753511690537553,1.0105951971660376,29.385499134093912,-88.16974721210156,-22.422675363530786,no_tremor
182,8923041,1.255,-0.10172284808505572,-0.21541474337458522,1.0144276671153045,28.39523256686104,-81.28826282775736,-21.62933600877748,no_tremor
183,8923050,1.264,-0.08306574515464907,-0.21325178679860754,1.0175483003635595,27.391717404658184,-74.70960723573153,-20.7991753879876,no_tremor
184,8923055,1.269,-0.06507319560794243,-0.21104641470219765,1.020002759040099,26.377778732999445,-68.4374179946132,-19.936744452782644,no_tremor
185,8923069,1.283,-0.047785131760054646,-0.20879932851115932,1.0218361474012179,25.35627377141493,-62.4738410253135,-19.046651088320658,no_tremor
186,8923074,1.288,-0.03123677300140615,-0.2065117671736077,1.02309282838288,24.330074937379365,-56.81958044212022,-18.133529463204173,no_tremor
187,8923089,1.303,-0.015458520231152061,-0.20418550303599023,1.0238162588712163,23.302052755309294,-51.47395459712084,-17.2020098696553,no_tremor
188,8923093,1.307,-0.0004758863825740055,-0.20182283022280798,1.024048843118739,22.27505875596805,-46.434957903037805,-16.25668931588811,no_tremor
189,8923099,1.313,0.01369053714025336,-0.19942654587057332,1.0238318035343474,21.251908529934298,-41.69932799500918,-15.302103129303788,no_tremor
190,8923126,1.34,0.027025078676479748,-0.19699992464490906,1.0232050679382818,20.235365111452943,-37.26261777430105,-14.342697825197488,no_tremor
191,8923131,1.345,0.039516950005018175,-0.1945466870298243,1.0222071723009079,19.22812287359639,-33.11927184999159,-13.38280548881389,no_tremor
192,8923135,1.349,0.05116017652094634,-0.19207096193101944,1.0208751779755407,18.23279211117295,-29.262706864534824,-12.42661990364707,no_tremor
193,8923140,1.354,0.06195349499559019,-0.18957724419190847,1.0192446024844972,17.251884473952025,-25.685395160317228,-11.478174629697188,no_tremor
194,8923145,1.359,0.07190022013192923,-0.187070347688013,1.0173493630116008,16.287799390926523,-22.37895121845198,-10.541323190581897,no_tremor
195,8923150,1.364,0.08100808128010456,-0.18455535474037857,1.0152217318746095,15.342811600436011,-19.33422027858935,-9.61972147375199,no_tremor
196,8923155,1.369,0.08928903089059628,-0.18203756266285628,1.0128923033767587,14.419059875598219,-16.541368529615852,-8.71681239223555,no_tremor
197,8923159,1.373,0.09675902654733688,-0.17952242832036935,1.0103899715500724,13.518537011852809,-13.989974245030714,-7.835812805756245,no_tremor
198,8923164,1.378,0.10343778872109313,-0.1770155116162822,1.0077419183920207,12.643081123258689,-11.669119222606007,-6.979702657067798,no_tremor
199,8923169,1.383,0.109348536691319,-0.1745224188407843,1.0049736122541073,11.794368276311108,-9.567479876248184,-6.151216247134284,no_tremor
200,8923174,1.388,0.11451770537705644,-0.1720487467962267,1.0021088160624867,10.973906475568194,-7.673417321162066,-5.352835549870302,no_tremor
201,8923179,1.393,0.11897464607071354,-0.16960002856988168,0.9991696050360979,10.183031005057462,-5.975065794000481,-4.586785452158315,no_tremor
202,8923183,1.397,0.12275131426345914,-0.16718168175241074,0.9961763935190481,9.42290112156139,-4.4604187586135335,-3.855030796651176,no_tremor
203,8923188,1.402,0.12588194787432827,-0.16479895980643056,0.9931479704652869,8.694498086564778,-3.1174120649428896,-3.1592751024769448,no_tremor
204,8923193,1.407,0.12840273924041204,-0.16245690718071817,0.9901015430112055,7.998624509730419,-1.9340035541376097,-2.500960840940389,no_tremor
205,8923198,1.412,0.1303515041927819,-0.1601603186495787,0.9870527874537439,7.335904959082289,-0.8982485400341609,-1.881271148171271,no_tremor
206,8923203,1.417,0.13176735143783824,-0.15791370324134796,0.9840159068275212,6.706787776526423,0.0016293509893179209,-1.3011328636876256,no_tremor
207,8923213,1.427,0.13269035529658768,-0.1557212530111389,0.9810036941551794,6.111548026840128,0.7771724331829534,-0.7612207929105252,no_tremor
208,8923217,1.431,0.13316123463767288,-0.15358681681446598,0.9780276003419056,5.550291504696561,1.4396286819466533,-0.26196310289460334,no_tremor
209,8923222,1.436,0.13322104058795678,-0.15151387915105985,0.9750978056094041,5.022959725049717,1.9998972137120914,0.19645222573314247,no_tremor
210,8923247,1.461,0.13291085533144212,-0.1495055440702931,0.9722232933272609,4.529335824503218,2.468479732687138,0.6140699515285118,no_tremor
211,8923252,1.466,0.1322715040266054,-0.14756452405836268,0.9694119251087523,4.069051303669553,2.8554380666889054,0.9911591738885226,no_tremor
212,8923257,1.471,0.13134328159541678,-0.14569313376050472,0.9666705160964321,3.641593542015142,3.1703578308603584,1.3282040138591527,no_tremor
213,8923267,1.481,0.13016569587375762,-0.14389328832863185,0.964004909466135,3.2463140163600968,3.422318181105582,1.6258933962488331,no_tremor
214,8923272,1.486,0.12877722836868738,-0.1421665061273146,0.9614200493154632,2.8824371519355365,3.619867552588556,1.8851099542409113,no_tremor
215,8923276,1.49,0.12721511364468774,-0.1405139154814582,0.9589200512586374,2.5490697314924264,3.771005223162078,2.1069180826737064,no_tremor
216,8923282,1.496,0.12551513815651344,-0.13893626510970275,0.9565082702066209,2.245210784204204,3.883168494513871,2.292551174342368,no_tremor
217,8923287,1.501,0.12371145915703977,-0.13743393785980862,0.9541873649553884,1.9697618723450434,3.963225242019283,2.4433980826054915,no_tremor
218,8923292,1.506,0.1218364441314382,-0.13600696734608814,0.951959359327752,1.7215376902351964,4.017471546321222,2.560988862443446,no_tremor
219,8923301,1.515,0.11992053104216117,-0.13465505708322348,0.949825699712631,1.4992768871888056,4.051634085950652,2.646979851676065,no_tremor
220,8923306,1.52,0.11799210951149093,-0.13337760171370894,0.9477873089211923,1.3016530245062552,4.070876942031475,2.7031381652897735,no_tremor
221,8923311,1.525,0.116077422919236,-0.1321737099352045,0.9458446363350851,1.1272855758838702,4.079812444149515,2.731325688737554,no_tremor
222,8923321,1.535,0.11420049125224606,-0.13104222874648885,0.9439977043627996,0.9747508808092576,4.0825156709545665,2.7334826697274552,no_tremor
223,8923326,1.54,0.11238305440959458,-0.12998176864387842,0.9422461512520969,0.8425929615787547,4.082542209412453,2.7116110215370055,no_tremor
224,8923330,1.544,0.11064453554239263,-0.12899072941212347,0.9405892703360053,0.7293341165935517,4.082948772092741,2.667757463862433,no_tremor
225,8923335,1.549,0.10900202388998764,-0.12806732616399574,0.9390260458226457,0.6334852055648755,4.086316272376828,2.60399663916732,no_tremor
226,8923340,1.554,0.10747027646439558,-0.127209615291038,0.9375551852782303,0.553555546289641,4.094774963218963,2.522414352838778,no_tremor
227,8923345,1.559,0.10606173783182513,-0.1264155199951151,0.9361751489979789,0.4880623481056552,4.110031255717577,2.4250910939074384,no_tremor
228,8923369,1.583,0.10478657714370777,-0.12568285507805507,0.9348841765083471,0.4355396143914236,4.133395848465894,2.314085999440269,no_tremor
229,8923374,1.588,0.10365274147948317,-0.12500935067686522,0.9336803104902867,0.3945464556166256,4.165812816940776,2.1914214292178857,no_tremor
230,8923379,1.593,0.10266602447956594,-0.12439267464732681,0.9325614184494162,0.36367476499612006,4.207889333795741,2.0590683168090966,no_tremor
231,8923388,1.602,0.10183014917004977,-0.12383045332209618,0.931525212476128,0.34155621973239,4.259925715375804,1.9189324578217108,no_tremor
232,8923393,1.607,0.10114686381172058,-0.1233202904029812,0.9305692674307139,0.3268685811747503,4.3219455160893485,1.7728418857932733,no_tremor
233,8923398,1.612,0.1006160495455877,-0.12285978379113985,0.9296910378559248,0.31834127682960883,4.393725419025509,1.6225354713179194,no_tremor
234,8923403,1.617,0.10023583855552892,-0.12244654021178811,0.9288878738686005,0.3147602567350328,4.474824697125046,1.4696528612879562,no_tremor
235,8923408,1.622,0.1000027414252765,-0.1220781875486765,0.928157036222054,0.3149721270953374,4.5646140437324485,1.3157258532643232,no_tremor
236,8923413,1.627,0.09991178233090525,-0.12175238486505778,0.9274957106693854,0.3178875754015761,4.662303594253565,1.1621712755739564,no_tremor
237,8923417,1.631,0.09995664068015035,-0.12146683014946996,0.9269010217000861,0.3224841126358023,4.766969981481244,1.010285417340598,no_tremor
238,8923422,1.636,0.10012979778540079,-0.12121926588418973,0.9263700456712699,0.32780816810415797,4.877582285580306,0.8612400251051479,no_tremor
239,8923432,1.646,0.10042268713769419,-0.12100748258983558,0.9258998233122996,0.3329765800667946,4.993026756071308,0.7160798551835212,no_tremor
240,8923437,1.651,0.10082584683497679,-0.12082932054967978,0.9254873715483553,0.3371775307092338,5.1121301982895995,0.5757217447218261,no_tremor
241,8923442,1.656,0.1013290727112094,-0.12068266996009264,0.9251296945653222,0.3396709772758198,5.233681931490535,0.44095514041760353,no_tremor
242,8923447,1.661,0.10192157071705976,-0.12056546978744576,0.9248237940262249,0.3397886319156967,5.35645424042014,0.3124440025438702,no_tremor
243,8923451,1.665,0.10259210712200993,-0.1204757056353689,0.9245666783492391,0.3369335407039965,5.479221256909802,0.19072998364783503,no_tremor
244,8923456,1.67,0.10332915514493476,-0.12041140693902413,0.924355370969457,0.33057930809189634,5.60077622281091,0.07623676652173442,no_tremor
245,8923461,1.675,0.1041210366772069,-0.1203706438054994,0.9241869175305628,0.32026900783484447,5.719947100266469,-0.030724565093798572,no_tremor
246,8923466,1.68,0.10495605783950333,-0.12035152381247839,0.9240583919871164,0.30561381592044073,5.835610510197166,-0.12994925732733456,no_tremor
247,8923490,1.704,0.10582263721028805,-0.12035218906199568,0.9239669016411924,0.2862913953139839,5.946703995432674,-0.2213318574255352,no_tremor
248,8923495,1.709,0.10670942567933224,-0.12037081376307189,0.9239095911854615,0.26204405646104845,6.0522366208963465,-0.30485856639879355,no_tremor
249,8923500,1.714,0.10760541701171696,-0.12040560258658785,0.9238836458732611,0.2326767115888358,6.151297938187518,-0.3805991140221219,no_tremor
250,8923505,1.719,0.10850004835353246,-0.12045478999774363,0.9238862939778953,0.19805463547119465,6.243065353927652,-0.4486982953463741,no_tremor
251,8923510,1.724,0.1093832900656177,-0.12051664072595529,0.923914808732008,0.15810104132857608,6.326809949406034,-0.5093673039348544,no_tremor
252,8923515,1.729,0.11024572443100471,-0.12058945148014655,0.9239665099504707,0.11279447860857567,6.401900803877662,-0.5628749903346801,no_tremor
253,8923520,1.734,0.11107861294039433,-0.1206715539612022,0.9240387655377735,0.062166059634040004,6.467807876673749,-0.6095391646043289,no_tremor
254,8923524,1.738,0.11187395201450834,-0.12076131916545267,0.9241289930664965,0.006296524141754542,6.5241035054541765,-0.6497180496632967,no_tremor
255,8923529,1.743,0.11262451717068478,-0.12085716291597384,0.9242346615904546,-0.05468684604817151,6.57046258057506,-0.6838019791314665,no_tremor
256,8923534,1.748,0.11332389578299425,-0.12095755250439955,0.9243532938275514,-0.12061344646584315,6.606661459628745,-0.7122054206273388,no_tremor
257,8923543,1.757,0.1139665087204572,-0.12106101427668668,0.9244824688156369,-0.19127268495847563,6.632575692422179,-0.7353593940180329,no_tremor
258,8923548,1.762,0.11454762127655575,-0.12116614195348047,0.924619825111667,-0.26641741225226373,6.6481766349833755,-0.7537043437868217,no_tremor
259,8923553,1.767,0.11506334392428946,-0.12127160544103148,0.9247630645717873,-0.34576742824934825,6.653527041012307,-0.7676835150222721,no_tremor
260,8923558,1.772,0.11551062354241153,-0.12137615986362749,0.9249099567190581,-0.42901304530450385,6.648775730005786,-0.7777368732886736,no_tremor
261,8923563,1.777,0.11588722585696563,-0.12147865453442293,0.9250583436776303,-0.5158186914721982,6.6341514428715325,-0.7842955998615134,no_tremor
262,8923568,1.782,0.1161917099239937,-0.12157804157878623,0.9252061456281123,-0.6058265386416843,6.6099560076656925,-0.7877771855614534,no_tremor
263,8923573,1.787,0.11642339554042849,-0.1216733839324616,0.9253513667189448,-0.698660141705328,6.57655694891375,-0.7885811387366926,no_tremor
264,8923578,1.792,0.11658232450744536,-0.12176386245506769,0.925492101352618,-0.7939280744764903,6.534379682341625,-0.7870853160153352,no_tremor
265,8923583,1.797,0.11666921668194055,-0.1218487819265359,0.9256265407529972,-0.8912275457456424,6.483899441559469,-0.7836428785418984,no_tremor
266,8923588,1.802,0.11668542173698997,-0.12192757572867131,0.9257529797101374,-0.9901479753398812,6.425633083418355,-0.7785798715654245,no_tremor
267,8923612,1.826,0.11663286751242823,-0.12199980905475402,0.9258698233910049,-1.0902745064458794,6.360130913817525,-0.7721934210400972,no_tremor
268,8923617,1.831,0.11651400577548408,-0.12206518053568424,0.9259755940978099,-1.1911914276981022,6.287968665694034,-0.7647505365225281,no_tremor
269,8923621,1.835,0.11633175613553795,-0.1221235222200721,0.9260689378497138,-1.2924854772014722,6.209739746441946,-0.7564875042262458,no_tremor
270,8923626,1.84,0.11608944877711412,-0.1221747978957818,0.9261486306584371,-1.3937490010263693,6.126047854133863,-0.7476098469697622,no_tremor
271,8923631,1.845,0.11579076660275363,-0.12221909978916873,0.9262135843639867,-1.4945829407083286,6.037500042258916,-0.7382928187316143,no_tremor
272,8923636,1.85,0.11543968732052406,-0.12225664372303291,0.9262628518938081,-1.5945996274846417,5.9447002935427715,-0.7286823911872338,no_tremor
273,8923641,1.855,0.11504042597208414,-0.12228776285307179,0.9262956318077565,-1.6934253649005717,5.848243646807625,-0.7188966793908732,no_tremor
274,8923645,1.859,0.11459737837450515,-0.12231290013385505,0.9263112719930195,-1.7907027856595235,5.748710907447938,-0.7090277453642153,no_tremor
275,8923650,1.864,0.11411506593822719,-0.12233259968807997,0.9263092723782816,-1.8860929727827858,5.646663961477291,-0.6991437127652751,no_tremor
276,8923655,1.869,0.11359808231931082,-0.12234749726662061,0.9262892865456274,-1.979277338663168,5.5426417044558125,-0.6892911229356543,no_tremor
277,8923660,1.874,0.11305104236080044,-0.12235830999179126,0.9262511221323044,-2.0699592580168544,5.437156589137331,-0.6794974615894249,no_tremor
278,8923665,1.879,0.11247853376997154,-0.12236582557308684,0.926194739932412,-2.1578654523759577,5.330691788615786,-0.6697737854308433,no_tremor
279,8923670,1.884,0.11188507196089827,-0.12237089117470147,0.9261202516302915,-2.242747125340148,5.22369896467364,-0.6601173791374432,no_tremor
280,8923675,1.889,0.11127505846226435,-0.12237440209877895,0.9260279161220705,-2.3243808496415856,5.116596624045728,-0.6505143761994826,no_tremor
281,8923680,1.894,0.11065274324761577,-0.12237729042897268,0.9259181344085192,-2.4025692090458057,5.009769038688629,-0.6409422826190224,no_tremor
282,8923685,1.899,0.1100221912897515,-0.12238051375673344,0.9257914430702684,-2.4771412001606667,4.903565699918324,-0.6313723501592575,no_tremor
283,8923689,1.903,0.10938725357407984,-0.12238504408901685,0.9256485063647418,-2.547952401378965,4.7983012704166415,-0.6217717549739409,no_tremor
284,8923694,1.908,0.10875154272959231,-0.1223918570120668,0.9254901070123602,-2.614884918111311,4.694255992962343,-0.6121055476251038,no_tremor
285,8923699,1.913,0.10811841335310458,-0.1224019211628876,0.9253171357673584,-2.6778471147401293,4.591676511001381,-0.6023383517467147,no_tremor
286,8923704,1.918,0.10749094701531135,-0.12241618803921712,0.925130579895925,-2.7367731445540455,4.490777054431264,-0.592435800891534,no_tremor
287,8923709,1.923,0.10687194184882653,-0.12243558216140275,0.9249315107114935,-2.791622290084262,4.391740944480043,-0.5823657158542035,no_tremor
288,8923733,1.947,0.10626390653162274,-0.12246099158660347,0.9247210703440691,-2.8423781281786566,4.29472237398517,-0.5720990369655268,no_tremor
289,8923738,1.952,0.10566905839752481,-0.12249325876820015,0.9245004579471342,-2.8890475364863812,4.199848422577319,-0.5616105362631935,no_tremor
290,8923747,1.961,0.10508932533344151,-0.12253317175219673,0.9242709155702518,-2.9316595601805333,4.107221268584296,-0.5508793418374965,no_tremor
291,8923752,1.966,0.10452635106713834,-0.12258145570850916,0.9240337139446022,-2.970264159240207,4.016920559618654,-0.5398893100875923,no_tremor
292,8923757,1.971,0.1039815034152797,-0.12263876480828163,0.9237901384384153,-3.004930857184776,3.9290059014729475,-0.5286292808465861,no_tremor
293,8923762,1.976,0.10345588505142086,-0.12270567447733453,0.9235414754369689,-3.035747311860907,3.84351942046519,-0.5170932458599709,no_tremor
294,8923767,1.981,0.10295034636555006,-0.12278267407811516,0.9232889993872074,-3.0628178281210894,3.760488348490026,-0.5052804538994902,no_tremor
295,8923771,1.985,0.10246550001596826,-0.12287016009545601,0.9230339607215569,-3.08626183146932,3.679927574014359,-0.493195467168735,no_tremor
296,8923777,1.991,0.10200173681532786,-0.12296842992274015,0.9227775748415668,-3.106212321105169,3.601842097828557,-0.48084817529996854,no_tremor
297,8923781,1.995,0.10155924264027842,-0.12307767636282715,0.9225210123022174,-3.122814319925746,3.5262293311765363,-0.4682537666278622,no_tremor
298,8923786,2.0,0.101138016103396,-0.1231979829706995,0.9222653902946721,-3.1362233376912307,3.453081177250243,-0.45543265197485966,no_tremor
299,8923791,2.005,0.10073788677213984,-0.12332932037093501,0.9220117654813723,-3.146603862125059,3.382385845795184,-0.44241033344919883,no_tremor
300,8923796,2.01,0.10035853375821656,-0.12347154368198368,0.9217611281948169,-3.1541278917871103,3.3141293646766035,-0.4292172093741154,no_tremor
301,8923801,2.015,0.0999995045286566,-0.12362439117074932,0.9215143979718993,-3.158973523889446,3.248296770359634,-0.41588830649465236,no_tremor
302,8923806,2.02,0.09966023380513633,-0.12378748424581282,0.9212724203605974,-3.1613236087368257,3.184872978959936,-0.40246293212539924,no_tremor
303,8923815,2.029,0.09934006241990269,-0.12396032887699918,0.9210359649060479,-3.1613644793108286,3.123843358011187,-0.38898424175552604,no_tremor
304,8923820,2.034,0.09903825598555065,-0.12414231850441722,0.9208057241991899,-3.15928475989281,3.0651940338457897,-0.3754987215470641,no_tremor
305,8923825,2.039,0.09875402321360892,-0.12433273847336315,0.9205823138536251,-3.155274252598824,3.008911978834268,-0.36205558979656766,no_tremor
306,8923829,2.043,0.09848653368661303,-0.1245307720044573,0.9203662732652541,-3.149522896311828,2.9549849261352255,-0.348706126270963,no_tremor
307,8923855,2.069,0.09823493485493441,-0.12473550768269233,0.9201580670044914,-3.142219789159503,2.9034011574011798,-0.33550294276170883,no_tremor
308,8923859,2.073,0.09799836799969242,-0.1249459484255197,0.9199580866920496,-3.1335522633107753,2.8541492019027683,-0.32249921163650797,no_tremor
309,8923864,2.078,0.09777598288501711,-0.1251610218683641,0.9197666532160853,-3.123704999396553,2.80721747527958,-0.30974787114384483,no_tremor
310,8923869,2.083,0.09756695082563613,-0.12537959208474328,0.9195840191609314,-3.1128591676505937,2.7625938750588777,-0.29730082656764223,no_tremor
311,8923874,2.088,0.09737047592487372,-0.1256004725358601,0.9194103713359035,-3.1011915843613824,2.720265340821847,-0.28520816530507825,no_tremor
312,8923879,2.093,0.0971858042926297,-0.12582244011992694,0.9192458333166541,-3.0888738753223683,2.6802173806665355,-0.2735174021534662,no_tremor
313,8923883,2.097,0.09701223112558528,-0.12604425016416154,0.9190904679404256,-3.0760716419394063,2.642433561933382,-0.2622727691508706,no_tremor
314,8923894,2.108,0.09684910561330487,-0.1262646521725852,0.9189442797288869,-3.0629436297185695,2.606894962251966,-0.2515145626135163,no_tremor
315,8923903,2.117,0.09669583371539096,-0.12648240611115438,0.9188072172459426,-3.0496409026188416,2.5735795770721683,-0.2412785585488893,no_tremor
316,8923913,2.127,0.09655187892923209,-0.12669629897957974,0.9186791754301162,-3.036306030150938,2.542461683022288,-0.23159550586643615,no_tremor
317,8923918,2.132,0.0964167612292673,-0.12690516138840835,0.918559997968059,-3.0230722970852106,2.5135111634655316,-0.2224907042670854,no_tremor
318,8923923,2.137,0.09629005440290138,-0.127107883833284,0.9184494797934817,-3.010062947915954,2.486692812982287,-0.21398367092994605,no_tremor
319,8923928,2.142,0.09617138203373438,-0.12730343233871036,0.9183473698017371,-2.997390479462502,2.4619656491605557,-0.20608789856378937,no_tremor
320,8923933,2.147,0.09606041239104657,-0.12749086313358082,0.9182533738642493,-2.985155995253257,2.4392822702937003,-0.19881070776784532,no_tremor
321,8923938,2.152,0.09595685247898827,-0.1276693360217944,0.9181671582111673,-2.973448635383135,2.4185883040980727,-0.19215319803853304,no_tremor
322,8923942,2.156,0.09586044148403276,-0.12783812612426934,0.9180883532284763,-2.9623450962555355,2.3998219942223185,-0.18611030252670552,no_tremor
323,8923947,2.161,0.09577094383953783,-0.12799663369380912,0.918016557690852,-2.951909256246505,2.3829139679056923,-0.1806709508076816,no_tremor
324,8923952,2.166,0.09568814210630514,-0.128144391741085,0.9179513434267776,-2.942191925089116,2.367787219746541,-0.17581834156206272,no_tremor
325,8923977,2.191,0.09561182985228427,-0.12828107125722055,0.9178922603899106,-2.9332307353724705,2.3543573332816368,-0.17153032381053995,no_tremor
326,8923997,2.211,0.09554180470702361,-0.12840648387396406,0.9178388420913492,-2.9250501930888952,2.3425329448354173,-0.1677798818060673,no_tremor
327,8924001,2.215,0.09547786176937391,-0.12852058186311133,0.9177906113308044,-2.9176619008356686,2.332216435748481,-0.16453571546247073,no_tremor
328,8924006,2.22,0.09541978755842218,-0.128623455438963,0.9177470861488752,-2.9110649631945007,2.3233048241973293,-0.16176290582201505,no_tremor
329,8924011,2.225,0.09536735471028944,-0.1287153273880688,0.917707785905671,-2.9052465800355636,2.3156908199283044,-0.15942365330585573,no_tremor
330,8924016,2.23,0.0953203176271731,-0.12879654510809502,0.9176722373723813,-2.900182830197623,2.30926400441868,-0.15747807430306685,no_tremor
331,8924021,2.235,0.09527840927262253,-0.12886757019286532,0.9176399807036062,-2.8958396446409993,2.3039121025473492,-0.15588503834834447,no_tremor
332,8924026,2.24,0.09524133927716669,-0.1289289657544895,0.9176105751420539,-2.892173964232846,2.299522317043062,-0.15460302408908194,no_tremor
