sample,t_ms,t_s,ax,ay,az,gx,gy,gz,tremor
0,8942972,0.0,-0.1626572362356477,-0.1792245497416955,-1.0211736933615028,1.3351815212906268,2.941897589456015,0.7241890287790831,no_tremor
1,8942977,0.005,-0.16275176182428616,-0.17907697576954076,-1.021032581685504,1.2658579059792194,2.867550255747303,0.6171164503800327,no_tremor
2,8942986,0.014,-0.16287299975944466,-0.178874794774999,-1.0208424565651424,1.1947758515260345,2.791434791484442,0.5107341007356587,no_tremor
3,8942991,0.019,-0.16301813683985916,-0.17861464481532457,-1.0206021877334621,1.121959967783863,2.7139883775149083,0.4053285744625385,no_tremor
4,8942996,0.024,-0.1631783707503686,-0.17830353199225604,-1.0203204266250618,1.0474436281856703,2.635674348879888,0.3011801288771903,no_tremor
5,8943006,0.034,-0.16334310373288496,-0.1779537498389711,-1.0200103578948108,0.9712700145730205,2.556979815106165,0.1985610083570032,no_tremor
6,8943010,0.038,-0.16350292940080666,-0.17757830542357378,-1.0196852617803214,0.8934930743145864,2.4784130629511747,0.09773380343575765,no_tremor
7,8943015,0.043,-0.16365078450535972,-0.17718855058515132,-1.0193563553645317,0.8141783643312218,2.4005007573180603,-0.0010501471752486112,no_tremor
8,8943020,0.048,-0.16378196143627455,-0.17679349943446795,-1.0190322814089126,0.7334037599287456,2.3237849615326467,-0.09755230392357607,no_tremor
9,8943025,0.053,-0.1638936671547827,-0.17639999537195933,-1.018719384144985,0.651260010374266,2.2488200032813013,-0.19154841509308634,no_tremor
10,8943035,0.063,-0.16398451296007738,-0.17601315868488415,-1.0184222164345937,0.5678511276870127,2.1761692162185184,-0.2828299372061716,no_tremor
11,8943039,0.067,-0.16405408478478173,-0.17563684043132155,-1.018144023381459,0.4832945993643548,2.106401588577653,-0.3712053749299181,no_tremor
12,8943064,0.092,-0.1641026241596995,-0.17527398757270632,-1.0178871219909782,0.3977214191480214,2.0400883487032995,-0.4565015253426326,no_tremor
13,8943069,0.097,-0.16413080500489374,-0.17492690683148587,-1.017653173151749,0.3112759327393828,1.97779951353891,-0.538564608789337,no_tremor
14,8943074,0.102,-0.16413958138218873,-0.17459744384732073,-1.0174433671095553,0.2241154984603941,1.9201004202651792,-0.6172612667329995,no_tremor
15,8943078,0.106,-0.16413008403648865,-0.17428709971769304,-1.0172585466228659,0.13640996666174923,1.8675482542066248,-0.6924794065230203,no_tremor
16,8943083,0.111,-0.16410354921086842,-0.17399710416203892,-1.017099287806853,0.04834098554346638,1.8206885791565113,-0.7641288742314986,no_tremor
17,8943088,0.116,-0.16406126840354693,-0.17372845983671759,-1.0169659532937914,-0.03989885630914991,1.7800518715739242,-0.8321419395558002,no_tremor
18,8943107,0.135,-0.16400455162709562,-0.17348196805602575,-1.0168587277495316,-0.12810703970651338,1.7461500597625623,-0.8964735806367236,no_tremor
19,8943112,0.14,-0.16393469941520372,-0.17325824290749645,-1.0167776423769315,-0.21607226694907658,1.7194730735913824,-0.9571015606368996,no_tremor
20,8943117,0.145,-0.1638529805962671,-0.17305771843523843,-1.0167225926652304,-0.3035757478979661,1.7004854174625923,-1.0140262913748228,no_tremor
21,8943122,0.15,-0.16376061399800207,-0.1728806519883743,-1.016693352053952,-0.39039261319128155,1.6896227852948795,-1.0672704819593277,no_tremor
22,8943127,0.155,-0.16365875297861676,-0.17272712577854052,-1.0166895831405496,-0.47629344846772564,1.687288738143659,-1.1168785722831092,no_tremor
23,8943137,0.165,-0.16354847214650856,-0.17259704799220305,-1.016710847397489,-0.5610459428448912,1.6938514620084804,-1.1629159525902715,no_tremor
24,8943142,0.17,-0.16343075592722836,-0.1724901543396336,-1.0167566139522224,-0.644416642681424,1.709640616743302,-1.2054679714725218,no_tremor
25,8943146,0.174,-0.1633064888217008,-0.1724060106106991,-1.0168262677365747,-0.7261727978752247,1.7349442788828806,-1.2446387361322129,no_tremor
26,8943151,0.179,-0.16317644730874478,-0.17234401659377485,-1.016919117172043,-0.8060842831718738,1.7700059737802938,-1.280549711158318,no_tremor
27,8943156,0.184,-0.16304129340032014,-0.17230341156279266,-1.0170344014849118,-0.8839255720839888,1.8150217878532473,-1.313338125698718,no_tremor
28,8943161,0.189,-0.16290156987571974,-0.17228328142615207,-1.0171712977133323,-0.9594777367916002,1.87013755161744,-1.3431552035043812,no_tremor
29,8943186,0.214,-0.1627576972151224,-0.17228256754589613,-1.017328927459824,-1.0325304441664722,1.9354460887609335,-1.3701642349274914,no_tremor
30,8943190,0.218,-0.16260997223800763,-0.17230007716779808,-1.0175063634451866,-1.102883916080101,2.010984534078625,-1.3945385135726165,no_tremor
31,8943195,0.223,-0.16245856844095902,-0.1723344953485107,-1.0177026359259185,-1.1703508215961826,2.096731730715699,-1.4164591627498213,no_tremor
32,8943200,0.228,-0.16230353802774997,-0.17238439822312057,-1.0179167390421258,-1.2347580693238294,2.192605722172235,-1.4361128788922053,no_tremor
33,8943205,0.233,-0.16214481562774521,-0.1724482674248366,-1.0181476371640676,-1.2959484695308987,2.298461355722645,-1.453689621507419,no_tremor
34,8943210,0.238,-0.16198222369825374,-0.17252450544724496,-1.0183942713018947,-1.3537822370749641,2.4140880120327215,-1.469380282133848,no_tremor
35,8943219,0.247,-0.16181547959763717,-0.17261145172693934,-1.0186555656346343,-1.4081383077243292,2.5392074727534415,-1.483374367315802,no_tremor
36,8943224,0.252,-0.16164420429811396,-0.17270739921850684,-1.0189304342010201,-1.4589154423031268,2.6734719357529806,-1.4958577316413204,no_tremor
37,8943229,0.257,-0.16146793268161694,-0.1728106112332535,-1.0192177877762998,-1.5060330958084043,2.816462187819839,-1.5070103960719454,no_tremor
38,8943234,0.262,-0.16128612533072448,-0.17291933831660014,-1.0195165409355713,-1.5494320327221924,2.967685947793077,-1.5170044849012405,no_tremor
39,8943239,0.267,-0.1610981816921268,-0.17303183494607743,-1.0198256192757074,-1.5890746752056901,3.1265763991092914,-1.5260023124998603,no_tremor
40,8943243,0.271,-0.16090345445518867,-0.17314637584184778,-1.020143966735314,-1.6249451770379757,3.2924909390940345,-1.5341546485334412,no_tremor
41,8943248,0.276,-0.16070126495579337,-0.17326127169435565,-1.0204705529168296,-1.6570492222296023,3.464710182164612,-1.5415991872379422,no_tremor
42,8943253,0.281,-0.16049091938832602,-0.17337488412881344,-1.0208043802789366,-1.685413552855589,3.6424372646849474,-1.5484592425881216,no_tremor
43,8943258,0.286,-0.16027172558838132,-0.17348563974357364,-1.021144491033572,-1.7100852357278284,3.824797509653692,-1.5548426869883984,no_tremor
44,8943267,0.295,-0.16004301013694983,-0.17359204307884848,-1.0214899735529024,-1.731130681767736,4.010838518739364,-1.5608411465091467,no_tremor
45,8943272,0.3,-0.15980413553412384,-0.17369268839349755,-1.021839968070474,-1.7486344351076624,4.199530766589895,-1.5665294605860638,no_tremor
46,8943277,0.305,-0.1595545171965663,-0.17378627015038556,-1.0221936714499325,-1.7626977515804367,4.389768777128008,-1.5719654084821888,no_tremor
47,8943282,0.31,-0.15929364004688723,-0.1738715921346548,-1.0225503407964287,-1.77343698954338,4.580372962797208,-1.5771896991084304,no_tremor
48,8943306,0.334,-0.15902107448253594,-0.1739475751535958,-1.0229092957013768,-1.7809818405183182,4.77009220460751,-1.582226215895376,no_tremor
49,8943311,0.339,-0.15873649153394212,-0.17401326329097805,-1.0232699189399943,-1.7854734320321954,4.957607243114103,-1.5870825050468365,no_tremor
50,8943316,0.344,-0.15843967704283232,-0.174067828711895,-1.0236316554800093,-1.78706233873985,5.14153493863421,-1.5917504937040405,no_tremor
51,8943321,0.349,-0.15813054470814836,-0.17411057503538865,-1.023994009704121,-1.7859065395487992,5.320433444284704,-1.59620742377524,no_tremor
52,8943325,0.353,-0.1578091478564084,-0.17414093931046862,-1.0243565407928386,-1.7821693583765288,5.4928083199343885,-1.600416986897972,no_tremor
53,8943330,0.358,-0.1574756897961445,-0.1741584926462176,-1.0247188562542846,-1.7760174253525949,5.6571196016367855,-1.6043306458739812,no_tremor
54,8943340,0.368,-0.157130532615399,-0.17416293955860243,-1.0250806036216757,-1.7676186945064511,5.811789831889821,-1.6078891277397913,no_tremor
55,8943345,0.373,-0.1567742042815941,-0.1741541161057333,-1.0254414603677744,-1.7571405530554927,5.955213052186957,-1.6110240732981678,no_tremor
56,8943350,0.378,-0.15640740390880611,-0.17413198688991333,-1.0258011221103607,-1.7447480554296955,6.085764760097624,-1.6136598275734262,no_tremor
57,8943355,0.383,-0.1560310050722183,-0.17409664100900493,-1.0261592892064624,-1.730602311786482,6.2018128365277185,-1.6157153555721573,no_tremor
58,8943360,0.388,-0.1556460570754654,-0.17404828704142744,-1.0265156518587324,-1.7148590566504802,6.30172945247307,-1.6171062678375943,no_tremor
59,8943369,0.397,-0.1552537841136809,-0.17398724714853708,-1.0268698738873434,-1.6976674192534809,6.383903966429066,-1.617746939790481,no_tremor
60,8943374,0.402,-0.15485558232081592,-0.17391395037539867,-1.0272215753562965,-1.6791689132592074,6.446756821781278,-1.6175527070215876,no_tremor
61,8943379,0.407,-0.15445301473951759,-0.17382892522641083,-1.027570314284208,-1.6594966594188116,6.488754445814078,-1.6164421156944089,no_tremor
62,8943384,0.412,-0.1540478042993536,-0.17373279158651248,-1.0279155677156373,-1.638774849976991,6.508425136431723,-1.61433920379666,no_tremor
63,8943388,0.416,-0.1536418249281052,-0.17362625205262747,-1.0282567124780961,-1.617118458485829,6.504375898850085,-1.6111757859674747,no_tremor
64,8943393,0.421,-0.15323709094616786,-0.17351008273457993,-1.0285930059994448,-1.5946331935592095,6.475310164086023,-1.6068937128885268,no_tremor
65,8943398,0.426,-0.1528357449027543,-0.1733851235809285,-1.028923567607039,-1.5714156901736642,6.420046286893959,-1.6014470765126816,no_tremor
66,8943403,0.431,-0.15244004400339556,-0.17325226828392196,-1.029247360769995,-1.5475539270647245,6.337536685984441,-1.5948043347594978,no_tremor
67,8943428,0.456,-0.15205234525172248,-0.17311245381977747,-1.0295631767755882,-1.5231278534996777,6.226887457214757,-1.586950332806487,no_tremor
68,8943432,0.46,-0.15167508938771146,-0.1729666496860296,-1.0298696203468618,-1.4982102039083978,6.087378264181502,-1.5778882012257616,no_tremor
69,8943437,0.465,-0.15131078365636152,-0.172815846906388,-1.0301650977083003,-1.4728674753711561,5.918482292529848,-1.567641112541002,no_tremor
70,8943442,0.47,-0.15096198339561942,-0.17266104688408643,-1.030447807587924,-1.4471610409300537,5.719886044678092,-1.556253876795592,no_tremor
71,8943447,0.475,-0.15063127240085009,-0.17250325019527465,-1.0307157356073253,-1.4211483704810657,5.491508748505381,-1.543794354285337,no_tremor
72,8943452,0.48,-0.15032124201135963,-0.17234344542292274,-1.0309666524587164,-1.3948843298575428,5.233521153313386,-1.530354661344531,no_tremor
73,8943461,0.489,-0.1500344688725676,-0.17218259813792053,-1.0311981162049006,-1.3684225272851542,4.946363485941729,-1.5160521440231294,no_tremor
74,8943471,0.499,-0.1497734913515362,-0.17202164013706783,-1.031407478969619,-1.3418166748435714,4.630762337777144,-1.5010300945752286,no_tremor
75,8943476,0.504,-0.14954078461808706,-0.1718614590472759,-1.0315918982165557,-1.315121931380359,4.2877462491953775,-1.4854581865151122,no_tremor
76,8943480,0.508,-0.1493387344424476,-0.17170288840150086,-1.031748352748961,-1.2883961930242633,3.9186597518538115,-1.4695326057583133,no_tremor
77,8943485,0.513,-0.14916960979740543,-0.1715466982849165,-1.0318736635005468,-1.2617012985578633,3.52517562171921,-1.4534758585329668,no_tremor
78,8943490,0.518,-0.14903553438415484,-0.1713935866402134,-1.0319645191326043,-1.2351041196971833,3.1093050875531105,-1.437536241226499,no_tremor
79,8943495,0.523,-0.14893845722485355,-0.1712441713097065,-1.0320175064012607,-1.208677510340922,2.673405731710875,-1.4219869621648673,no_tremor
80,8943504,0.532,-0.14888012248224447,-0.17109898288039466,-1.0320291452106454,-1.1825010929185293,2.2201868136810954,-1.4071249094895024,no_tremor
81,8943509,0.537,-0.14886203867995063,-0.1709584583874569,-1.0319959282204825,-1.1566618629616119,1.7527117431605752,-1.3932690625541755,no_tremor
82,8943514,0.542,-0.1488854475094535,-0.17082293592287026,-1.031914364828314,-1.1312545946727695,1.274397429957856,-1.38075854675111,no_tremor
83,8943524,0.552,-0.14895129242479238,-0.17069265018948382,-1.0317810292955456,-1.1063820310038084,0.7890102436173839,-1.3699503331493683,no_tremor
84,8943548,0.576,-0.14906018724668585,-0.1705677290370148,-1.0315926127314405,-1.0821548419738243,0.3006583266394217,-1.36121658447525,no_tremor
85,8943558,0.586,-0.1492123850257667,-0.17044819101429987,-1.0313459785894614,-1.058691334785543,-0.18621997890654488,-1.3549416480617107,no_tremor
86,8943563,0.591,-0.14940774744954327,-0.17033394397021137,-1.0310382212663867,-1.0361168990668739,-0.6668718113995371,-1.3515186951287752,no_tremor
87,8943568,0.596,-0.14964571511686237,-0.17022478473209773,-1.0306667273283039,-1.014563171063614,-1.1362497722653189,-1.351346004946354,no_tremor
88,8943573,0.601,-0.14992527904291852,-0.17012039988418093,-1.0302292388220868,-0.9941669027086282,-1.5890363790291264,-1.3548228930543753,no_tremor
89,8943578,0.606,-0.1502449537935199,-0.1700203676590079,-1.0297239180696665,-0.9750685255512734,-2.019673124287416,-1.3623452855247902,no_tremor
90,8943583,0.611,-0.15060275267750892,-0.16992416094379206,-1.0291494132877113,-0.9574104051069311,-2.422394239020162,-1.3743009463108073,no_tremor
91,8943597,0.625,-0.1509961654509665,-0.16983115139164992,-1.0285049243281925,-0.9413347873278431,-2.791265216982244,-1.3910643715226225,no_tremor
92,8943602,0.63,-0.15142213900725637,-0.16974061461658946,-1.0277902677955675,-0.9269814448580479,-3.1202261110785994,-1.4129913722185439,no_tremor
93,8943612,0.64,-0.1518770615447,-0.16965173644168652,-1.0270059407628804,-0.9144850364848909,-3.403139563389718,-1.4404133754408597,no_tremor
94,8943622,0.65,-0.1523567507202624,-0.1695636201629772,-1.026153182279995,-0.9039721991552851,-3.633843478331538,-1.4736314817626495,no_tremor
95,8943632,0.66,-0.15285644631377499,-0.16947529478752724,-1.0252340318399469,-0.895558398204409,-3.8062081934264085,-1.512910326582344,no_tremor
96,8943636,0.664,-0.1533708079418682,-0.16938572420261516,-1.0242513839418141,-0.8893445675306706,-3.9141979444640853,-1.5584718012333465,no_tremor
97,8943641,0.669,-0.15389391837084537,-0.16929381723320944,-1.0232090378595498,-0.8854135766393781,-3.951936361638647,-1.610488698040116,no_tremor
98,8943671,0.699,-0.15441929297884752,-0.1691984385460768,-1.0221117416969645,-0.8838265654496766,-3.9137756709454603,-1.6690783507610987,no_tremor
99,8943676,0.704,-0.15493989590533264,-0.169098420360265,-1.0209652297831604,-0.8846191905213261,-3.7943692123799897,-1.7342963485088647,no_tremor
100,8943680,0.708,-0.1554481633958404,-0.16899257492473066,-1.01977625244676,-0.8877978277397799,-3.5887468274731016,-1.8061304067368287,no_tremor
101,8943685,0.713,-0.1559360347982103,-0.1688797077237028,-1.018552597209488,-0.8933357761386246,-3.292392618873663,-1.8844944826589838,no_tremor
102,8943695,0.723,-0.15639499159024325,-0.16875863136809566,-1.0173031004666906,-0.9011695055540218,-2.9013245466010558,-1.969223224667223,no_tremor
103,8943700,0.728,-0.1568161047187487,-0.16862818012642403,-1.016037648775908,-0.9111949880191478,-2.4121752961792247,-2.060066846620929,no_tremor
104,8943705,0.733,-0.15719009041014334,-0.16848722504136743,-1.0147671689509135,-0.9232641500285986,-1.8222738265518776,-2.1566865187989497,no_tremor
105,8943710,0.738,-0.15750737447988764,-0.16833468956892156,-1.0135036062511993,-0.9371814803818492,-1.1297269743829912,-2.2586503678062253,no_tremor
106,8943714,0.742,-0.15775816502966988,-0.1681695656666521,-1.0122598900589708,-0.9527008266092308,-0.333500452751508,-2.3654301775050497,no_tremor
107,8943719,0.747,-0.1579325332848678,-0.16799093024657438,-1.0110498865417503,-0.9695224126971109,0.5665014637795059,-2.476398881690776,no_tremor
108,8943724,0.752,-0.1580205021972155,-0.16779796189719082,-1.0098883379046364,-0.987290112611318,1.5693583268999354,-2.5908289363056785,no_tremor
109,8943729,0.757,-0.15801214232453667,-0.1675899577686674,-1.0087907879395155,-1.0055890180609555,2.67305878719766,-2.707891654194928,no_tremor
110,8943734,0.762,-0.15789767440523728,-0.1673663505053166,-1.0077734936780567,-1.0239433443493842,3.8744296150206785,-2.8266575789362105,no_tremor
111,8943739,0.767,-0.15766757797216868,-0.1671267251006206,-1.006853323051752,-1.041814723560862,5.169069379069805,-2.9460979667280087,no_tremor
112,8943744,0.772,-0.15731270529780042,-0.16687083554196172,-1.0060476385577792,-1.0586009380041048,6.55128773031962,-3.0650874372647214,no_tremor
113,8943748,0.776,-0.1568243999268938,-0.16659862110486792,-1.0053741670271468,-1.073635147641996,8.014051265706838,-3.1824078461267935,no_tremor
114,8943753,0.781,-0.15619461902851822,-0.1663102221496734,-1.0048508556949918,-1.0861856630116595,9.54893695838954,-3.296753422406548,no_tremor
115,8943758,0.786,-0.15541605877967046,-0.16600599526675122,-1.004495714885421,-1.0954563102928396,11.146094136549742,-3.4067372060698906,no_tremor
116,8943763,0.791,-0.15448228197100025,-0.16568652760963112,-1.004326647747905,-1.100587428327657,12.794215969841703,-3.5108988098918266,no_tremor
117,8943768,0.796,-0.15338784699460672,-0.1653526502481631,-1.0043612676212035,-1.10065752932931,14.480521383278003,-3.607713520383948,no_tremor
118,8943797,0.825,-0.15212843732880538,-0.16500545036632874,-1.00461670375549,-1.0946856465367802,16.190748265299803,-3.6956027403803495,no_tremor
119,8943802,0.83,-0.1507009905710941,-0.16464628212142643,-1.0051093962934718,-1.081634383561898,17.909158772137065,-3.772945762439582,no_tremor
120,8943807,0.835,-0.1491038259873151,-0.16427677597359752,-1.0058548815941866,-1.0604136715084067,19.618557455953717,-3.838092847061533,no_tremor
121,8943812,0.84,-0.14733676944591925,-0.16389884628782925,-1.0068675691733053,-1.0298852308788033,21.30032286150512,-3.8893795634546215,no_tremor
122,8943817,0.845,-0.14540127449956008,-0.16351469700572074,-1.0081605117242018,-0.9888677260388694,22.934453146460157,-3.9251423337967455,no_tremor
123,8943826,0.854,-0.14330053827250275,-0.16312682518246044,-1.0097451698681377,-0.9361425912939768,24.49962618413329,-3.9437351050710427,no_tremor
124,8943841,0.869,-0.14103961072132515,-0.16273802218652061,-1.0116311734545995,-0.8704604999322754,25.973274503487534,-3.943547056121686,no_tremor
125,8943845,0.873,-0.13862549576555153,-0.16235137236636513,-1.013826081390385,-0.7905484406547817,27.33167531001011,-3.9230212320662834,no_tremor
126,8943850,0.878,-0.13606724273899243,-0.161970249000888,-1.0163351421154987,-0.6951173590091693,28.55005571326126,-3.8806739837503663,no_tremor
127,8943855,0.883,-0.1333760265936972,-0.16159830736910613,-1.0191610569631067,-0.582870314308432,29.602713162923695,-3.815115076123394,no_tremor
128,8943860,0.888,-0.13056521529553197,-0.1612394747999661,-1.022303748738758,-0.45251109493697567,30.463150964191303,-3.7250683156384308,no_tremor
129,8943865,0.893,-0.1276504228798608,-0.16089793759427776,-1.0257601379312353,-0.30275322724019504,31.10422860373823,-3.6093925325629184,no_tremor
130,8943869,0.897,-0.12464954668285949,-0.1605781247463706,-1.0295239290251086,-0.1323293059888875,31.498326468024377,-3.467102739203327,no_tremor
131,8943874,0.902,-0.12158278732421146,-0.16028468843146135,-1.033585409424822,0.05999943183917461,31.617524376019045,-3.297391269664544,no_tremor
132,8943879,0.907,-0.11847265008701179,-0.16002248126439578,-1.0379312635230427,0.27543337355647024,31.433793179255474,-3.099648691629808,no_tremor
133,8943884,0.912,-0.11534392641847326,-0.15979653037507305,-1.042544404452529,0.5151247258842325,30.919198504982127,-2.8734842667011424,no_tremor
134,8943914,0.942,-0.1122236543594209,-0.15961200838446513,-1.0474038260506133,0.7801677315081837,30.046115535374085,-2.618745723568725,no_tremor
135,8943919,0.947,-0.10914105680193091,-0.15947420140204632,-1.0524844775372064,1.071589004191306,28.787453530719286,-2.335538097773312,no_tremor
136,8943928,0.956,-0.10612745657554282,-0.15938847420046337,-1.0577571633581726,1.3903380830269003,27.11688862220178,-2.024241383612012,no_tremor
137,8943938,0.966,-0.10321616747908606,-0.15936023275672428,-1.0631884705713481,1.7372783074540987,25.00910322648853,-1.6855267388511548,no_tremor
138,8943943,0.971,-0.10044236051534265,-0.15939488438181637,-1.0687407260464592,2.113178112009856,22.440030274536053,-1.320370981718424,no_tremor
139,8943948,0.976,-0.09784290475700626,-0.15949779569334213,-1.0743719856072151,2.518702833782709,19.387100302036185,-0.9300691212110106,no_tremor
140,8943953,0.981,-0.09545618247868787,-0.15967424871906605,-1.0800360570604286,2.9544071176242577,15.829489317277128,-0.5162446648076496,no_tremor
141,8943967,0.995,-0.09332187843010782,-0.1599293954531755,-1.085682558832592,3.4207279956359065,11.748365242427793,-0.08085745178544884,no_tremor
142,8943972,1.0,-0.09148074339459943,-0.16026821122086668,-1.0912570156713959,3.917978708822184,7.127130615999146,0.37379123386458235,no_tremor
143,8943977,1.005,-0.08997433246602703,-0.16069544723920823,-1.0967009925731068,4.446343330147452,1.951659148400775,0.8450565082108982,no_tremor
144,8943987,1.015,-0.0888447187764762,-0.1612155827912597,-1.1019522677732525,5.005872239425981,-3.7894763581783732,1.3299509142579897,no_tremor
145,8943992,1.02,-0.08813418370840045,-0.1618327774541923,-1.1069450452942389,5.596478491252559,-10.104787274908881,1.8251488376986378,no_tremor
146,8944002,1.03,-0.08788488492395116,-0.16255082383915614,-1.1116102071840355,6.217935107141225,-16.9996661798459,2.3269944958213578,no_tremor
147,8944007,1.035,-0.08813850384096072,-0.1633731013100113,-1.1158756052072811,6.869873311793199,-24.47620024470632,2.8315136564661585,no_tremor
148,8944041,1.069,-0.0889358744826639,-0.16430253114964788,-1.1196663913651808,7.551781720735713,-32.533003524968066,3.3344292117570324,no_tremor
149,8944046,1.074,-0.09031659593187914,-0.16534153363706827,-1.122905386224252,8.263006472869467,-41.16507063053721,3.8311806948879434,no_tremor
150,8944061,1.089,-0.09231863093632872,-0.1664919874870746,-1.1255134836277667,9.002752288642581,-50.36365414207497,4.316947787757505,no_tremor
151,8944066,1.094,-0.09497789354571612,-0.16775519208905826,-1.1274100899502753,9.77008442561216,-60.116167986111535,4.786677822532727,no_tremor
152,8944071,1.099,-0.09832782901452271,-0.16913183296338308,-1.1285135956390757,10.563931499713052,-70.40611879404452,5.235117231726338,no_tremor
153,8944076,1.104,-0.10239898957121758,-0.17062195083363063,-1.1287418763720234,11.383089141595763,-81.21306705497146,5.656846850813429,no_tremor
154,8944080,1.108,-0.10721861002162997,-0.17222491469039375,-1.1280128207540439,12.226224460813174,-92.51261963864572,6.046320926504558,no_tremor
155,8944085,1.113,-0.11281018750507364,-0.173939399197335,-1.1262448810800356,13.091881295227472,-104.27645501467417,6.397909632809647,no_tremor
156,8944090,1.118,-0.11919307003999421,-0.17576336676313042,-1.1233576433138865,13.978486228674535,-116.47238222313808,6.705944845076913,no_tremor
157,8944095,1.123,-0.12638205876693123,-0.1776940545739162,-1.1192724120765263,14.884355367050937,-129.06443435480236,6.9647688684954066,no_tremor
158,8944100,1.128,-0.13438702900839858,-0.17972796684982772,-1.113912806105107,15.80770187184288,-142.01299697337606,7.168785762094253,no_tremor
159,8944104,1.132,-0.1432125754082736,-0.18186087255565975,-1.1072053593458862,16.746644259954895,-155.27497155764857,7.3125148425071735,no_tremor
160,8944109,1.137,-0.1528576864803267,-0.1840878087588588,-1.0990801225805957,17.699215487068493,-168.80397365710266,7.390645894366673,no_tremor
161,8944114,1.142,-0.16331545388213176,-0.18640308978723724,-1.0894712602651888,18.66337283482026,-182.55056503871896,7.398095557448508,no_tremor
162,8944119,1.147,-0.1745728216349342,-0.18880032229349192,-1.0783176370856238,19.63700861582746,-196.46251865420118,7.330064306629797,no_tremor
163,8944124,1.152,-0.18661038033260002,-0.19127242628391278,-1.0655633886120033,20.617961692123366,-210.48511477870443,7.182093390951601,no_tremor
164,8944129,1.157,-0.19940221112568765,-0.19381166211555836,-1.0511584703639447,21.604029770620922,-224.56146617053955,6.950121052772749,no_tremor
165,8944133,1.161,-0.21291578393281083,-0.19640966341160623,-1.035059179590658,22.592982393693593,-238.6328695834238,6.630537307054014,no_tremor
166,8944164,1.192,-0.2271119139226691,-0.19905747579115668,-1.0172286441234497,23.582574484680315,-252.63918043900532,6.2202365259373975,no_tremor
167,8944169,1.197,-0.24194477982439416,-0.20174560126039137,-0.9976372727801683,24.57056024092725,-266.5192069665991,5.716667049055549,no_tremor
168,8944173,1.201,-0.25736200705175716,-0.2044640480698138,-0.9762631619909112,25.554707101293733,-280.211119707046,5.117877030523449,no_tremor
169,8944178,1.206,-0.27330481795180356,-0.20720238580986955,-0.9530924535673184,26.53280946648981,-293.65287204691236,4.422555743633992,no_tremor
170,8944183,1.211,-0.2897082506953567,-0.20994980549418088,-0.928119638846597,27.50270183059041,-306.7826274390498,3.630069596005129,no_tremor
171,8944188,1.216,-0.30650144741274776,-0.2126951843609968,-0.9013478048007956,28.46227099013687,-319.5391891273969,2.7404921612780164,no_tremor
172,8944193,1.221,-0.3236080111574677,-0.21542715510131913,-0.8727888181102399,29.40946702425075,-331.86242843269895,1.7546276077867482,no_tremor
173,8944197,1.225,-0.3409464301818978,-0.21813417918917474,-0.8424634436586718,30.342312775243425,-343.69370789734774,0.6740269996333478,no_tremor
174,8944202,1.23,-0.3584305668704821,-0.22080462394137307,-0.8104013944205941,31.258911597309186,-354.97629579633514,-0.4990029389701558,no_tremor
175,8944217,1.245,-0.37597020753781557,-0.22342684286993014,-0.776641310286588,32.15745317710578,-365.65576868368544,-1.7613988709470954,no_tremor
176,8944222,1.25,-0.39347166820449897,-0.22598925881200702,-0.7412306640217717,33.03621726356631,-375.6803987578507,-3.1093478323241746,no_tremor
177,8944226,1.254,-0.4108384504594447,-0.22848044923350372,-0.7042255932912448,33.89357517770315,-385.00152290640705,-4.538302134449072,no_tremor
178,8944231,1.259,-0.42797194065624133,-0.23088923300795924,-0.6656906585328992,34.727989011642116,-393.57389034987676,-6.043002022902794,no_tremor
179,8944241,1.269,-0.44477214501750495,-0.2332047578753806,-0.6256985274354165,35.53800847562709,-401.3559858620358,-7.617505817401424,no_tremor
180,8944282,1.31,-0.4611384527538763,-0.2354165876859233,-0.5843295879105198,36.32226541757329,-408.3103256036772,-9.255227159534812,no_tremor
181,8944287,1.315,-0.47697041903695103,-0.23751478842856744,-0.5416714927330762,37.07946612544027,-414.40372267772284,-10.948978909563724,no_tremor
182,8944292,1.32,-0.49216855957778183,-0.23949001193627822,-0.4978186403945247,37.808381625893375,-419.6075196347525,-12.691023156623597,no_tremor
183,8944296,1.324,-0.5066351486257249,-0.2413335760573899,-0.45287159802904314,38.50783630156253,-423.89778538813437,-14.473126739954223,no_tremor
184,8944302,1.33,-0.5202750123769042,-0.24303754000662664,-0.40693647336453537,39.17669524758628,-427.25547436647554,-16.286621623008575,no_tremor
185,8944306,1.334,-0.5329963100223482,-0.24459477357527862,-0.3601242434318582,39.81385086563396,-429.6665462095276,-18.1224694159482,no_tremor
186,8944311,1.339,-0.5447112949340089,-0.24599901889708603,-0.3125500482452271,40.41820924735617,-431.12204484425126,-19.9713293043114,no_tremor
187,8944321,1.349,-0.555337048758321,-0.2472449435348386,-0.2643324579060331,40.98867692839041,-431.61813631651484,-21.823628614091035,no_tremor
188,8944330,1.358,-0.5647961814532865,-0.2483281837690622,-0.21559272164224144,41.52414859675829,-431.15610527977805,-23.669635227453792,no_tremor
189,8944335,1.363,-0.5730174905709225,-0.24924537712997313,-0.16645400721291018,42.02349631366522,-429.74231054342596,-25.49953105852852,no_tremor
190,8944340,1.368,-0.5799365733669162,-0.24999418341284332,-0.11704063889291401,42.48556074975128,-427.3881005506615,-27.303485805182994,no_tremor
191,8944345,1.373,-0.5854963856332002,-0.25057329365015596,-0.06747734190573751,42.90914485864788,-424.1096900850385,-29.071730212640166,no_tremor
192,8944350,1.378,-0.589647741514332,-0.25098242677426885,-0.017888500702621116,43.293010309922764,-419.9279999001987,-30.79462812066542,no_tremor
193,8944360,1.388,-0.5923497489958607,-0.2512223139815204,0.031602562073641025,43.63587689548563,-414.8684613376353,-32.46274661875669,no_tremor
194,8944365,1.393,-0.5935701762493069,-0.2512946710901651,0.08087427971158884,43.936425016244,-408.96078834820656,-34.066923702280405,no_tremor
195,8944370,1.398,-0.5932857445934514,-0.25120215945602237,0.12980750304237604,44.19330125446368,-402.23871966543925,-35.59833290369294,no_tremor
196,8944375,1.403,-0.5914823444995756,-0.2509483362567468,0.17828612458269597,44.40512694372011,-394.73973418937874,-37.04854446063779,no_tremor
197,8944379,1.407,-0.5881551718429258,-0.25053759516628943,0.22619766090423263,44.57050956244799,-386.5047429239576,-38.40958266759389,no_tremor
198,8944407,1.435,-0.5833087824884683,-0.24997509860936917,0.27343378957880793,44.68805669851417,-377.57776106174003,-39.673979130099994,no_tremor
199,8944412,1.44,-0.576957064284192,-0.24926670291181205,0.31989083769367604,44.7563922622414,-368.00556401151954,-40.834821693809516,no_tremor
200,8944422,1.45,-0.5691231265881933,-0.24841887775023475,0.3654702195697243,44.774174568824066,-357.8373312817068,-41.885798854080775,no_tremor
201,8944426,1.454,-0.5598391085281095,-0.24743862135832279,0.4100788219707221,44.74011587557815,-347.12428212258675,-42.82123947052009,no_tremor
202,8944436,1.464,-0.5491459082325243,-0.24633337297076444,0.4536293357899163,44.653002949421115,-335.91930667853694,-43.636147622606586,no_tremor
203,8944441,1.469,-0.5370928362498278,-0.2451109239820916,0.4960405339377625,44.51171825233321,-324.27659614098803,-44.32623245451086,no_tremor
204,8944455,1.483,-0.5237371972699579,-0.2437793292664981,0.537237495891246,44.315261358922285,-312.2512750812268,-44.88793287504215,no_tremor
205,8944460,1.488,-0.5091438050924069,-0.2423468200447489,0.5771517800458421,44.062770252259206,-299.8990388214263,-45.318437006095145,no_tremor
206,8944475,1.503,-0.4933844365457545,-0.24082171959412352,0.615721545593592,43.75354217579371,-287.275798390503,-45.61569631132015,no_tremor
207,8944479,1.507,-0.47653723075851556,-0.2392123629774774,0.6528916261201314,43.387053745921364,-274.4373353146492,-45.77843438373776,no_tremor
208,8944489,1.517,-0.45868604079409475,-0.2375270218219662,0.6886135574797281,42.962980048744924,-261.43896821706863,-45.80615042080819,no_tremor
209,8944493,1.521,-0.4399197451661851,-0.2357738350146224,0.7228455627938781,42.48121245536677,-248.33523295742,-45.699117460590024,no_tremor
210,8944498,1.526,-0.420331527109864,-0.23396074601106398,0.7555524976494318,41.941874894978675,-235.1795778385244,-45.45837548718687,no_tremor
211,8944503,1.531,-0.4000181296684863,-0.2320954472850044,0.786705758760331,41.345338328059185,-222.0240752514803,-45.08571953534626,no_tremor
212,8944531,1.559,-0.37907909465689155,-0.23018533228670843,0.8162831595045491,40.69223316724093,-208.919151020151,-44.583682933957405,no_tremor
213,8944541,1.569,-0.3576159933913789,-0.2282374551298787,0.8442687758510156,39.98345940382752,-195.91333263426372,-43.95551583010163,no_tremor
214,8944546,1.574,-0.3357316567675329,-0.22625849808428666,0.8706527662512746,39.22019421485579,-183.0530175070327,-43.20515913478445,no_tremor
215,8944551,1.579,-0.31352941185462607,-0.2242547468068325,0.8954311690967899,38.40389684884106,-170.38226232717477,-42.337214033311895,no_tremor
216,8944555,1.583,-0.2911123316955086,-0.2222320730892485,0.9186056813428276,37.53631061683251,-157.942594471261,-41.356907208588446,no_tremor
217,8944570,1.598,-0.268582504487224,-0.2201959247373293,0.9401834218666693,36.61946184838624,-145.7728462987174,-40.27005193230562,no_tremor
218,8944575,1.603,-0.246040327798145,-0.21815132203503473,0.9601766830403303,35.65565570960204,-133.90901298230915,-39.08300518646594,no_tremor
219,8944580,1.608,-0.2235838329699033,-0.21610286010320362,0.9786026738336795,34.64746882174815,-122.38413433735411,-37.802620991294674,no_tremor
220,8944584,1.612,-0.2013080443654559,-0.21405471635320136,0.9954832575098325,33.597738661758946,-111.22820089603853,-36.4362001449411,no_tremor
221,8944589,1.617,-0.17930437766613544,-0.21201066217253867,1.0108446866281153,32.509549768510446,-100.46808422947694,-34.991436632199395,no_tremor
222,8944594,1.622,-0.15766008100459417,-0.20997407796714748,1.0247173376343088,31.38621682363599,-90.12749127098115,-33.47636103323056,no_tremor
223,8944624,1.652,-0.13645772236589945,-0.2079479707211993,1.0371354468008036,30.231264727930476,-80.22694216882928,-31.89928135354926,no_tremor
224,8944651,1.679,-0.11577472640621525,-0.20593499331162737,1.048136848695392,29.048405858301088,-70.78377101260861,-30.268721795406147,no_tremor
225,8944656,1.684,-0.09568296360848531,-0.20393746491648002,1.0577627177400442,27.84151476495798,-61.812148630396635,-28.59336008449788,no_tremor
226,8944661,1.689,-0.07624839445478128,-0.20195739196596113,1.0660573128330841,26.61460064540706,-53.32312652623815,-26.88196403519342,no_tremor
227,8944671,1.699,-0.0575307709594388,-0.19999648918880214,1.0730677245311837,25.371777996776956,-45.32470090055422,-25.143328067567346,no_tremor
228,8944676,1.704,-0.03958339741707055,-0.19805620040187394,1.0788436239838792,24.117235890755012,-37.82189556688374,-23.3862103816545,no_tremor
229,8944681,1.709,-0.02245295157834741,-0.19613771878390074,1.0834370126955448,22.855206335164056,-30.816862455815585,-21.619271461644963,no_tremor
230,8944686,1.714,-0.006179366725874451,-0.19424200647120105,1.0869019722269682,21.589932188213382,-24.30899828858477,-19.851014537207433,no_tremor
231,8944691,1.719,0.009204225654715133,-0.19236981341551412,1.0892944130947533,20.325635081307876,-18.295075908321202,-18.08972857554861,no_tremor
232,8944695,1.723,0.023671493677479942,-0.19052169554660506,1.0906718223406326,19.066483788062524,-12.769388674134758,-16.34343431772391,no_tremor
233,8944700,1.728,0.037202845119987296,-0.1886980323776821,1.0910930094931124,17.81656345208347,-7.723906252412413,-14.619833809051865,no_tremor
234,8944705,1.733,0.049785312187833664,-0.18689904427112533,1.0906178509077171,16.57984605207799,-3.148440082683397,-12.926263810924713,no_tremor
235,8944710,1.738,0.061412383994674566,-0.18512480963850803,1.0893070327329293,15.360162438123563,0.969183245070161,-11.269653424144847,no_tremor
236,8944715,1.743,0.07208379026549308,-0.18337528237825648,1.0872217929952837,14.161176220095735,4.6429424844388665,-9.656486204031552,no_tremor
237,8944720,1.748,0.08180524018038761,-0.18165030985534583,1.0844236635210998,12.986359734769175,7.888437875816704,-8.092767003453341,no_tremor
238,8944725,1.753,0.09058812060398774,-0.17994965170079694,1.0809742126085415,11.838972268242793,10.722704686576405,-6.58399373742833,no_tremor
239,8944734,1.762,0.09844915819541147,-0.1782729996558289,1.0769347895281465,10.72204066911557,13.164025842269458,-5.135134217273315,no_tremor
240,8944739,1.767,0.1054100500709599,-0.17661999860790945,1.0723662720596454,9.638342457204098,15.231745267355704,-3.75060815086644,no_tremor
241,8944744,1.772,0.11149706780372405,-0.17499026886518762,1.0673288183648721,8.590391512015277,16.946083457717,-2.4342743488871754,no_tremor
242,8944749,1.777,0.11674063959951286,-0.17338342959393285,1.0618816245482214,7.580426411227157,18.32795669266604,-1.1894231172363627,no_tremor
243,8944773,1.801,0.12117491549577945,-0.1717991232047425,1.05608268926761,6.61040147741229,19.39880116568183,-0.018773755810388232,no_tremor
244,8944777,1.805,0.12483732039663119,-0.17023704032586073,1.0499885867359635,5.681980577279456,20.180403176863866,1.0755229745147756,no_tremor
245,8944782,1.81,0.12776809968586317,-0.16869694486062464,1.043654249407047,4.796533698545707,20.694736394099724,2.091877610314186,no_tremor
246,8944787,1.815,0.13000986205010473,-0.16717869851041123,1.0371327615838624,3.9551363022410064,20.963807062663466,3.0292502155955914,no_tremor
247,8944806,1.834,0.1316071239922049,-0.1656822840727284,1.0304751651361712,3.1585714123949797,21.009507928913653,3.8871343790083372,no_tremor
248,8944811,1.839,0.13260586031879984,-0.16420782680556134,1.0237302784752846,2.407334364552198,20.853481540036682,4.665537319402314,no_tremor
249,8944816,1.844,0.13305306464643543,-0.1627556131816367,1.0169445299100952,1.7016400952915587,20.516993480549996,5.364956479555924,no_tremor
250,8944821,1.849,0.13299632369086165,-0.1613261064296353,1.010161806489402,1.0414328210330108,20.020816000534886,5.986353016780481,no_tremor
251,8944825,1.853,0.13248340878926806,-0.15991995835997197,1.0034233194070976,0.42639792724630643,19.385122377500107,6.531122616709532,no_tremor
252,8944830,1.858,0.13156188776236205,-0.15853801708743948,0.9967674869959176,-0.14402413169846467,18.629392234583364,7.001064063810833,no_tremor
253,8944835,1.863,0.1302787598605742,-0.1571813303814085,0.9902298362552475,-0.6706221376180937,17.77232791600735,7.398346001302706,no_tremor
254,8944840,1.868,0.12868011616426153,-0.1558511444894058,0.9838429237466296,-1.1543968462681302,16.831781900759765,7.725472306552689,no_tremor
255,8944849,1.877,0.12681082742816566,-0.1545488983877374,0.9776362765467983,-1.5965423949594038,15.824695121797122,7.985246497396273,no_tremor
256,8944854,1.882,0.12471426098055814,-0.1532762135116042,0.9716363537731647,-1.9984266244523008,14.767045954448312,8.18073557077241,no_tremor
257,8944859,1.887,0.12243202791075422,-0.1520348791067187,0.9658665289932938,-2.3615705643499956,13.673809547165837,8.31523365721294,no_tremor
258,8944864,1.892,0.12000376140656963,-0.1508268334258758,0.9603470936032955,-2.6876273331586806,12.558927092909448,8.392225852483067,no_tremor
259,8944869,1.897,0.11746692673609051,-0.14965414106936986,0.9550952810180695,-2.978360703054853,11.43528458179237,8.415352561199093,no_tremor
260,8944874,1.902,0.11485666300553712,-0.1485189668402551,0.9501253112685575,-3.235623575552025,10.314700534743332,8.388374657333381,no_tremor
261,8944900,1.928,0.11220565646702022,-0.14742354655663453,0.9454484553570922,-3.4613366083594275,9.207922191363727,8.31513973414884,no_tremor
262,8944904,1.932,0.10954404479794427,-0.1463701553343369,0.9410731184897473,-3.6574672262652244,8.124629609114526,8.199549682382111,no_tremor
263,8944914,1.942,0.10689935143218679,-0.14536107392236847,0.9370049410905933,-3.8260092396246423,7.073447121229715,8.045529801516512,no_tremor
264,8944919,1.947,0.10429644870102983,-0.14439855373464366,0.93324691631177,-3.968963281802479,6.061961593628261,7.8569996154728985,no_tremor
265,8944929,1.957,0.10175754825144023,-0.1434847812672056,0.9297995225886841,-4.088318260492396,5.096746914416075,7.637845531091925,no_tremor
266,8944933,1.961,0.09930221696217799,-0.14262184261453392,0.9266608696533261,-4.1860339973701155,4.183394142929122,7.391895445257138,no_tremor
267,8944938,1.966,0.09694741638136624,-0.14181168879910333,0.9238268563112283,-4.264025207591643,3.3265467393032626,7.122895374920184,no_tremor
268,8944943,1.971,0.09470756356419588,-0.1410561026056741,0.9212913382086341,-4.32414694685166,2.529940291031603,6.8344881550547285,no_tremor
269,8944948,1.976,0.0925946110937852,-0.14035666756850468,0.9190463037651084,-4.3681816298155836,1.7964461504219438,6.530194224209461,no_tremor
270,8944953,1.981,0.09061814401685173,-0.1397147396997331,0.9170820564216873,-4.39782769974067,1.1281183967872201,6.213394496584941,no_tremor
271,8944962,1.99,0.08878549141294008,-0.13913142247505966,0.9153874013537938,-4.414690004948332,0.5262435402950253,5.8873153033606425,no_tremor
272,8944967,1.995,0.08710185033605232,-0.1386075455126308,0.9139498348193453,-4.42027191370997,-0.008607608456570246,5.555015373850955,no_tremor
273,8944972,2.0,0.08557041991614431,-0.13814364729568077,0.9127557343533655,-4.41596917522164,-0.4765264670694854,5.219374817993079,no_tremor
274,8944977,2.005,0.08419254348129497,-0.13773996220078435,0.9117905480786717,-4.4030655104733905,-0.8782121545902856,4.883086064249544,no_tremor
275,8944986,2.014,0.08296785665583463,-0.13739641200226732,0.9110389814756261,-4.382729892916888,-1.2149164320103731,4.548646700118946,no_tremor
276,8944992,2.02,0.08189443950152421,-0.13711260192959052,0.910485180040499,-4.35601545569436,-1.4883886017388788,4.218354155901853,no_tremor
277,8944996,2.024,0.08096897089382024,-0.13688782125845894,0.9101129063600271,-4.323859941129008,-1.700820818837992,3.894302166600764,no_tremor
278,8945021,2.049,0.08018688345873065,-0.13672104831846937,0.9099057102381927,-4.287087590023055,-1.8547942197464533,3.578378942020459,no_tremor
279,8945026,2.054,0.07954251753276662,-0.13661095970197665,0.9098470906297382,-4.246412353091068,-1.9532262206203308,3.2722669706153216,no_tremor
280,8945045,2.073,0.07902927274397127,-0.13655594336463134,0.9099206482638243,-4.20244229433108,-1.9993192815760792,2.977444377217224,no_tremor
281,8945050,2.078,0.07863975594204575,-0.13655411522468533,0.9101102279810148,-4.155685046293476,-1.9965113811897772,2.6951877479359156,no_tremor
282,8945055,2.083,0.07836592432948837,-0.13660333880369555,0.9104000499565165,-4.106554170300953,-1.9484284027225345,2.4265763281201647,no_tremor
283,8945060,2.088,0.07819922276685833,-0.13670124741144526,0.9107748291389087,-4.055376270966375,-1.8588386014484293,2.1724974926699963,no_tremor
284,8945064,2.092,0.0781307143492415,-0.13684526836390587,0.9112198823911603,-4.002398713835523,-1.7316092997509382,1.9336533825688331,no_tremor
285,8945069,2.097,0.07815120348166993,-0.13703264873166343,0.9117212229743619,-3.947797797235848,-1.570665940517347,1.710568596619012,no_tremor
286,8945074,2.102,0.07825135081933499,-0.13726048214182965,0.9122656421606316,-3.8916872337444626,-1.3799536169120397,1.5035988226616277,no_tremor
287,8945079,2.107,0.07842177958211229,-0.13752573619319905,0.9128407778978742,-3.8341268023061867,-1.1634011854046464,1.3129402885040455,no_tremor
288,8945083,2.111,0.07865317289901465,-0.13782528008729644,0.9134351705745015,-3.7751310382256644,-0.9248880572411293,1.1386399097851088,no_tremor
289,8945088,2.116,0.07893636198272891,-0.13815591212297668,0.9140383060467951,-3.714677834682577,-0.6682137504190521,0.9806060098289212,no_tremor
290,8945093,2.121,0.0792624050726751,-0.13851438674628314,0.9146406461963049,-3.6527168363414377,-0.39707026894131026,0.8386194849467328,no_tremor
291,8945098,2.126,0.07962265721185352,-0.13889744088813957,0.9152336473811958,-3.589177513827647,-0.11501735758082295,0.712345288271701,no_tremor
292,8945102,2.13,0.08000883103308067,-0.13930181935892622,0.915809767235836,-3.5239768181962465,0.17453934255107448,0.6013441070103842,no_tremor
293,8945108,2.136,0.0804130488200722,-0.1397242991007993,0.9163624603592228,-3.4570263273954116,0.4683672398013071,0.5050841120627583,no_tremor
294,8945112,2.14,0.08082788617582476,-0.1401617121262565,0.9168861635169387,-3.3882388114653357,0.7634228719039811,0.42295266450351027,no_tremor
295,8945117,2.145,0.08124640767419898,-0.1406109669959704,0.9173762710646659,-3.3175341583574554,1.0568651843430619,0.35426786991389064,no_tremor
296,8945122,2.15,0.08166219489151731,-0.14106906871162309,0.9178291013846992,-3.2448446165560894,1.3460661018941031,0.2982898793728893,no_tremor
297,8945146,2.174,0.08206936721611573,-0.14153313692167302,0.9182418552102645,-3.1701193237755008,1.6286185158300683,0.25423184550724703,no_tremor
298,8945151,2.179,0.08246259582011266,-0.14200042236066357,0.9186125667939491,-3.0933281031129707,1.9023418325983346,0.22127045286746874,no_tremor
299,8945156,2.184,0.08283711115721859,-0.1424683214661803,0.918940048951725,-3.0144645193370296,2.165285246492835,0.1985559528064345,no_tremor
300,8945161,2.189,0.0831887043338125,-0.14293438914131795,0.9192238330755308,-2.9335481984479737,2.415728906983182,0.1852216432237614,no_tremor
301,8945166,2.194,0.08351372269755195,-0.14339634965310885,0.9194641052462231,-2.8506264232395835,2.6521831505244666,0.18039274340920025,no_tremor
302,8945176,2.204,0.08380906000334268,-0.14385210567700768,0.9196616395862193,-2.7657750264062244,2.8733859584365007,0.18319462468662256,no_tremor
303,8945180,2.208,0.08407214154958684,-0.1442997455126494,0.9198177299620988,-2.6790986108548114,3.078298789472508,0.19276036884539283,no_tremor
304,8945185,2.213,0.08430090472359467,-0.14473754850570072,0.919934121084718,-2.590730134256403,3.26610092096569,0.20823763756653033,no_tremor
305,8945190,2.218,0.08449377544781816,-0.14516398871449765,0.9200129399693211,-2.5008299014735225,3.4361824188872654,0.2287948459937272,no_tremor
306,8945195,2.223,0.08464964107181275,-0.14557773685897082,0.9200566286236144,-2.4095840144846687,3.5881358470782576,0.2536266418855337,no_tremor
307,8945199,2.227,0.08476782030256308,-0.14597766058463457,0.9200678787359043,-2.317202335119301,3.7217468206116524,0.2819586991165449,no_tremor
308,8945205,2.233,0.08484803080280595,-0.14636282306831958,0.9200495690416602,-2.2239160214494715,3.836983508208689,0.3130518412912957,no_tremor
309,8945210,2.238,0.08489035510896899,-0.14673247998736835,0.9200047059572186,-2.1299747036712895,3.9339851936479477,0.34620551741823485,no_tremor
310,8945224,2.252,0.08489520552409416,-0.14708607487275221,0.9199363679856695,-2.03564336925805,4.013050014824566,0.3807606562128783,no_tremor
311,8945229,2.257,0.08486328862477521,-0.14742323287146714,0.9198476543237221,-1.9411990302913287,4.074622009049384,0.4161019291391912,no_tremor
312,8945268,2.296,0.08479556998503165,-0.14774375295664535,0.9197416380297347,-1.846927248697855,4.1192776012209205,0.45165945632134186,no_tremor
313,8945278,2.306,0.08469323966787419,-0.14804759864570066,0.9196213240497887,-1.7531185970454932,4.147711674989689,0.4869099949872612,no_tremor
314,8945287,2.315,0.08455767897448553,-0.14833488731528868,0.9194896123348081,-1.6600651317748611,4.160723365258988,0.5213776565100036,no_tremor
315,8945292,2.32,0.08439042887988611,-0.14860587823174673,0.9193492662091247,-1.568056950842321,4.159201705266963,0.5546342034431692,no_tremor
316,8945297,2.325,0.0841931605270854,-0.14886095944143243,0.9192028860638373,-1.4773788988331757,4.144111256265356,0.5862989800865159,no_tremor
317,8945302,2.33,0.0839676480965538,-0.149100633684281,0.9190528883481079,-1.3883074710340668,4.1164778446920245,0.6160385279024637,no_tremor
318,8945307,2.335,0.08371574430769553,-0.14932550350675478,0.9189014897260888,-1.3011079555443703,4.07737453092048,0.6435659309833739,no_tremor
319,8945312,2.34,0.08343935873818545,-0.1495362557597185,0.9187506961663099,-1.2160318409243192,4.027907933574977,0.6686399285485389,no_tremor
320,8945316,2.344,0.08314043906382527,-0.14973364567508485,0.9186022966418879,-1.1333145073279167,3.9692050316737655,0.691063823100709,no_tremor
321,8945321,2.349,0.08282095522804547,-0.1499184807239648,0.9184578610485934,-1.0531732120860757,3.9024005615700275,0.7106842055905926,no_tremor
322,8945326,2.354,0.08248288645090784,-0.15009160446928452,0.918318741895968,-0.9758053759685578,3.8286251160580043,0.7273895131095485,no_tremor
323,8945331,2.359,0.08212821088839684,-0.1502538806373084,0.9181860792947887,-0.9013871728173517,3.7489940396132204,0.7411084300390967,no_tremor
324,8945341,2.369,0.08175889766038348,-0.1504061776442522,0.9180608087511981,-0.8300724217959772,3.664597197652504,0.7518081397113504,no_tremor
325,8945345,2.373,0.0813769008864224,-0.15054935382416065,0.9179436712812604,-0.7619917776618542,3.5764896798423798,0.7594924302703456,no_tremor
326,8945350,2.378,0.08098415530892074,-0.15068424360934346,0.917835225375786,-0.6972522104827261,3.485683478499507,0.7641996558488455,no_tremor
327,8945355,2.383,0.08058257304895994,-0.15081164491121174,0.9177358603691621,-0.6359367625632436,3.3931401640523693,0.7660005525652576,no_tremor
328,8945360,2.388,0.08017404103467182,-0.15093230793423731,0.917645810792719,-0.5781045673527586,3.2997645622178973,0.7649959079855748,no_tremor
329,8945365,2.393,0.07976041866534606,-0.1510469256275894,0.9175651713189213,-0.5237911128666176,3.2063994241845646,0.7613140824048774,no_tremor
330,8945389,2.417,0.07934353532261389,-0.15115612593839892,0.917493911925383,-0.47300873057359,3.113821073030634,0.7551083807669443,no_tremor
331,8945394,2.422,0.07892518740724033,-0.15126046597999096,0.9174318929279208,-0.4257472897212603,3.0227360062892803,0.7465542756652302,no_tremor
332,8945399,2.427,0.07850713465918735,-0.1513604281720414,0.91737887955363,-0.38197507695157606,2.9337784337310717,0.7358464850607334,no_tremor
333,8945404,2.432,0.07809109560191221,-0.15145641835312948,0.9173345557553941,-0.34163984210671355,2.8475087284321163,0.7231959134571091,no_tremor
334,8945414,2.442,0.0776787420322907,-0.1515487658149729,0.9172985370154337,-0.30466999307896536,2.764412766344043,0.70882647243188,no_tremor
335,8945419,2.447,0.07727169255055594,-0.15163772516474175,0.9172703819503893,-0.2709759246903382,2.6849021246336804,0.6929718051295234,no_tremor
336,8945429,2.457,0.07687150518841532,-0.15172347988728968,0.9172496026112356,-0.24045146838239878,2.6093151028281643,0.675871948107516,no_tremor
337,8945433,2.461,0.07647966924766522,-0.15180614745109966,0.9172356734608264,-0.21297545072908225,2.5379185241690623,0.6577699709135592,no_tremor
338,8945438,2.466,0.07609759650606356,-0.15188578577789114,0.9172280391006263,-0.18841334901897686,2.4709102677278225,0.6389086378978686,no_tremor
339,8945443,2.471,0.07572661198200134,-0.15196240087409102,0.9172261208963732,-0.16661903086140242,2.408422474430902,0.6195271383761919,no_tremor
340,8945448,2.476,0.07536794447514547,-0.15203595540136172,0.917229322711813,-0.14743656222853177,2.350525362120945,0.5998579315348571,no_tremor
341,8945458,2.486,0.07502271711775253,-0.15210637794271611,0.91723703599512,-0.130702065815689,2.2972315766423694,0.580123752528693,no_tremor
342,8945462,2.49,0.07469193818215229,-0.15217357270114934,0.9172486444723935,-0.11624561007964955,2.2485009982724686,0.5605348266151061,no_tremor
343,8945467,2.495,0.07437649239538435,-0.15223742935107362,0.917263528687586,-0.10389310854104886,2.2042459158649517,0.5412863385954487,no_tremor
344,8945472,2.5,0.0740771330133516,-0.1522978327520367,0.917281070591361,-0.09346820814608069,2.1643364749891556,0.5225562042530464,no_tremor
345,8945477,2.505,0.07379447490492677,-0.15235467223234733,0.9173006583276829,-0.0847941446203243,2.1286063017669394,0.504503187722469,no_tremor
346,8945481,2.509,0.0735289888914202,-0.15240785015964445,0.9173216913029633,-0.07769554240577284,2.0968582022162527,0.487265403104537,no_tremor
347,8945486,2.514,0.07328099757820265,-0.15245728953719156,0.9173435855554873,-0.07200013728174366,2.068869838774344,0.47095923014572844,no_tremor
348,8945511,2.539,0.07305067290185067,-0.15250294039874782,0.9173657793791907,-0.06754040087764687,2.0443992915516054,0.4556786631250951,no_tremor
349,8945516,2.544,0.07283803559584612,-0.15254478482041878,0.9173877391010815,-0.06415504766962433,2.0231904213249106,0.44149510031721234,no_tremor
350,8945520,2.548,0.07264295674748332,-0.15258284042315548,0.9174089648699577,-0.0616904067984143,2.004977963621385,0.42845756940753865,no_tremor
351,8945525,2.553,0.07246516157478411,-0.15261716230165046,0.9174289962882991,-0.06000164339667298,1.9894922973019673,0.4165933726005883,no_tremor
352,8945530,2.558,0.07230423549333538,-0.15264784338042992,0.9174474177096618,-0.05895381687452726,1.976463844837259,0.40590912445005767,no_tremor
353,8945535,2.563,0.07215963247131676,-0.15267501326181537,0.9174638630279549,-0.05842276603513994,1.9656270727796823,0.3963921461909827,no_tremor
354,8945544,2.572,0.07203068559224159,-0.15269883568937354,0.9174780197980116,-0.05829581223895089,1.9567240687109868,0.3880121729121191,no_tremor
355,8945549,2.577,0.07191661966596885,-0.15271950480139193,0.9174896325441461,-0.05847227203459024,1.949507675937732,0.3807233245461377,no_tremor
356,8945554,2.582,0.0718165656557736,-0.15273724038924957,0.9174985051313468,-0.058863770504618995,1.9437441712438066,0.3744662885162183,no_tremor
357,8945564,2.592,0.07172957662794452,-0.15275228240328678,0.9175045020903965,-0.05939434719544973,1.9392154754379414,0.36917066053600583,no_tremor
358,8945569,2.597,0.07165464488393797,-0.1527648849629007,0.9175075488032053,-0.06000034869015456,1.935720891299628,0.3647573894154598,no_tremor
359,8945573,2.601,0.071590719904423,-0.1527753101286025,0.9175076304693095,-0.060630105689609956,1.9330783682314367,0.3611412705904157,no_tremor
