sample,t_ms,t_s,ax,ay,az,gx,gy,gz,tremor
0,8990166,0.0,-0.16842014493319504,-0.12819410013682805,-1.0317646252926833,1.543019288220573,-0.04862731895907348,0.4540478674744,no_tremor
1,8990176,0.01,-0.1683841417872931,-0.12807805483961107,-1.0317511525236813,1.5282474161564807,0.033843477067089144,0.42717166961777037,no_tremor
2,8990181,0.015,-0.1683369337617075,-0.1279194842068762,-1.0317310079930264,1.513626971440695,0.11482706357632612,0.4001991151571904,no_tremor
3,8990191,0.025,-0.1682790511453382,-0.12771593069560533,-1.0317028237956118,1.4992174355230585,0.19393431781922837,0.3732750552160311,no_tremor
4,8990196,0.03,-0.16821344102298763,-0.12747300074220205,-1.0316662768688287,1.4850722685402808,0.27078886994611395,0.3465417401589943,no_tremor
5,8990200,0.034,-0.1681439701719275,-0.12720032573913842,-1.0316218258274095,1.4712380334127004,0.34503090538956915,0.3201371019397828,no_tremor
6,8990205,0.039,-0.16807427058027807,-0.1269079738949844,-1.0315703187668948,1.4577536616385498,0.41632071663441905,0.2941931375294583,no_tremor
7,8990230,0.064,-0.16800723536472445,-0.12660461720140306,-1.031512714234887,1.4446498838744566,0.484341941009747,0.2688344215590344,no_tremor
8,8990235,0.069,-0.16794494796416723,-0.12629702440006071,-1.0314499405153716,1.4319488428058762,0.5488044382685485,0.24417677119632342,no_tremor
9,8990239,0.073,-0.16788880063287281,-0.12599021479383518,-1.031382848180021,1.4196638988256909,0.6094467817489393,0.2203260811548646,no_tremor
10,8990249,0.083,-0.1678396562782192,-0.12568782567801187,-1.0313122092082085,1.4077996318253208,0.6660383548909443,0.1973773410257819,no_tremor
11,8990254,0.088,-0.1677979919901615,-0.12539247996491132,-1.0312387331367256,1.3963520360462987,0.7183810571599741,0.175413840826195,no_tremor
12,8990259,0.093,-0.16776400823513188,-0.1251060813790998,-1.0311630856965137,1.3853088999266217,0.7663106296071798,0.1545065642961739,no_tremor
13,8990264,0.098,-0.16773770623347423,-0.12483002879529437,-1.0310859042693667,1.3746503587876873,0.8096976124966206,0.13471376387953846,no_tremor
14,8990268,0.102,-0.16771894114642483,-0.12456536356263155,-1.0310078087744232,1.3643496042546406,0.8484479482841711,0.11608070724016684,no_tremor
15,8990273,0.107,-0.16770745853289853,-0.1243128675843066,-1.0309294083085585,1.354373730204622,0.882503244623185,0.09863958272332521,no_tremor
16,8990283,0.117,-0.16770291987467317,-0.12407312743602246,-1.030851304371065,1.3446846912181802,0.9118407147294408,0.08240954989497856,no_tremor
17,8990288,0.122,-0.16770492124817157,-0.12384657595890604,-1.0307740915193797,1.3352403465896727,0.9364728157925292,0.06739692077518875,no_tremor
18,8990293,0.127,-0.1677130078554825,-0.12363351932115785,-1.0306983561618612,1.3259955613365402,0.956446608435912,0.05359545765025985,no_tremor
19,8990302,0.136,-0.1677266861500684,-0.12343415492543963,-1.0306246740321645,1.3169033355530788,0.9718428595709631,0.040986774503412766,no_tremor
20,8990307,0.141,-0.1677454346271737,-0.12324858368985149,-1.030553606754105,1.307915934943003,0.9827749068547621,0.0295408309078244,no_tremor
21,8990312,0.146,-0.16776871390687922,-0.12307681897354045,-1.0304856978051107,1.2989859981393412,0.9893872970579064,0.01921650914037691,no_tremor
22,8990317,0.151,-0.16779597644752003,-0.12291879358233311,-1.030421468115969,1.2900675999104771,0.9918542057313552,0.009962266809565178,no_tremor
23,8990322,0.156,-0.16782667603774154,-0.12277436574161409,-1.0303614114965869,1.2811172531478325,0.990377643432342,0.0017168582856930345,no_tremor
24,8990326,0.16,-0.1678602770925103,-0.1226433245675399,-1.0303059900444416,1.2720948363552909,0.9851854545630981,-0.005589881152163772,no_tremor
25,8990350,0.184,-0.16789626369967278,-0.12252539533839603,-1.0302556296684418,1.2629644366373183,0.9765291178010628,-0.012036193961230951,no_tremor
26,8990360,0.194,-0.16793414831502773,-0.12242024472206278,-1.0302107158418454,1.2536951003082855,0.9646813610750249,-0.017707506546487655,no_tremor
27,8990365,0.199,-0.1679734799762979,-0.12232748602481187,-1.030171589680763,1.2442614844190394,0.9499336076796974,-0.022695487040096923,no_tremor
28,8990370,0.204,-0.16801385189369727,-0.12224668447276758,-1.0301385444279625,1.2346444036949693,0.932593272144767,-0.02709705824353016,no_tremor
29,8990379,0.213,-0.16805490827239894,-0.12217736250846291,-1.0301118224048473,1.2248312693130714,0.912980924919601,-0.031013369666757662,no_tremor
30,8990384,0.218,-0.16809635022677263,-0.12211900507279193,-1.0300916124783954,1.2148164184212464,0.891427345610999,-0.03454873378427494,no_tremor
31,8990389,0.223,-0.16813794065599613,-0.12207106484113266,-1.0300780480758287,1.2046013356433694,0.8682704877009816,-0.03780953348803227,no_tremor
32,8990394,0.228,-0.16817950796550538,-0.12203296738664213,-1.0300712057688275,1.1941947694363695,0.8438523842866708,-0.04090310990259292,no_tremor
33,8990403,0.237,-0.16822094853983424,-0.12200411624998218,-1.0300711044414963,1.183612746742407,0.8185160332544527,-0.04393664169410867,no_tremor
34,8990408,0.242,-0.1682622279008818,-0.1219838979004076,-1.030077705051502,1.1728784889737787,0.7926023088365475,-0.047016028213871734,no_tremor
35,8990418,0.252,-0.16830338052164687,-0.12197168657665824,-1.0300909109907193,1.1620222315244615,0.7664469519505513,-0.05024478921671991,no_tremor
36,8990423,0.257,-0.16834450830730208,-0.12196684899672716,-1.0301105690489354,1.1510809483772486,0.7403776921951036,-0.05372299389752934,no_tremor
37,8990428,0.262,-0.1683857777994428,-0.12196874892331296,-1.0301364709803411,1.1400979833563853,0.7147115492231519,-0.05754623178922869,no_tremor
38,8990437,0.271,-0.1684274162002955,-0.12197675156717765,-1.030168355666645,1.1291225903624609,0.6897523510367103,-0.06180463745732317,no_tremor
39,8990442,0.276,-0.16846970634626302,-0.12199022780468184,-1.0302059118621574,1.1182093866298621,0.6657884934103563,-0.0665819800413278,no_tremor
40,8990447,0.281,-0.16851298078021026,-0.12200855817956952,-1.0302487814952175,1.1074177254544872,0.6430909513682966,-0.07195482828956438,no_tremor
41,8990472,0.306,-0.16855761507721428,-0.12203113665368602,-1.030296563487551,1.0968109972766025,0.6219115441546718,-0.07799180230481773,no_tremor
42,8990477,0.311,-0.16860402056993926,-0.122057374067625,-1.0303488180395435,1.0864558696786772,0.6024814516469027,-0.08475292417228812,no_tremor
43,8990482,0.316,-0.16865263660196245,-0.12208670127102186,-1.0304050713163242,1.0764214774026692,0.5850099819280887,-0.09228907949688041,no_tremor
44,8990487,0.321,-0.1687039224178857,-0.12211857188388209,-1.030464820458343,1.0667785731827248,0.5696835939261763,-0.10064159922082751,no_tremor
45,8990491,0.325,-0.16875834878522625,-0.12215246465516436,-1.0305275388320134,1.057598649726998,0.5566651824347151,-0.10984196587382507,no_tremor
46,8990496,0.33,-0.16881638943829919,-0.12218788539250201,-1.0305926814314588,1.0489530431987917,0.546093632918978,-0.11991164247249812,no_tremor
47,8990501,0.335,-0.16887851243738206,-0.12222436844661072,-1.030659690341276,1.0409120291149816,0.5380836491370045,-0.1308620180434969,no_tremor
48,8990506,0.34,-0.16894517154355995,-0.12226147774457571,-1.0307280001719834,1.0335439221768619,0.5327258484298355,-0.14269446222373378,no_tremor
49,8990511,0.345,-0.16901679771652886,-0.12229880737690846,-1.0307970433839337,1.026914191620706,0.5300871094086663,-0.15540048182444827,no_tremor
50,8990516,0.35,-0.1690937908456711,-0.12233598175328225,-1.0308662554214867,1.0210846030811365,0.5302111465175566,-0.16896197308943633,no_tremor
51,8990521,0.355,-0.16917651182142324,-0.1223726553507315,-1.0309350795867538,1.0161123968122099,0.5331192769954088,-0.18335156337193953,no_tremor
52,8990535,0.369,-0.16926527504333064,-0.12240851208560315,-1.031002971590818,1.0120495105840162,0.5388113394918226,-0.19853303463903116,no_tremor
53,8990540,0.374,-0.16936034144407297,-0.12244326434665043,-1.031069403729661,1.0089418540277122,0.5472667212395953,-0.21446181903058015,no_tremor
54,8990544,0.378,-0.16946191208798825,-0.12247665173143565,-1.0311338686418747,1.006828640103716,0.5584454526079332,-0.2310855547272965,no_tremor
55,8990549,0.383,-0.16957012238258104,-0.12250843953180315,-1.031195882615492,1.0057417789444834,0.5722893333159218,-0.24834468960076014,no_tremor
56,8990554,0.388,-0.16968503692668505,-0.12253841701677956,-1.0312549884218942,1.0057053395145723,0.588723062194394,-0.2661731205885372,no_tremor
57,8990559,0.393,-0.16980664501242174,-0.12256639556309007,-1.0313107576656668,1.006735085098973,0.6076553506725672,-0.2844988574809139,no_tremor
58,8990564,0.398,-0.16993485680072531,-0.12259220668480436,-1.0313627926503632,1.0088380890154605,0.628980007940262,-0.3032446997608572,no_tremor
59,8990594,0.428,-0.17006950020094783,-0.12261570001471146,-1.0314107277712319,1.0120124363041991,0.6525769920907974,-0.3223289143688826,no_tremor
60,8990598,0.432,-0.17021031850116283,-0.12263674129103895,-1.0314542304567875,1.0162470151389411,0.6783134255858574,-0.3416659020170898,no_tremor
61,8990603,0.437,-0.1703569688125821,-0.12265521040396106,-1.0314930016910897,1.0215213992893828,0.7060445743867031,-0.3611668410440945,no_tremor
62,8990608,0.442,-0.170509021402988,-0.12267099955645679,-1.0315267761569384,1.027805821849241,0.7356147884058379,-0.3807403005713488,no_tremor
63,8990613,0.447,-0.17066595999538878,-0.12268401159272223,-1.0315553220462435,1.0350612413642457,0.76685839841182,-0.4002928178496775,no_tremor
64,8990618,0.452,-0.1708271830980641,-0.12269415854391007,-1.0315784405874437,1.0432395032799104,0.7996005636090957,-0.4197294375890991,no_tremor
65,8990622,0.456,-0.17099200641345666,-0.12270136043526586,-1.0315959653414435,1.0522836002507117,0.8336580662579489,-0.4389542138920431,no_tremor
66,8990627,0.461,-0.17115966635041252,-0.12270554439091033,-1.0316077613176056,1.0621280332631644,0.8688400547845724,-0.4578706782641919,no_tremor
67,8990632,0.466,-0.17132932464123757,-0.1227066440629494,-1.0316137239603158,1.0726992723120197,0.9049487437982664,-0.47638227977907777,no_tremor
68,8990637,0.471,-0.17150007404499604,-0.1227045994007694,-1.0316137780546788,1.0839163117419648,0.9417800867975413,-0.4943928055707745,no_tremor
69,8990642,0.476,-0.1716709451032418,-0.12269935676487065,-1.03160787659711,1.0956913119768699,0.9791244433494981,-0.5118067913431118,no_tremor
70,8990652,0.486,-0.17184091390448966,-0.12269086937803655,-1.0315959996730064,1.107930316379536,1.0167672656351532,-0.5285299322925202,no_tremor
71,8990656,0.49,-0.1720089108084803,-0.12267909809565197,-1.0315781533793764,1.1205340298869395,1.0544898289043003,-0.5444695043663209,no_tremor
72,8990666,0.5,-0.1721738300786815,-0.12266401246710298,-1.0315543688254891,1.1333986456180354,1.0920700271684634,-0.5595348040040099,no_tremor
73,8990671,0.505,-0.17233454036852378,-0.12264559205174297,-1.0315247012396198,1.1464167071406797,1.1292832505233754,-0.5736376119035838,no_tremor
74,8990676,0.51,-0.1724898960002752,-0.12262382794597877,-1.031489229205192,1.1594779968600346,1.1659033546577404,-0.5866926837037792,no_tremor
75,8990686,0.52,-0.17263874896252582,-0.12259872447252829,-1.031448054045379,1.172470443897452,1.2017037267006725,-0.5986182681755903,no_tremor
76,8990690,0.524,-0.1727799615317321,-0.12257030097876019,-1.031401299371653,1.185281047064659,1.2364584452009038,-0.6093366513896037,no_tremor
77,8990715,0.549,-0.17291241939587804,-0.12253859368842435,-1.0313491108087265,1.1977968100390077,1.2699435270899708,-0.618774723215031,no_tremor
78,8990724,0.558,-0.17303504512690673,-0.12250365755050885,-1.0312916559053014,1.209905686847157,1.3019382522674494,-0.6268645605899605,no_tremor
79,8990729,0.563,-0.17314681181810762,-0.12246556803103545,-1.0312291242360467,1.2214975361709526,1.332226556896399,-0.6335440203442975,no_tremor
80,8990734,0.568,-0.17324675667912987,-0.12242442279863773,-1.031161727693863,1.2324650823474999,1.3605984876606696,-0.6387573326993673,no_tremor
81,8990739,0.573,-0.17333399436941943,-0.12238034326234497,-1.0310897009616349,1.2427048790096098,1.38685170819412,-0.6424556847460722,no_tremor
82,8990744,0.578,-0.17340772985161665,-0.12233347592897743,-1.0310133021391557,1.2521182686115626,1.410793043849509,-0.6445977814587694,no_tremor
83,8990748,0.582,-0.17346727055700623,-0.1222839935565289,-1.030932813484717,1.2606123288007764,1.4322400428996098,-0.6451503706162792,no_tremor
84,8990753,0.587,-0.17351203767104506,-0.12223209608767059,-1.0308485422137417,1.2681007958519894,1.4510225243711263,-0.6440887177579763,no_tremor
85,8990758,0.592,-0.1735415763643245,-0.12217801135325236,-1.0307608212806139,1.2745049562632964,1.4669840779275154,-0.641397018114478,no_tremor
86,8990763,0.597,-0.17355556481044881,-0.1221219955389475,-1.0306700100562989,1.2797544989492078,1.4799834800917155,-0.6370687342072,no_tremor
87,8990768,0.602,-0.1735538218461393,-0.12206433340882203,-1.0305764948049165,1.2837883208038774,1.4898959927972397,-0.6311068503071665,no_tremor
88,8990778,0.612,-0.173536313140774,-0.12200533827772339,-1.030480688858378,1.2865552772613236,1.496614515057609,-0.6235240379849213,no_tremor
89,8990783,0.617,-0.17350315575423483,-0.12194535172037384,-1.0303830323902021,1.2880148674904195,1.5000505677858498,-0.6143427303879947,no_tremor
90,8990788,0.622,-0.173454620976019,-0.12188474299961528,-1.0302839916977469,1.2881378419968468,1.5001351052603227,-0.6035951064237383,no_tremor
91,8990793,0.627,-0.17339113535799874,-0.12182390819037092,-1.0301840579156727,1.2869067193148362,1.4968191613126958,-0.5913229894292491,no_tremor
92,8990797,0.631,-0.17331327988010353,-0.12176326897073657,-1.0300837451013227,1.284316198369582,1.4900743498770237,-0.5775776678870338,no_tremor
93,8990802,0.636,-0.1732217872229093,-0.12170327104831555,-1.0299835876533685,1.2803734538533422,1.479893245886859,-0.5624196478382424,no_tremor
94,8990807,0.641,-0.1731175371618956,-0.12164438218938083,-1.0298841370469392,1.275098303470767,1.466289673690818,-0.5459183471477979,no_tremor
95,8990812,0.646,-0.1730015501413045,-0.12158708982134762,-1.0297859578901667,1.2685232383393399,1.4492989261589053,-0.5281517402440955,no_tremor
96,8990837,0.671,-0.17287497912607946,-0.12153189818576984,-1.0296896233276203,1.2606933113055212,1.4289779277065284,-0.5092059588591659,no_tremor
97,8990842,0.676,-0.17273909986278463,-0.1214793250296611,-1.0295957098350936,1.251665882044619,1.4054053395707786,-0.48917485086136,no_tremor
98,8990847,0.681,-0.1725952996999733,-0.12142989783684398,-1.0295047914680033,1.2415102216633864,1.3786815906960699,-0.4681594967228606,no_tremor
99,8990856,0.69,-0.17244506512287422,-0.12138414961709411,-1.0294174336431348,1.2303069822050172,1.3489288094431122,-0.4462676821704517,no_tremor
100,8990861,0.695,-0.1722899681483076,-0.12134261428756413,-1.0293341865513712,1.2181475374934658,1.316290634174877,-0.42361332611824687,no_tremor
101,8990866,0.7,-0.17213165170979272,-0.12130582169689792,-1.0292555783171466,1.2051332015562317,1.2809318926412954,-0.40031586442981654,no_tremor
102,8990871,0.705,-0.17197181414864063,-0.12127429235641826,-1.0291821080372991,1.1913743306891034,1.2430381544316165,-0.3764995913570539,no_tremor
103,8990876,0.71,-0.17181219292190547,-0.1212485319539566,-1.029114238845824,1.1769893162791785,1.202815171068581,-0.35229296073038957,no_tremor
104,8990881,0.715,-0.17165454764579102,-0.12122902573376965,-1.0290523911599208,1.162103478009097,1.1604882214651335,-0.32782784801619824,no_tremor
105,8990886,0.72,-0.1715006426123599,-0.12121623283031659,-1.0289969362653675,1.146847870362657,1.1163013767566,-0.30323877312615627,no_tremor
106,8990895,0.729,-0.17135222894376811,-0.12121058064448616,-1.0289481903950362,1.1313580186539898,1.0705166897517928,-0.2786620834960966,no_tremor
107,8990905,0.739,-0.17121102657563528,-0.1212124593484819,-1.0289064094432498,1.115772603626172,1.0234133023868122,-0.25423509771860175,no_tremor
108,8990910,0.744,-0.17107870628311467,-0.12122221660063061,-1.0288717844414301,1.1002321157410957,0.9752864519787725,-0.23009521130042762,no_tremor
109,8990915,0.749,-0.1709568719743251,-0.12124015254478615,-1.0288444378983046,1.084877501450057,0.9264463469890728,-0.20637896734989772,no_tremor
110,8990920,0.754,-0.17084704347327495,-0.12126651516179707,-1.0288244210825923,1.0698488240189614,0.8772168786836294,-0.1832210961908341,no_tremor
111,8990925,0.759,-0.17075063999939485,-0.12130149603359376,-1.0288117122996465,1.055283961055904,0.8279341379068477,-0.16075352938222678,no_tremor
112,8990930,0.764,-0.17066896452806662,-0.12134522657440057,-1.0288062161881406,1.0413173597408136,0.7789447146676594,-0.13910439561158344,no_tremor
113,8990934,0.768,-0.17060318919249853,-0.12139777477856355,-1.0288077640403683,1.0280788685318563,0.7306037692848706,-0.11839700830707893,no_tremor
114,8990958,0.792,-0.17055434186769727,-0.12145914253034355,-1.0288161151312392,1.0156926606404122,0.6832728750056918,-0.0987488572234119,no_tremor
115,8990963,0.797,-0.17052329406562303,-0.12152926351729719,-1.028830959027023,1.0042762604026143,0.6373176422069823,-0.08027061845476442,no_tremor
116,8990968,0.802,-0.1705107502672552,-0.12160800178481512,-1.028851918834981,0.9939396797388605,0.5931051429562134,-0.06306519935201235,no_tremor
117,8990973,0.807,-0.1705172388193343,-0.12169515096409582,-1.0288785553482493,0.9847846684483748,0.5510011613142038,-0.04722683665336137,no_tremor
118,8990978,0.812,-0.17054310452605978,-0.12179043419855111,-1.0289103720353705,0.9769040787126108,0.5113672992123457,-0.03284026736000944,no_tremor
119,8990983,0.817,-0.17058850306432533,-0.12189350478412886,-1.028946820819264,0.9703813406212091,0.4745579706507186,-0.019979991927921305,no_tremor
120,8990988,0.822,-0.17065339734237409,-0.12200394752762943,-1.0289873085851169,0.9652900421448845,0.44091731913995685,-0.00870964801387333,no_tremor
121,8990993,0.827,-0.1707375559053067,-0.12212128081444497,-1.0290312043499015,0.9616936044371198,0.41077609492615863,0.0009184893846178398,no_tremor
122,8990998,0.832,-0.17084055346729043,-0.12224495936405945,-1.0290778470176587,0.9596450420412131,0.38444852898781934,0.008863868555895714,no_tremor
123,8991003,0.837,-0.17096177362099418,-0.1223743776389916,-1.029126553634358,0.9591867971185112,0.36222923946442004,0.015097872911890697,no_tremor
124,8991007,0.841,-0.1711004137415592,-0.12250887386160918,-1.0291766280444468,0.9603506363229444,0.3443902031926521,0.019603877966889213,no_tremor
125,8991012,0.846,-0.17125549206731233,-0.1226477345843015,-1.0292273698388925,0.9631575981822472,0.3311778209432589,0.022377151131317434,no_tremor
126,8991017,0.851,-0.17142585690425022,-0.12279019975252944,-1.029278083472558,0.9676179786593454,0.32281009999566285,0.023424596008152904,no_tremor
127,8991022,0.856,-0.17161019786740628,-0.1229354681975717,-1.0293280874182407,0.9737313439054859,0.3194739718206894,0.02276434708743566,no_tremor
128,8991027,0.861,-0.17180705904031407,-0.1230827034963179,-1.0293767232166788,0.9814865619848618,0.32132275640913666,0.0204252250378574,no_tremor
129,8991032,0.866,-0.17201485390418517,-0.12323104013892643,-1.0294233642772137,0.9908618486327109,0.32847377966097335,0.01644606698916367,no_tremor
130,8991037,0.871,-0.17223188186113011,-0.12337958995104359,-1.02946742428343,1.0018248252741755,0.341006147742972,0.010874949935421178,no_tremor
131,8991042,0.876,-0.17245634615073266,-0.12352744872478237,-1.029508365062506,1.014332590598754,0.3589586827664314,0.003768328289760656,no_tremor
132,8991046,0.88,-0.17268637293667777,-0.12367370302073875,-1.0295457037864149,1.028331809884687,0.38232802665010474,-0.004809891754183108,no_tremor
133,8991051,0.885,-0.17292003132034847,-0.12381743711077296,-1.0295790193872554,1.043758828382427,0.4110669235951303,-0.014789318530084606,no_tremor
134,8991056,0.89,-0.1731553540220208,-0.12395774003688383,-1.0296079580870667,1.060539815855259,0.4450826959046293,-0.026094061211846993,no_tremor
135,8991081,0.915,-0.17339035845839024,-0.12409371276413979,-1.0296322379634537,1.0785909490154648,0.48423593318827596,-0.03864371809177109,no_tremor
136,8991086,0.92,-0.17362306793887264,-0.12422447540432156,-1.0296516524948087,1.0978186377518535,0.5283394212740222,-0.052354350954979964,no_tremor
137,8991091,0.925,-0.17385153270413972,-0.12434917448091101,-1.0296660730511022,1.1181198003950243,0.5771573433632371,-0.06713943118446711,no_tremor
138,8991095,0.929,-0.17407385054046048,-0.12446699019503686,-1.029675450316094,1.1393821933295014,0.6304047902776526,-0.082910745050182,no_tremor
139,8991100,0.934,-0.17428818672325208,-0.12457714363656502,-1.0296798146428698,1.1614848011825942,0.6877476177176423,-0.0995792486894394,no_tremor
140,8991105,0.939,-0.1744927930712048,-0.12467890386638106,-1.029679275356598,1.184298295118437,0.7488026865191314,-0.11705586727119027,no_tremor
141,8991110,0.944,-0.17468602592504323,-0.12477159477746456,-1.0296740190273794,1.2076855675785172,0.8131385183263399,-0.1352522365254117,no_tremor
142,8991115,0.949,-0.17486636289868057,-0.12485460162610179,-1.0296643067436677,1.2315023514443355,0.8802763950538676,-0.15408138720309558,no_tremor
143,8991120,0.954,-0.17503241828225818,-0.12492737711268209,-1.0296504704244451,1.255597929739243,0.9496919264609165,-0.1734583739952248,no_tremor
144,8991124,0.958,-0.17518295700449635,-0.12498944688566224,-1.02963290821716,1.2798159386053163,1.0208171063182994,-0.19330085062392954,no_tremor
145,8991129,0.963,-0.1753169070851176,-0.12504041434362223,-1.0296120790387904,1.3039952617155774,1.0930428741036784,-0.21352959301276267,no_tremor
146,8991139,0.973,-0.17543337052691818,-0.1250799646193689,-1.0295884963290847,1.327971009301614,1.1657221955138792,-0.23406897290658363,no_tremor
147,8991148,0.982,-0.17553163261206484,-0.1251078676464165,-1.0295627210972864,1.3515755705643187,1.2381736705841488,-0.25484738469319795,no_tremor
148,8991153,0.987,-0.17561116957932676,-0.1251239802307028,-1.0295353543552115,1.3746397250802265,1.3096856723955528,-0.2757976281018952,no_tremor
149,8991158,0.992,-0.1756716546689322,-0.1251282470772427,-1.029507029038692,1.3969937971122304,1.3795210123295147,-0.2968572489552849,no_tremor
150,8991163,0.997,-0.17571296252971924,-0.12512070075037002,-1.0294784015244531,1.4184688363255087,1.446922119999148,-0.31796883951505,no_tremor
151,8991168,1.002,-0.17573517198882638,-0.12510146057505664,-1.029450142849283,1.4388978091627551,1.5111167178964642,-0.33908029943558793,no_tremor
152,8991173,1.007,-0.17573856718669006,-0.12507073051366896,-1.0294229297328623,1.4581167871095253,1.5713239631505955,-0.36014505809179215,no_tremor
153,8991178,1.012,-0.1757236370791241,-0.12502879607614983,-1.029397435495765,1.475966121189569,1.6267610224050908,-0.3811222591041489,no_tremor
154,8991217,1.051,-0.17569107330390457,-0.12497602034131097,-1.0293743209516737,1.492291595690572,1.6766500413389114,-0.40197690787519297,no_tremor
155,8991222,1.056,-0.1756417664029328,-0.12491283918240145,-1.0293542253400272,1.5069455575114132,1.7202254678411282,-0.4226799821839297,no_tremor
156,8991227,1.061,-0.17557680038585705,-0.12483975580129952,-1.0293377573549034,1.51978801998302,1.7567416864814624,-0.44320850403782586,no_tremor
157,8991231,1.065,-0.17549744562150243,-0.12475733468258397,-1.0293254863208259,1.5306877411713982,1.7854809202674942,-0.46354556863646285,no_tremor
158,8991236,1.07,-0.17540515005315221,-0.12466619508161372,-1.0293179335678442,1.5395232765424658,1.8057613525745493,-0.48368032452328746,no_tremor
159,8991241,1.075,-0.17530152875284627,-0.12456700416009432,-1.0293155640658949,1.5461840049062332,1.816945417280525,-0.5036078984592428,no_tremor
160,8991246,1.08,-0.17518835185527257,-0.12446046987910693,-1.0293187783893278,1.5505711252276038,1.8184481989537795,-0.5233292592034545,no_tremor
161,8991251,1.085,-0.1750675309390471,-0.12434733375386428,-1.0293279050935404,1.5525986202146647,1.8097458781931963,-0.5428510159052097,no_tremor
162,8991256,1.09,-0.17494110394829668,-0.12422836356708827,-1.029343193594687,1.5521941804052193,1.7903841508913865,-0.5621851489597867,no_tremor
163,8991261,1.095,-0.1748112187679,-0.12410434612937565,-1.0293648076493627,1.549300080041972,1.7599865453309333,-0.5813486737064983,no_tremor
164,8991265,1.099,-0.17468011558037846,-0.12397608016570699,-1.0293928195336717,1.5438739941256252,1.718262558435617,-0.600363239888348,no_tremor
165,8991270,1.104,-0.17455010814135044,-0.12384436939778522,-1.0294272050204203,1.5358897452623033,1.6650155324550722,-0.6192546720791672,no_tremor
166,8991275,1.109,-0.1744235641145499,-0.12371001588251168,-1.0294678392497625,1.5253379691161328,1.600150195367863,-0.6380524582437511,no_tremor
167,8991280,1.114,-0.17430288460793367,-0.12357381365788328,-1.029514493583172,1.512226687746714,1.5236797911104192,-0.6567891952208142,no_tremor
168,8991285,1.119,-0.17419048305071305,-0.12343654273913371,-1.0295668335238095,1.496581780463321,1.4357327278346452,-0.6755000011893428,no_tremor
169,8991290,1.124,-0.17408876354844338,-0.12329896350024742,-1.0296244177789222,1.4784473424254685,1.3365586725277179,-0.6942219061015032,no_tremor
170,8991294,1.128,-0.1740000988504441,-0.12316181146928096,-1.0296866985325257,1.4578859227689145,1.2265340179920448,-0.7129932316788646,no_tremor
171,8991299,1.133,-0.17392680806122027,-0.12302579256050351,-1.0297530229899394,1.4349786369039965,1.106166643541409,-0.7318529729000747,no_tremor
172,8991324,1.158,-0.17387113422518638,-0.12289157876246234,-1.029822636250249,1.4098251515730285,0.976099884208552,-0.7508401928855605,no_tremor
173,8991329,1.163,-0.17383522191147127,-0.12275980429880845,-1.0298946855588154,1.3825435455461412,0.8371156155036761,-0.7699934426122332,no_tremor
174,8991334,1.168,-0.17382109492242967,-0.1226310622779642,-1.0299682259892962,1.3532700526106907,0.69013635371708,-0.7893502161566285,no_tremor
175,8991339,1.173,-0.1738306342455554,-0.12250590184804727,-1.0300422276023686,1.3221586961513232,0.536226268421045,-0.8089464516731223,no_tremor
176,8991344,1.178,-0.17386555636442164,-0.12238482587422499,-1.0301155841247231,1.2893808260206636,0.37659100640608,-0.8288160883530366,no_tremor
177,8991358,1.192,-0.17392739204154037,-0.12226828915615763,-1.030187123184852,1.2551245688329224,0.2125762346688012,-0.8489906898164685,no_tremor
178,8991363,1.197,-0.17401746568650328,-0.12215669720281895,-1.030255618129883,1.2195942026075801,0.04566482230093442,-0.8694991439668381,no_tremor
179,8991368,1.202,-0.17413687542800405,-0.12205040558034308,-1.0303198014290431,1.183009466178207,-0.12252740546734599,-0.8903674476291219,no_tremor
180,8991372,1.206,-0.17428647401888137,-0.12194971984541303,-1.0303783796442048,1.1456048133790366,-0.2902573959908176,-0.9116185812103336,no_tremor
181,8991377,1.211,-0.17446685071815402,-0.12185489607214182,-1.030430049917588,1.1076286221625573,-0.45566212722905636,-0.9332724747028404,no_tremor
182,8991382,1.216,-0.17467831431061526,-0.12176614197482087,-1.030473517893485,1.069342369751391,-0.6167674367625938,-0.9553460623423857,no_tremor
183,8991387,1.221,-0.17492087743965182,-0.12168361862293639,-1.0305075169578783,1.0310197866424116,-0.7714984610589535,-0.9778534195254805,no_tremor
184,8991392,1.226,-0.1751942424395858,-0.12160744273902226,-1.0305308286499646,0.9929460042910928,-0.9176917223719758,-1.0008059720466622,no_tremor
185,8991396,1.23,-0.17549778885799117,-0.12153768956450095,-1.0305423040751003,0.9554167128011529,-1.053108896975966,-1.0242127640270338,no_tremor
186,8991401,1.235,-0.17583056285528265,-0.12147439627366226,-1.0305408861309664,0.9187373453174233,-1.1754522909607867,-1.0480807671104895,no_tremor
187,8991406,1.24,-0.17619126865871595,-0.12141756591112879,-1.0305256323481686,0.8832223051432352,-1.2823820387052416,-1.0724152101802655,no_tremor
188,8991415,1.249,-0.17657826223208728,-0.12136717182322283,-1.0304957381426092,0.8491942502148413,-1.3715350260273955,-1.0972199068650752,no_tremor
189,8991420,1.254,-0.17698954730303493,-0.12132316254822313,-1.0304505602782985,0.8169834472875478,-1.4405455253544837,-1.1224975580736922,no_tremor
190,8991445,1.279,-0.1774227738699195,-0.12128546712433876,-1.0303896403433466,0.7869272046528122,-1.4870675130503184,-1.1482500085525873,no_tremor
191,8991450,1.284,-0.17787523929339868,-0.12125400076739996,-1.030312728044937,0.7593693878008437,-1.5087986188866198,-1.174478439129105,no_tremor
192,8991455,1.289,-0.17834389206736026,-0.12122867086337355,-1.0302198041265975,0.7346600181409829,-1.5035056358197596,-1.2011834790418778,no_tremor
193,8991459,1.293,-0.17882533836137463,-0.1212093832149502,-1.0301111026989291,0.7131549512905107,-1.469051496708253,-1.22836522531548,no_tremor
194,8991464,1.298,-0.1793158514309371,-0.12119604847769046,-1.0299871327515473,0.6952156286128567,-1.4034236044789412,-1.2560231586186323,no_tremor
195,8991469,1.303,-0.179811383998738,-0.1211885887199395,-1.0298486985813762,0.6812088936051394,-1.3047633829738183,-1.2841559475254167,no_tremor
196,8991474,1.308,-0.18030758371565583,-0.12118694404145534,-1.029696918835508,0.6715068632731338,-1.1713968956936966,-1.3127611355896491,no_tremor
197,8991479,1.313,-0.18079981181090832,-0.12119107918745216,-1.029533243831185,0.6664868434139574,-1.0018663574200004,-1.3418347081736977,no_tremor
198,8991484,1.318,-0.1812831650354803,-0.12120099009646348,-1.0293594707858682,0.6665312753866318,-0.7949623384451171,-1.371370538626045,no_tremor
199,8991488,1.322,-0.18175250099188922,-0.12121671032116399,-1.0291777565701525,0.6720277002686836,-0.5497564328199354,-1.4013597164933183,no_tremor
200,8991493,1.327,-0.18220246692798064,-0.12123831726041807,-1.0289906275873166,0.683368723972055,-0.2656341313932173,-1.4317897644078446,no_tremor
201,8991498,1.332,-0.18262753205478593,-0.12126593813805847,-1.0288009863861136,0.7009519635832826,0.05767239079977495,-1.4626437550144695,no_tremor
202,8991503,1.337,-0.18302202343057847,-0.12129975565933798,-1.0286121146274219,0.7251799509641459,0.4200518923451648,-1.4938993440403436,no_tremor
203,8991508,1.342,-0.1833801654367136,-0.12134001327015771,-1.0284276720491288,0.7564599651589449,0.8209824319616071,-1.5255277397065452,no_tremor
204,8991513,1.347,-0.18369612285626338,-0.12138701993799766,-1.0282516911050439,0.7952037613967363,1.2595008439299202,-1.5574926320817992,no_tremor
205,8991517,1.351,-0.18396404755326817,-0.12144115436824757,-1.0280885669902728,0.841827162396715,1.734173691723742,-1.5897491090488938,no_tremor
206,8991522,1.356,-0.18417812873681536,-0.12150286856676641,-1.027943042804978,0.8967494778692194,2.2430700715878578,-1.6222425887291798,no_tremor
207,8991527,1.361,-0.1843326467774383,-0.12157269066021781,-1.0278201896487598,0.9603927206248205,2.783736635366443,-1.6549078017443195,no_tremor
208,8991536,1.37,-0.18442203052049497,-0.12165122689084469,-1.0277253814776628,1.0331805921405888,3.353175196274256,-1.6876678604177588,no_tremor
209,8991541,1.375,-0.18444091800947987,-0.12173916271214835,-1.0276642645943608,1.1155372160130645,3.9478232740754837,-1.7204334553294012,no_tremor
210,8991565,1.399,-0.18438422048969674,-0.12183726292610839,-1.0276427216795418,1.2078856036145829,4.563537928783398,-1.7531022216509486,no_tremor
211,8991570,1.404,-0.18424718950896196,-0.12194637082004547,-1.0276668303101106,1.3106458419810805,5.195583225496313,-1.785558317414623,no_tremor
212,8991575,1.409,-0.18402548686900114,-0.12206740627999482,-1.0277428159501103,1.4242329995786802,5.838621666025367,-1.8176722529076417,no_tremor
213,8991585,1.419,-0.18371525711325337,-0.12220136287493241,-1.0278769994470127,1.5490547514779711,6.486709911427626,-1.8493010058221582,no_tremor
214,8991590,1.424,-0.18331320216867444,-0.12234930392026944,-1.0280757391226694,1.685508731707738,7.133299099501395,-1.880288452424093,no_tremor
215,8991595,1.429,-0.18281665769352526,-0.12251235753917714,-1.02834536761602,1.8339796269507942,7.771240032129054,-1.9104661411522394,no_tremor
216,8991599,1.433,-0.18222367061983225,-0.122691710747683,-1.0286921237122073,1.9948360321558338,8.392793471249137,-1.9396544302289689,no_tremor
217,8991604,1.438,-0.18153307731633878,-0.12288860259603056,-1.029122079476735,2.168427094995966,8.989645741849031,-1.967664003939697,no_tremor
218,8991609,1.443,-0.1807445817335609,-0.12310431640629535,-1.029641063099604,2.355078981960297,9.552929797782502,-1.9942977737485321,no_tremor
219,8991614,1.448,-0.1798588328263402,-0.12334017115584583,-1.0302545779386605,2.5550912035767466,10.07325186282804,-2.0193531616451423,no_tremor
220,8991619,1.453,-0.17887750048175594,-0.12359751206842642,-1.0309677183296726,2.768732839617979,10.540723715758487,-2.0426247550594714,no_tremor
221,8991628,1.462,-0.17780334911346424,-0.12387770048941997,-1.0317850827994566,2.9962387073292414,10.945000644124601,-2.063907315679492,no_tremor
222,8991633,1.467,-0.17664030802064404,-0.12418210313892171,-1.032710685375021,3.2378055167785567,11.27532504626926,-2.0829991181906897,no_tremor
223,8991638,1.472,-0.17539353755467696,-0.12451208085512204,-1.0337478657243422,3.493588057336936,11.520575613369745,-2.0997055885958233,no_tremor
224,8991643,1.477,-0.17406949009357117,-0.12486897696043224,-1.0348991988923315,3.763695458568972,11.66932197131025,-2.1138432048629423,no_tremor
225,8991648,1.482,-0.172675964796346,-0.12525410540282567,-1.036166405409379,4.048187568302992,11.709884605317423,-2.1252436151735505,no_tremor
226,8991657,1.491,-0.1712221550989356,-0.12566873884386523,-1.0375502625514788,4.347071490520415,11.630399829791678,-2.1337579214192735,no_tremor
227,8991662,1.496,-0.1697186879196402,-0.12611409688172465,-1.039050517523273,4.66029832521268,11.418889503421639,-2.1392610685517512,no_tremor
228,8991667,1.501,-0.16817765356429062,-0.12659133461125335,-1.0406658033217173,4.987760150680854,11.063335126598282,-2.141656274792143,no_tremor
229,8991691,1.525,-0.16661262535686425,-0.1271015317330973,-1.0423935580216177,5.3292872856280225,10.551755895399875,-2.140879434129061,no_tremor
230,8991696,1.53,-0.16503866806823309,-0.12764568242957203,-1.0442299482074873,5.684645864081512,9.87229022575238,-2.1369034207827142,no_tremor
231,8991701,1.535,-0.16347233427316424,-0.12822468622593897,-1.0461697972604016,6.053535751348383,9.013280204541841,-2.129742224556357,no_tremor
232,8991711,1.545,-0.16193164783439018,-0.12883934005139772,-1.0482065191941887,6.435588824728504,7.963358372002889,-2.1194548454377022,no_tremor
233,8991716,1.55,-0.16043607379414376,-0.129490331703831,-1.0503320587218061,6.830367639245785,6.711536190677962,-2.106148875086765,no_tremor
234,8991721,1.555,-0.15900647404909915,-0.13017823490562416,-1.0525368382186977,7.237364496476208,5.247293509089957,-2.089983691980371,no_tremor
235,8991726,1.56,-0.15766504829396094,-0.1309035061145335,-1.0548097122334255,7.656000933714102,3.560668282247159,-2.07117319637931,no_tremor
236,8991735,1.569,-0.156435259840708,-0.13166648322376417,-1.0571379301754749,8.08562765098579,1.6423457672239627,-2.049988011716346,no_tremor
237,8991745,1.579,-0.15534174605303117,-0.13246738624969287,-1.0595071077850338,8.525524894019304,-0.5162536269254381,-2.0267570814190643,no_tremor
238,8991750,1.584,-0.15441021327734664,-0.1333063200650528,-1.0619012079595205,8.974903311323958,-2.922888686216232,-2.001868595316286,no_tremor
239,8991755,1.589,-0.15366731630214348,-0.13418327919137593,-1.0643025314767331,9.432905302595,-5.584414805952556,-1.975770187675714,no_tremor
240,8991760,1.594,-0.15314052253635646,-0.13509815461879593,-1.066691718114473,9.89860687363205,-8.506705347627822,-1.9489683587029445,no_tremor
241,8991765,1.599,-0.15285796126538492,-0.1360507425755246,-1.069047758620483,10.371020009705978,-11.694577805309217,-1.9220270816412515,no_tremor
242,8991769,1.603,-0.15284825852054568,-0.13704075512454195,-1.0713480179329518,10.84909557466263,-15.151725626333695,-1.895565567432964,no_tremor
243,8991779,1.613,-0.15314035828373498,-0.13806783242207846,-1.0735682699887448,11.331726736964535,-18.880656497011866,-1.8702551679244133,no_tremor
244,8991784,1.618,-0.15376333094252198,-0.13913155643212655,-1.0756827443824062,11.817752916545126,-22.88263785887482,-1.8468154069543958,no_tremor
245,8991789,1.623,-0.1547461701092436,-0.14023146585443236,-1.0776641850531008,12.305964238414102,-27.15765036622794,-1.8260091365849656,no_tremor
246,8991815,1.649,-0.15611757911700194,-0.14136707199103754,-1.0794839210793952,12.795106471490032,-31.70434993313302,-1.8086368235017847,no_tremor
247,8991819,1.653,-0.15790574870068586,-0.14253787524886385,-1.081111949554902,13.28388642555654,-36.52003894834426,-1.7955299789536703,no_tremor
248,8991829,1.663,-0.16013812755655918,-0.14374338195288727,-1.0825170304049125,13.77097777702893,-41.60064715899186,-1.787543755865759,no_tremor
249,8991839,1.673,-0.16284118764468603,-0.14498312112558615,-1.0836667928901869,14.255027296023869,-46.94072263477921,-1.785548750309521,no_tremor
250,8991844,1.678,-0.1660401862526733,-0.1462566608729795,-1.0845278534333396,14.73466145163344,-52.53343312061189,-1.7904220618595665,no_tremor
251,8991848,1.682,-0.1697589269794565,-0.14756362400540707,-1.0850659442968638,15.208493376334603,-58.37057796531819,-1.8030376881027221,no_tremor
252,8991853,1.687,-0.17401952192911255,-0.1489037025124854,-1.0852460525377257,15.675130171883573,-64.4426106791262,-1.8242563517798274,no_tremor
253,8991858,1.692,-0.1788421575301099,-0.15027667050706867,-1.0850325685587336,16.133180537733267,-70.73867202669375,-1.854914883380718,no_tremor
254,8991868,1.702,-0.18424486651348088,-0.15168239525327712,-1.084389443470153,16.581262700154753,-77.24663340993565,-1.8958153057076546,no_tremor
255,8991873,1.707,-0.19024330868784928,-0.15312084589949776,-1.0832803543673841,17.018012616981576,-83.95315013994657,-1.9477137882677595,no_tremor
256,8991878,1.712,-0.19685056323012956,-0.15459209954996395,-1.0816688765253104,17.442092429675537,-90.84372404482568,-2.0113096570498796,no_tremor
257,8991883,1.717,-0.20407693525575904,-0.1560963443299616,-1.079518661412399,17.85219913098846,-97.90277471455923,-2.087234658375547,no_tremor
258,8991888,1.722,-0.21192977942896019,-0.15763387913165688,-1.0767936193437946,18.24707341223232,-105.1137185472638,-2.1760426838286397,no_tremor
259,8991892,1.726,-0.22041334331125337,-0.15920510977065483,-1.0734581055282555,18.625508648320924,-112.45905463252659,-2.2782001674862813,no_tremor
260,8991902,1.736,-0.22952863301790818,-0.1608105413371416,-1.0694771082237278,18.986359970750616,-119.92045638702763,-2.3940773679838254,no_tremor
261,8991912,1.746,-0.23927330355262155,-0.16245076658899865,-1.0648164377048535,19.328553368563007,-127.47886774764721,-2.5239407467015598,no_tremor
262,8991939,1.773,-0.24964157591825828,-0.16412645030756948,-1.0594429147663886,19.65109474568942,-135.11460263481706,-2.6679466481680607,no_tremor
263,8991943,1.777,-0.2606241827578864,-0.16583830962092858,-1.0533245575410102,19.953078850794377,-142.8074463390252,-2.8261364769156927,no_tremor
264,8991948,1.782,-0.27220834387470255,-0.16758709039594816,-1.0464307654949923,20.233697984097198,-150.5367574816182,-2.9984335438800396,no_tremor
265,8991953,1.787,-0.2843777725285023,-0.1693735399090512,-1.0387324995703948,20.492250376697175,-158.28156928222467,-3.184641723988331,no_tremor
266,8991958,1.792,-0.29711271292850155,-0.171198376123282,-1.03020245755363,20.728148133811967,-166.02068903173804,-3.3844460262006444,no_tremor
267,8991963,1.797,-0.3103900088496909,-0.1730622540205927,-1.0208152438561826,20.940924635116527,-173.73279489531478,-3.597415131178012,no_tremor
268,8991968,1.802,-0.32418320279620366,-0.1749657295563995,-1.0105475329886882,21.13024129279175,-181.39652941810945,-3.823005903494499,no_tremor
269,8991977,1.811,-0.3384626646199577,-0.1769092219123746,-0.999378226093834,21.295893579960996,-188.99058935280374,-4.060569837627115,no_tremor
270,8991982,1.816,-0.35319574797772224,-0.1788929748179961,-0.9872885999765536,21.437816257397788,-196.49381166152799,-4.309361351746273,no_tremor
271,8991992,1.826,-0.36834697248383996,-0.1809170177870986,-0.9742624481293993,21.556087742862218,-203.88525575966568,-4.568547801963698,no_tremor
272,8991997,1.831,-0.38387822890913426,-0.18298112816835746,-0.9602862132907263,21.650933583329167,-211.14428225749398,-4.837221053274643,no_tremor
273,8992001,1.835,-0.39974900431978944,-0.18508479493469143,-0.9453491110845053,21.72272900393677,-218.25062860634975,-5.114410412935286,no_tremor
274,8992006,1.84,-0.4159166236799591,-0.18722718513376493,-0.9294432442649129,21.772000516867394,-225.1844821575942,-5.39909670803661,no_tremor
275,8992011,1.845,-0.43233650419189074,-0.18940711388999035,-0.912563707023427,21.799426577076275,-231.92655118864593,-5.690227271328623,no_tremor
276,8992016,1.85,-0.44896241853692687,-0.19162301878976595,-0.8947086787165476,21.80583726920235,-238.45813444089495,-5.9867315871251545,no_tremor
277,8992021,1.855,-0.4657467632110177,-0.1938729393999207,-0.875879506250951,21.79221300151353,-244.7611896535168,-6.287537342078543,no_tremor
278,8992026,1.86,-0.4826408283069023,-0.19615450256900444,-0.8560807742349299,21.759682169721717,-250.81840147032065,-6.591586624467236,no_tremor
279,8992031,1.865,-0.499595065363495,-0.19846491404662261,-0.8353203618848266,21.709517738339525,-256.61324894897825,-6.897852021386295,no_tremor
280,8992035,1.869,-0.5165593502613622,-0.20080095683136182,-0.8136094855760635,21.64313267286123,-262.1300727177265,-7.205352375804079,no_tremor
281,8992063,1.897,-0.533483238571221,-0.20315899652615074,-0.7909627258623378,21.562074145154014,-267.35414160793465,-7.51316798306402,no_tremor
282,8992073,1.907,-0.5503162112403126,-0.20553499384366417,-0.7673980377635451,21.468016429862626,-272.2717183501093,-7.8204550263588475,no_tremor
283,8992078,1.912,-0.5670079090110476,-0.2079245242656736,-0.7429367431485777,21.362752415439868,-276.87012367728437,-8.12645907099148,no_tremor
284,8992083,1.917,-0.5835083544904109,-0.21032280472065584,-0.7176035041130759,21.248183674123606,-281.1377979686378,-8.43052745777433,no_tremor
285,8992088,1.922,-0.5997681613079373,-0.21272472700421313,-0.6914262763712902,21.126309071713795,-285.06435942034693,-8.732120457856194,no_tremor
286,8992092,1.926,-0.6157387302906668,-0.21512489752678354,-0.6644362418448065,20.999211944914904,-288.6406576609041,-9.03082107436432,no_tremor
287,8992097,1.931,-0.6313724330191129,-0.21751768283260747,-0.6366677198425676,20.869045922120375,-291.8588217246003,-9.326343397462157,no_tremor
288,8992107,1.941,-0.6466227834853746,-0.21989726019418235,-0.6081580564902606,20.738019505392877,-294.7123013461395,-9.61853943517146,no_tremor
289,8992116,1.95,-0.6614445988349577,-0.22225767245121525,-0.5789474923806875,20.608379564475513,-297.1959006326589,-9.907404351320604,no_tremor
290,8992121,1.955,-0.675794150324789,-0.22459288613967335,-0.5490790087661834,20.482393919527492,-299.3058033004045,-10.193080044970403,no_tremor
291,8992126,1.96,-0.6896293056641498,-0.22689685185604802,-0.5185981529715288,20.362333210996646,-301.03958882533607,-10.475857003494678,no_tremor
292,8992131,1.965,-0.7029096638237463,-0.22916356573659752,-0.48755284403762383,20.250452275163976,-302.39623904167286,-10.756174354827339,no_tremor
293,8992136,1.97,-0.7155966832123097,-0.23138713090890095,-0.4559931598899363,20.148971263780638,-303.3761349174913,-11.034618034522643,no_tremor
294,8992141,1.975,-0.7276538038513055,-0.23356181779307278,-0.4239711075593011,20.06005676587874,-303.9810434272638,-11.311916972665122,no_tremor
295,8992146,1.98,-0.7390465638543804,-0.23568212218496978,-0.39154037817839155,19.98580320748193,-304.2140946162668,-11.588937198173959,no_tremor
296,8992151,1.985,-0.7497427101701761,-0.2377428201333852,-0.35875608864963243,19.928214816893316,-304.07974910607595,-11.866673758824996,no_tremor
297,8992155,1.989,-0.7597123032076596,-0.23973901871778694,-0.32567451203977704,19.889188445220544,-303.58375642396624,-12.146240369445168,no_tremor
298,8992160,1.994,-0.7689278146640277,-0.24166620193477262,-0.29235279891070787,19.870497520727056,-302.7331046550456,-12.42885673070695,no_tremor
299,8992187,2.021,-0.7773642176430838,-0.243520271004859,-0.25884869195366367,19.873777390201724,-301.5359620189758,-12.715833504946175,no_tremor
300,8992192,2.026,-0.7849990680036932,-0.245297578514843,-0.22522023645806621,19.900512261180676,-300.0016110663751,-13.00855498833713,no_tremor
301,8992197,2.031,-0.7918125758203897,-0.24699495591768705,-0.19152548929907998,19.9520239081547,-298.14037627187605,-13.308459575082631,no_tremor
302,8992202,2.036,-0.7977876658694952,-0.24860973402802494,-0.1578222292277295,20.02946224946131,-295.9635458655938,-13.617018165174427,no_tremor
303,8992207,2.041,-0.8029100261624138,-0.25013975628183494,-0.12416767125043524,20.133797846781707,-293.48328878825464,-13.935710720535527,no_tremor
304,8992212,2.046,-0.8071681437113334,-0.2515833846718782,-0.0906181877794813,20.265816332383377,-290.71256767852583,-14.266001223200183,no_tremor
305,8992221,2.055,-0.8105533269056947,-0.25293949841750957,-0.057229039047381094,20.426114733694988,-287.66504880801926,-14.609311331694027,no_tremor
306,8992226,2.06,-0.813059714079132,-0.2542074855666764,-0.02405411504486407,20.615099640426,-284.35500987267466,-14.966993066740647,no_tremor
307,8992231,2.065,-0.8146842680433367,-0.2553872278479179,0.008854309007225138,20.832987144108866,-280.7972465300047,-15.340300885309126,no_tremor
308,8992236,2.07,-0.8154267565520996,-0.2564790791817043,0.041445801894764316,21.07980447063391,-277.0069785410004,-15.730363524175837,no_tremor
309,8992246,2.08,-0.8152897188349024,-0.2574838383181395,0.07367198885010658,21.355393219712912,-272.9997563346853,-16.138156011326423,no_tremor
310,8992250,2.084,-0.814278418506184,-0.2584027160922378,0.10548674593269015,21.659414118198097,-268.79136876492163,-16.564472255761245,no_tremor
311,8992260,2.094,-0.8124007833154556,-0.2592372977850665,0.13684637531647476,21.991353185185694,-264.3977527776318,-17.009898634260896,no_tremor
312,8992270,2.104,-0.8096673323559246,-0.2599895010599837,0.167709760659737,22.35052919576125,-259.8349056569214,-17.474788998863833,no_tremor
313,8992275,2.109,-0.8060910914958135,-0.2606615299215728,0.19803850193038897,22.7361023171752,-255.11880047205952,-17.959241531693547,no_tremor
314,8992280,2.114,-0.8016874979373567,-0.26125582513509116,0.22779702925858278,23.147083775530017,-250.2653053000138,-18.46307787266685,no_tremor
315,8992285,2.119,-0.7964742949437709,-0.2617750115590839,0.2569526955990461,23.582346392075813,-245.29010674453647,-18.98582493826526,no_tremor
316,8992312,2.146,-0.7904714179046595,-0.26222184289073885,0.2854758482091124,24.04063580683923,-240.2086382104869,-19.526699835098672,no_tremor
317,8992317,2.151,-0.7837008730333169,-0.2625991444013799,0.3133398791748558,24.520582186983038,-235.03601332315,-20.084598250280415,no_tremor
318,8992321,2.155,-0.7761866100949348,-0.26290975433693214,0.3405212554369432,25.020712203327793,-229.7869648083748,-20.65808667054675,no_tremor
319,8992326,2.16,-0.7679543906315225,-0.26315646475604604,0.36699952897809374,25.53946105540644,-224.47578906984555,-21.245398741701443,no_tremor
320,8992331,2.165,-0.7590316531538929,-0.2633419626565689,0.3927573280368655,26.075184334196685,-219.11629661630224,-21.844436028341427,no_tremor
321,8992336,2.17,-0.7494473767011859,-0.26346877228584026,0.41778033040138995,26.626169529669408,-213.72176841085806,-22.452773371701095,no_tremor
322,8992341,2.175,-0.7392319440274386,-0.263539199538249,0.44205721999623304,27.190647014029743,-208.30491814524976,-23.067668972878387,no_tremor
323,8992346,2.18,-0.7284170054746903,-0.2635552793177864,0.46557962809123515,27.766800357965707,-202.87786038944537,-23.686079252390556,no_tremor
324,8992350,2.184,-0.7170353443468731,-0.26351872669003673,0.4883420605275086,28.35277586298438,-197.45208453311758,-24.304678458075117,no_tremor
325,8992355,2.189,-0.7051207443223738,-0.26343089257440916,0.5103418123772442,28.946691214905037,-192.03843441791838,-24.919882914347717,no_tremor
326,8992360,2.194,-0.6927078591512296,-0.2632927246413118,0.5315788714406173,29.546643181016346,-186.6470935518601,-25.527879727537332,no_tremor
327,8992365,2.199,-0.6798320845937924,-0.2631047339883776,0.5520558119451738,30.15071428798533,-181.28757578940358,-26.124659683754007,no_tremor
328,8992370,2.204,-0.6665294322925541,-0.26286696808204557,0.5717776797582947,30.756978431436302,-175.96872134219814,-26.70605399707515,no_tremor
329,8992375,2.209,-0.6528364050501109,-0.26257899037162696,0.5907518703564737,31.363505382652075,-170.69869794781778,-27.267774488055366,no_tremor
330,8992385,2.219,-0.638789872835243,-0.2622398669163084,0.6089880007186043,31.968364174875475,-165.4850069654821,-27.80545669859769,no_tremor
331,8992390,2.224,-0.6244269487736881,-0.26184816031275354,0.6264977762249188,32.56962537376735,-160.3344940934025,-28.31470538242543,no_tremor
332,8992395,2.229,-0.6097848644132117,-0.2614019311702321,0.6432948535487054,33.16536226537937,-155.25336431972673,-28.791141753829105,no_tremor
333,8992399,2.233,-0.5949008436899035,-0.26089874734618246,0.6593947004243252,33.75365102965068,-150.24720063527087,-29.23045183373023,no_tremor
334,8992405,2.239,-0.5798119752615366,-0.2603357011197141,0.6748144530603335,34.3325700048882,-145.3209859589581,-29.62843520300475,no_tremor
335,8992409,2.243,-0.5645550832031243,-0.25970943443486677,0.6895727718350266,34.90019818535057,-140.4791276658894,-29.98105345810265,no_tremor
336,8992437,2.271,-0.5491665964611637,-0.2590161722813009,0.7036896957562933,35.454613127214216,-135.72548407354392,-30.28447766172169,no_tremor
337,8992452,2.286,-0.5336824179081465,-0.2582517641904187,0.7171864959864898,35.99388846666772,-131.06339224280458,-30.535134090610885,no_tremor
338,8992457,2.291,-0.518137794278604,-0.257411733703408,0.7300855285388921,36.51609127779423,-126.49569649451239,-30.729747603810434,no_tremor
339,8992471,2.305,-0.5025671886275794,-0.25649133551031633,0.7424100860745348,37.01927951788887,-122.02477712977708,-30.86538198840417,no_tremor
340,8992476,2.31,-0.48700415715439116,-0.25548561976819867,0.7541842486013506,37.50149982366234,-117.6525789594938,-30.939476685457187,no_tremor
341,8992481,2.315,-0.47148123223799765,-0.25438950289319595,0.7654327328232792,37.960785931051205,-113.38063936663544,-30.94987935449018,no_tremor
342,8992486,2.32,-0.45602981334951775,-0.2531978439047461,0.7761807399090433,38.39515799037309,-109.21011571371282,-30.894873799842465,no_tremor
343,8992490,2.324,-0.4406800671957242,-0.25190552519960724,0.7864538015411748,38.80262303485333,-105.14181195349771,-30.773202857087224,no_tremor
344,8992495,2.329,-0.42546083806953927,-0.25050753646467433,0.7962776242548005,39.18117683447317,-101.17620431138019,-30.5840859218402,no_tremor
345,8992500,2.334,-0.41039956899868774,-0.24899906031151886,0.805677932270443,39.528807331056555,-97.31346590083663,-30.32723089412961,no_tremor
346,8992505,2.339,-0.39552223393704716,-0.2473755581389072,0.8146803092523489,39.84349980730148,-93.55349012523696,-30.002840405284434,no_tremor
347,8992510,2.344,-0.3808532809641136,-0.2456328547051907,0.8233100396697522,40.12324389402751,-89.89591271979948,-29.61161228852224,no_tremor
348,8992514,2.348,-0.36641558626028076,-0.2437672199197135,0.8315919506889831,40.36604246696657,-86.34013230433519,-29.154734348020447,no_tremor
349,8992519,2.353,-0.3522304185103709,-0.24177544643738544,0.8395502557653672,40.56992242738399,-82.88532935590297,-28.633873572838194,no_tremor
350,8992524,2.358,-0.33831741334605947,-0.23965492175698164,0.847208401321323,40.732947301533464,-79.53048357184919,-28.051160028568553,no_tremor
351,8992529,2.363,-0.3246945574531295,-0.23740369367315067,0.8545889180769879,40.8532315359158,-76.27438967469621,-27.409165737668342,no_tremor
352,8992534,2.368,-0.31137818202079653,-0.2350205281045633,0.8617132787288021,40.92895631182104,-73.11567180645662,-26.71087892756914,no_tremor
353,8992561,2.395,-0.2983829652740227,-0.23250495850492114,0.868601763737569,40.95838665563032,-70.05279676730095,-25.95967408432851,no_tremor
354,8992566,2.4,-0.28572194387953403,-0.22985732624689967,0.8752733369812917,40.93988958239803,-67.08408646393677,-25.15927829872179,no_tremor
355,8992576,2.41,-0.2734065330225405,-0.22707881153680434,0.8817455329467073,40.87195298103045,-64.20773002601575,-24.313734429181324,no_tremor
356,8992581,2.415,-0.2614465548876501,-0.22417145455590448,0.8880343569851303,40.753204930036205,-61.421796094056546,-23.427361629021,no_tremor
357,8992586,2.42,-0.24985027513762528,-0.22113816662714816,0.8941541999635676,40.58243312030197,-58.72424575773374,-22.504713793861523,no_tremor
358,8992590,2.424,-0.2386244467902229,-0.21798273128025772,0.9001177684292007,40.358604051176,-56.11294653037523,-21.550536482936483,no_tremor
359,8992595,2.429,-0.22777436068845297,-0.21470979515050484,0.9059360312004897,40.080881656271025,-53.58568760486075,-20.569722859705916,no_tremor
360,8992600,2.434,-0.21730390158570168,-0.21132484871396284,0.911618183117624,39.74864500796963,-51.14019647345663,-19.567269185316352,no_tremor
361,8992605,2.439,-0.20721560875571726,-0.20783419694674124,0.917171626532832,39.361504748971605,-48.77415683094336,-18.5482303832776,no_tremor
362,8992610,2.444,-0.1975107400054318,-0.20424492010342335,0.9226019709912544,38.91931790871605,-46.485227532111224,-17.517676175399345,no_tremor
363,8992615,2.449,-0.18818933801838858,-0.20056482494112476,0.9279130514331156,38.42220078318525,-44.2710622516788,-16.480648267763115,no_tremor
364,8992620,2.454,-0.1792502980775252,-0.19680238686640086,0.933106965121288,37.8705395879541,-42.12932940382206,-15.442119040561506,no_tremor
365,8992625,2.459,-0.1706914363879447,-0.19296668364569103,0.938184127347428,37.264998635315116,-40.05773182383188,-14.406952164994168,no_tremor
366,8992630,2.464,-0.16250955841757025,-0.18906732148761732,0.943143345779147,36.606525835057774,-38.05402569662369,-13.37986553201854,no_tremor
367,8992635,2.469,-0.1547005268695802,-0.18511435446862967,0.9479819130694249,35.896355371897954,-36.116038233106146,-12.365396831080497,no_tremor
368,8992640,2.474,-0.1472593290705082,-0.181118198424101,0.9526957170538107,35.13600746694602,-34.24168364070502,-11.367872063443176,no_tremor
369,8992645,2.479,-0.1401801436809496,-0.17708954055759973,0.9572793675150357,34.32728518347184,-32.428977002670145,-10.3913772171517,no_tremor
370,8992654,2.488,-0.13345640669611794,-0.17303924612531257,0.9617263381106433,33.47226828804861,-30.676045765581875,-9.43973327194443,no_tremor
371,8992681,2.515,-0.12708087669242363,-0.16897826362583093,0.9660291216574236,32.57330422728924,-28.98113862806891,-8.516474645109088,no_tremor
372,8992686,2.52,-0.12104569919800684,-0.1649175299650073,0.9701793965776477,31.632996327198807,-27.342631717284103,-7.624831136115215,no_tremor
373,8992691,2.525,-0.11534246994471233,-0.16086787706958589,0.9741682019806619,30.65418936398571,-25.759032024348635,-6.76771338176247,no_tremor
374,8992695,2.529,-0.1099622966423892,-0.15683994139121793,0.9779861186292872,29.639952688427243,-24.228978140604834,-5.947701796054951,no_tremor
375,8992715,2.549,-0.1048958588543146,-0.15284407767687674,0.9816234529566928,28.59356110920125,-22.751238394821343,-5.1670389387546,no_tremor
376,8992720,2.554,-0.10013346557533567,-0.1488902782886172,0.9850704213529676,27.518473756385966,-21.324706543710825,-4.427625230292449,no_tremor
377,8992725,2.559,-0.09566511021820563,-0.14498809924038591,0.9883173320967109,26.418311158346455,-19.948395217987198,-3.7310179047466923,no_tremor
378,8992730,2.564,-0.09148052286632488,-0.14114659398247534,0.9913547625199841,25.29683077533096,-18.621427371325176,-3.078433064308757,no_tremor
379,8992735,2.569,-0.08756921980977872,-0.13737425580195858,0.9941737292265956,24.157901241321877,-17.343026015298584,-2.4707506682212985,no_tremor
380,8992739,2.573,-0.08392055051027651,-0.13367896951881195,0.9967658494098869,23.005475572285366,-16.112502547814152,-1.908522260030859,no_tremor
381,8992744,2.578,-0.08052374221941531,-0.13006797294640846,0.9991234915259821,21.843563605017255,-14.929243996729618,-1.3919812133968528,no_tremor
382,8992749,2.583,-0.07736794249905984,-0.12654782835950135,1.001239913769393,20.676203936925628,-13.7926995050826,-0.9210552605884392,no_tremor
383,8992754,2.588,-0.07444225986836696,-0.12312440398180452,1.0031093889720089,19.507435642562022,-12.702366379558164,-0.49538105836447277,no_tremor
384,8992759,2.593,-0.07173580274079748,-0.11980286527783585,1.004727314708479,18.34127004601247,-11.657776010122635,-0.11432054125168083,no_tremor
385,8992764,2.598,-0.06923771673212123,-0.11658767561847982,1.0060903075473555,17.1816628285942,-10.658479947993436,0.22302118917535022,no_tremor
386,8992769,2.603,-0.06693722033632962,-0.11348260569499646,1.0071962805464536,16.032486749177533,-9.704036402517042,0.5177766892003962,no_tremor
387,8992778,2.612,-0.06482363890003039,-0.1104907508894055,1.0080445032624865,14.897505250962205,-8.79399738448551,0.7712959585923281,no_tremor
388,8992803,2.637,-0.06288643678960683,-0.10761455567621867,1.0086356437393391,13.7803472242573,-7.9278966830603945,0.985125427436835,no_tremor
389,8992808,2.642,-0.06111524764062361,-0.10485584403493992,1.0089717921653103,12.684483188725963,-7.105238817008819,1.1609863761575445,no_tremor
390,8992813,2.647,-0.05949990260005569,-0.1022158547954178,1.0090564661524737,11.613203147429777,-6.325489052310976,1.3007530098359983,no_tremor
391,8992827,2.661,-0.058030456510710135,-0.09969528081706357,1.008894597888584,10.569596344845667,-5.58806453287924,1.406430395377085,no_tremor
392,8992832,2.666,-0.05669721203353018,-0.09729431091395468,1.008492503730618,9.5565331305267,-4.8923265347747,1.4801324569232204,no_tremor
393,8992842,2.676,-0.055490741745468954,-0.09501267347567705,1.0078578371256648,8.576649092135485,-4.237573831717949,1.5240602119320221,no_tremor
394,8992847,2.681,-0.05440190827696704,-0.0928496807933646,1.00699952603061,7.63233158088006,-3.6230371539226742,1.5404804177657638,no_tremor
395,8992856,2.69,-0.05342188255572556,-0.09080427317736947,1.0059276962308614,6.72570871273205,-3.047874733141405,1.5317047869287492,no_tremor
396,8992866,2.7,-0.05254216019983919,-0.08887506204331733,1.004653582114828,5.858640892702184,-2.5111689497377103,1.5000699187856734,no_tremor
397,8992871,2.705,-0.05175457605719644,-0.08706037124299293,1.0031894265439667,5.03271487797715,-2.0119241241770416,1.4479180864530359,no_tremor
398,8992875,2.709,-0.05105131682885754,-0.08535827602172827,1.0015483714795685,4.249240368042954,-1.549065515289331,1.3775790081483226,no_tremor
399,8992880,2.714,-0.05042493165508333,-0.08376663909162775,0.9997443410063599,3.5092490839013375,-1.1214395921678784,1.2913527208380948,no_tremor
400,8992885,2.719,-0.04986834049749389,-0.08228314341843108,0.9977919183504673,2.8134962723667516,-0.7278156320301256,1.1914936595152072,no_tremor
401,8992890,2.724,-0.049374840130575894,-0.08090532142914596,0.9957062184433118,2.1624645448197493,-0.36688866553147853,1.0801960279417169,no_tremor
402,8992895,2.729,-0.0489381075676044,-0.07963058045895538,0.9935027575462961,1.556369933503177,-0.03728375006659058,0.9595805271902033,no_tremor
403,8992900,2.734,-0.04855220079350657,-0.07845622437065973,0.9911973214309453,0.995170023786677,0.262438493596461,0.8316824882263975,no_tremor
404,8992925,2.759,-0.048211556760349154,-0.0773794713986633,0.9888058336072612,0.47857399885978313,0.5337751909466083,0.6984414354756063,no_tremor
405,8992930,2.764,-0.04791098671508193,-0.07639746839081848,0.986344225104536,0.006054414731780838,0.7782735196263658,0.5616920907185675,no_tremor
406,8992935,2.769,-0.047645669060771716,-0.0755073017397942,0.9838283073193602,-0.4231394908957876,0.9975221920523625,0.4231568111818866,no_tremor
407,8992940,2.774,-0.04741114007987519,-0.07470600540093268,0.9812736494321289,-0.8099671612247239,1.1931423103928664,0.28443944248912845,no_tremor
408,8992945,2.779,-0.04720328294724572,-0.0739905664745707,0.9786954618337345,-1.1555809630098866,1.366777787834919,0.14702055614799925,no_tremor
409,8992949,2.783,-0.047018315515861955,-0.07335792888042586,0.9761084868883851,-1.4613095166959407,1.5200855153872002,0.012254031917732514,no_tremor
410,8992954,2.788,-0.0468527773662127,-0.07280499566885336,0.9735268981918358,-1.728640317664683,1.6547254322205407,-0.11863506311008631,no_tremor
411,8992959,2.793,-0.046703516576009456,-0.0723286305014939,0.9709642092807325,-1.9592018467220715,1.7723506348311098,-0.24455135507362824,no_tremor
412,8992964,2.798,-0.04656767659947156,-0.07192565879642784,0.968433192524202,-2.1547453609896436,1.8745976391718857,-0.36452886773203624,no_tremor
413,8992968,2.802,-0.04644268355572256,-0.07159286897530112,0.9659458086982597,-2.317126548057726,1.9630768925892073,-0.4777296223680284,no_tremor
414,8992974,2.808,-0.04632623412584369,-0.07132701417735883,0.963513147520208,-2.4482872169649808,2.0393636206350063,-0.5834412126701315,no_tremor
415,8992979,2.813,-0.04621628415983992,-0.07112481472364376,0.9611453792145963,-2.5502371898466674,2.104989087980235,-0.6810734428470523,no_tremor
416,8992989,2.823,-0.046111038008676636,-0.07098296152950584,0.958851717002132,-2.6250365484795997,2.1614323514648763,-0.7701541267491057,no_tremor
417,8992993,2.827,-0.04600893853050522,-0.07089812058037781,0.9566403902526366,-2.6747783805070404,2.2101125843079914,-0.8503241546523412,no_tremor
418,8992998,2.832,-0.04590865767886863,-0.070866938509398,0.9545186279241645,-2.701572160214685,2.2523820505608803,-0.9213319409712235,no_tremor
419,8993003,2.837,-0.04580908756492259,-0.07088604925010655,0.952492651821268,-2.7075278874877493,2.289519805213492,-0.9830273692931273,no_tremor
420,8993008,2.842,-0.04570933189194677,-0.07095208168584954,0.9505676791421457,-2.694741095557707,2.3227261866462365,-1.035355350138078,no_tremor
421,8993012,2.846,-0.045608697680903025,-0.07106166818020351,0.9487479337413758,-2.6652788233922373,2.3531181546836595,-1.0783491019045255,no_tremor
422,8993017,2.851,-0.0455066872303866,-0.07121145384809185,0.9470366655057743,-2.62116663233157,2.3817255102180335,-1.1121232574874553,no_tremor
423,8993022,2.856,-0.04540299027295744,-0.07139810641256165,0.9454361772198432,-2.5643767291247985,2.4094880119688096,-1.136866889055269,no_tremor
424,8993053,2.887,-0.04529747629452648,-0.07161832648449756,0.943947858279559,-2.4968172394824864,2.43725338361903,-1.152836532105255,no_tremor
425,8993058,2.892,-0.045190186969821994,-0.07186885809953898,0.9425722245956085,-2.4203226587606967,2.4657761825867923,-1.160349277874653,no_tremor
426,8993063,2.897,-0.04508132863595009,-0.07214649934714047,0.9413089640078509,-2.3366454905837437,2.4957174830069957,-1.1597759915125414,no_tremor
427,8993067,2.901,-0.04497126468479141,-0.07244811293156762,0.9401569865118474,-2.2474490704539263,2.5276453126176768,-1.1515347030094727,no_tremor
428,8993072,2.906,-0.04486050771436018,-0.07277063651462842,0.93911447857771,-2.1543015591051433,2.5620357770313955,-1.1360842088002379,no_tremor
429,8993082,2.916,-0.04474971124958119,-0.07311109270507629,0.9381789608246536,-2.0586710788669693,2.599274804257077,-1.1139179137048663,no_tremor
430,8993086,2.92,-0.044639660830933965,-0.07346659857837985,0.9373473483052843,-1.961921955759028,2.6396604453806476,-1.0855579352672986,no_tremor
431,8993091,2.925,-0.04453126427828491,-0.0738343746306751,0.9366160126551917,-1.865312021374605,2.683405672618994,-1.0515494857678478,no_tremor
432,8993101,2.935,-0.044425540967711744,-0.07421175309006045,0.935980845378328,-1.769990922710881,2.730641622931885,-1.012455540989725,no_tremor
433,8993111,2.945,-0.04432361000954705,-0.07459618552541701,0.9354373215681538,-1.6769993848434561,2.781421243341245,-0.9688517984373765,no_tremor
434,8993116,2.95,-0.0442266772814479,-0.07498524970678763,0.934980563407933,-1.5872693695007043,2.8357233017602654,-0.921321920756013,no_tremor
435,8993121,2.955,-0.0441360213428932,-0.07537665568178958,0.9346054028480097,-1.501625070700568,2.8934567327840273,-0.8704530533249766,no_tremor
436,8993125,2.959,-0.044052978326876775,-0.07576825103969914,0.9343064429185481,-1.4207846858940731,2.954465289930425,-0.8168315997502098,no_tremor
437,8993135,2.969,-0.04397892596114936,-0.07615802533899524,0.9340781171973721,-1.3453628976011482,3.018532473408332,-0.7610392361241471,no_tremor
438,8993140,2.974,-0.04391526690891161,-0.07654411367552923,0.9339147470090263,-1.2758739970134008,3.0853866964330012,-0.7036491444583839,no_tremor
439,8993145,2.979,-0.043863411635107354,-0.07692479936733337,0.9338105959791283,-1.2127355784618439,3.154706645719987,-0.6452224473065933,no_tremor
440,8993170,3.004,-0.043824761000450706,-0.07729851572877776,0.9337599216052227,-1.1562727326451043,3.226126785574023,-0.5863048289387921,no_tremor
441,8993180,3.014,-0.04380068876524751,-0.07766384690223282,0.9337570235317101,-1.1067226668735823,3.299242951878868,-0.5274233330061474,no_tremor
442,8993184,3.018,-0.0437925241569176,-0.0780195277115204,0.9337962882357213,-1.064239681660406,3.3736179838725073,-0.4690833320560232,no_tremor
443,8993189,3.023,-0.04380153462981207,-0.07836444250128856,0.9338722298505845,-1.0289004344048707,3.4487873486084806,-0.41176567065373865,no_tremor
444,8993194,3.028,-0.04382890893356193,-0.07869762293319925,0.9339795268825363,-1.0007094226832707,3.5242647240443072,-0.35592399152396287,no_tremor
445,8993199,3.033,-0.04387574061177724,-0.07901824472521175,0.934113054620406,-0.9796046220284326,3.5995475183692234,-0.30198226251941823,no_tremor
446,8993204,3.038,-0.04394301207520613,-0.07932562334392623,0.9342679130980862,-0.9654632164389791,3.6741223122853333,-0.25033252974256887,no_tremor
447,8993209,3.043,-0.04403157942728768,-0.07961920869009387,0.9344394505426193,-0.9581073644918435,3.747470216002091,-0.20133292692454385,no_tremor
448,8993214,3.048,-0.044142158258886954,-0.07989857885155699,0.9346232823215251,-0.9573099495481587,3.819072133490142,-0.15530597219490713,no_tremor
449,8993219,3.053,-0.04427531066623196,-0.08016343303330555,0.9348153054855043,-0.9628002682661562,3.888413923352994,-0.11253718089807173,no_tremor
450,8993223,3.057,-0.044431433775124214,-0.0804135838079783,0.935011709080691,-0.9742696165397092,3.954991439190627,-0.0732740182707653,no_tremor
451,8993228,3.062,-0.044610750069267756,-0.08064894885883431,0.9352089804727415,-0.9913767355385367,4.0183154235975564,-0.03772520994999004,no_tremor
452,8993233,3.067,-0.044813299816344035,-0.080869542408112,0.9354039079791664,-1.013753082684358,4.07791622024973,-0.006060422342778592,no_tremor
453,8993238,3.072,-0.045038935859964914,-0.08107546653461288,0.9355935801440451,-1.0410078936589242,4.1333482594994075,0.021589681005750136,no_tremor
454,8993243,3.077,-0.04528732099936308,-0.08126690258404225,0.935775382009985,-1.0727330029305886,4.184194266268148,0.0451330071912677,no_tremor
455,8993248,3.082,-0.045557928114510926,-0.0814441028638995,0.9359469887470042,-1.1085073928107863,4.230069136016094,0.06451523308826967,no_tremor
456,8993252,3.086,-0.0458500431169007,-0.08160738279238006,0.9361063569896421,-1.1479014450407077,4.270623425570173,0.07971865074887098,no_tremor
457,8993257,3.091,-0.04616277072116966,-0.08175711363963473,0.936251714216042,-1.1904808740776769,4.3055464106423225,0.09076068158280412,no_tremor
458,8993262,3.096,-0.046495042946264206,-0.08189371596235039,0.9363815464808578,-1.2358103273449768,4.334568670715547,0.09769208874699872,no_tremor
459,8993267,3.101,-0.046845630172815414,-0.08201765379191463,0.9364945847927507,-1.2834566446860187,4.357464173643181,0.10059492333941732,no_tremor
460,8993297,3.131,-0.04721315451091517,-0.08212942959547818,0.936589790411647,-1.332991776669294,4.374051845049731,0.09958024595230781,no_tremor
461,8993301,3.135,-0.047596105173350375,-0.08222957999082366,0.9366663393336117,-1.3839953679454808,4.384196619525473,0.09478567116710086,no_tremor
462,8993306,3.14,-0.047992855505850744,-0.08231867216206898,0.9367236062313257,-1.436057016199702,4.387809980269032,0.08637278756444147,no_tremor
463,8993311,3.145,-0.04840168129856081,-0.08239730089468456,0.9367611481207978,-1.488778219210794,4.384850000911896,0.07452450730666275,no_tremor
464,8993316,3.15,-0.048820779990647455,-0.08246608612496188,0.9367786880234946,-1.541774023472115,4.375320908589645,0.059442395374260854,no_tremor
465,8993321,3.155,-0.04924829038068714,-0.08252567088066788,0.9367760988829784,-1.5946743893539783,4.359272192175923,0.04134401974495348,no_tremor
466,8993326,3.16,-0.04968231246733629,-0.08257671947644613,0.9367533879755987,-1.647125290358583,4.336797284640742,0.02046035330688445,no_tremor
467,8993330,3.164,-0.050120927066507816,-0.08261991582059537,0.936710682027809,-1.6987895670303668,4.3080318535553666,-0.002966750520466954,no_tremor
468,8993335,3.169,-0.050562214882050226,-0.0826559616905719,0.9366482132213855,-1.7493475589055494,4.273151738370431,-0.028686992059138473,no_tremor
469,8993340,3.174,-0.051004274745907886,-0.08268557484422356,0.9365663062353217,-1.7984975402047834,4.232370576972261,-0.05644395610989315,no_tremor
470,8993345,3.179,-0.05144524078964919,-0.08270948685310454,0.9364653664420248,-1.8459559865576771,4.185937166985623,-0.08597732774741883,no_tremor
471,8993350,3.184,-0.05188329836013545,-0.0827284405730379,0.9363458693472418,-1.89145770084803,4.134132608850555,-0.1170249840368032,no_tremor
472,8993360,3.194,-0.05231669854530937,-0.0827431872039855,0.9362083513382922,-1.9347558265219342,4.077267277142058,-0.1493249550980143,no_tremor
473,8993369,3.203,-0.05274377122832106,-0.08275448293351169,0.9360534017826153,-1.9756217764868733,4.015677663571934,-0.18261725006416907,no_tremor
474,8993375,3.209,-0.05316293663573892,-0.08276308520157526,0.9358816564958629,-2.0138451046852173,3.9497231300399944,-0.21664554450273327,no_tremor
475,8993379,3.213,-0.05357271538463454,-0.08276974866378124,0.9356937925722653,-2.049233345167062,3.8797826041494,-0.25115872594067506,no_tremor
476,8993384,3.218,-0.05397173706105017,-0.08277522096003714,0.935490524536504,-2.0816118400330654,3.8062512443579313,-0.28591229429290493,no_tremor
477,8993389,3.223,-0.054358747378071955,-0.08278023841161561,0.9352726017344568,-2.1108235731858698,3.7295370987520773,-0.32066961551914547,no_tremor
478,8993414,3.248,-0.0547326139673817,-0.08278552177046415,0.9350408068315957,-2.136729021598496,3.650057780582245,-0.35520303023826255,no_tremor
479,8993419,3.253,-0.05509233085765325,-0.08279177213177472,0.9347959552371923,-2.1592060302274323,3.568237184212516,-0.38929482351333394,no_tremor
480,8993429,3.263,-0.05543702169114146,-0.08279966709834265,0.9345388952273473,-2.1781497116996342,3.4845022654402324,-0.42273806593296276,no_tremor
481,8993434,3.268,-0.05576594173020598,-0.08280985725854155,0.9342705085094126,-2.1934723683389405,3.3992799090176633,-0.45533733811863275,no_tremor
482,8993439,3.273,-0.05607847870993049,-0.08282296301403806,0.9339917109619513,-2.205103431966848,3.3129939035526577,-0.4869093508557875,no_tremor
483,8993444,3.278,-0.05637415260009414,-0.08283957177202701,0.9337034532998256,-2.212989415415522,3.226062040755001,-0.5172834722514861,no_tremor
484,8993448,3.282,-0.05665261434648635,-0.0828602355008215,0.9334067214491027,-2.217093868161379,3.1388933536663,-0.5463021725989948,no_tremor
485,8993453,3.287,-0.05691364366542062,-0.08288546863661016,0.9331025364638651,-2.217397327066653,3.0518855083688172,-0.5738213970905895,no_tremor
486,8993458,3.292,-0.05715714596559197,-0.08291574632212699,0.9327919538691046,-2.2138972524293488,2.965422366352039,-0.5997108759687001,no_tremor
487,8993463,3.297,-0.05738314846907899,-0.08295150295396402,0.9324760623643147,-2.2066079395028115,2.879871739657199,-0.6238543811042787,no_tremor
488,8993468,3.302,-0.05759179560009516,-0.0829931310136091,0.9321559818663934,-2.195560396008685,2.795583366284762,-0.6461499372122443,no_tremor
489,8993473,3.307,-0.057783343707891024,-0.08304098015753505,0.9318328609047867,-2.180802176657961,2.7128871367260863,-0.6665099946391403,no_tremor
490,8993478,3.312,-0.057958155190379175,-0.08309535654343994,0.9315078734045972,-2.1623971663282995,2.6320916020587344,-0.6848615686635466,no_tremor
491,8993483,3.317,-0.058116692088192985,-0.08315652237269883,0.9311822149041531,-2.1404253042988732,2.5534827895348298,-0.7011463473714806,no_tremor
492,8993492,3.326,-0.05825950922463225,-0.08322469563281518,0.9308570982530595,-2.1149822424923195,2.4773233439305877,-0.7153207661226685,no_tremor
493,8993497,3.331,-0.05838724697384195,-0.08330005002761391,0.9305337488271691,-2.0861789306582215,2.4038520031160475,-0.7273560414304107,no_tremor
494,8993502,3.336,-0.058500623745114694,-0.08338271508639562,0.9302133992817505,-2.05414112089111,2.3332834049572906,-0.7372381517200256,no_tremor
495,8993507,3.341,-0.05860042827234478,-0.0834727764454548,0.9298972838481404,-2.0190087832123607,2.2658082105628106,-0.7449677486735533,no_tremor
496,8993512,3.346,-0.0586875117917896,-0.08357027629549325,0.929586632167385,-1.980935423642963,2.2015935173660397,-0.7505599821656492,no_tremor
497,8993537,3.371,-0.05876278017730487,-0.08367521398609219,0.9292826626511107,-1.9400872968457659,2.1407835261894186,-0.7540442242501187,no_tremor
498,8993542,3.376,-0.058827186081193056,-0.08378754677374783,0.9289865753678699,-1.896642507710115,2.083500420584652,-0.7554636819690812,no_tremor
499,8993547,3.381,-0.05888172110440296,-0.08390719069422295,0.9286995444732667,-1.8507900003682398,2.0298454148069376,-0.7548748932791222,no_tremor
500,8993551,3.385,-0.058927407997794744,-0.08403402153532977,0.9284227102325466,-1.8027284383312958,1.9798999278475782,-0.7523471043102137,no_tremor
501,8993561,3.395,-0.058965292882166745,-0.08416787588518176,0.9281571707208305,-1.7526649846209879,1.9337268433691919,-0.747961529668874,no_tremor
502,8993566,3.4,-0.05899643747158792,-0.08430855223493391,0.9279039733230557,-1.7008139952440036,1.8913718181591692,-0.7418105009731844,no_tremor
503,8993571,3.405,-0.05902191129167397,-0.08445581212402983,0.9276641061872849,-1.6473956428608338,1.8528646050830127,-0.7339965124162773,no_tremor
504,8993576,3.41,-0.05904278389909607,-0.0846093813286844,0.927438489806985,-1.5926344899266984,1.8182203609535568,-0.724631175976868,no_tremor
505,8993581,3.415,-0.05906011712767058,-0.08476895110880343,0.927227968917743,-1.5367580317113865,1.787440914748786,-0.7138341029472274,no_tremor
506,8993586,3.42,-0.05907495740703605,-0.08493417954271734,0.9270333048914888,-1.4799952292488265,1.7605159760464872,-0.7017317320754239,no_tremor
507,8993595,3.429,-0.05908832821985717,-0.08510469299114146,0.9268551687982701,-1.4225750507798958,1.7374242667264346,-0.6884561263484764,no_tremor
508,8993600,3.434,-0.059101222780753734,-0.08528008774018563,0.9266941352846502,-1.3647250385809286,1.718134561216823,-0.6741437592290446,no_tremor
509,8993605,3.439,-0.059114597033015616,-0.08545993187693224,0.926550677391933,-1.3066699169565414,1.7026066226224477,-0.6589343076332005,no_tremor
510,8993610,3.444,-0.05912936306621533,-0.08564376744950869,0.9264251624096266,-1.2486302565884129,1.690792024703803,-0.642969464805956,no_tremor
511,8993620,3.454,-0.05914638305824879,-0.08583111295681484,0.9263178488323023,-1.1908212100194617,1.6826348534790996,-0.6263917826571367,no_tremor
512,8993624,3.458,-0.0591664638390652,-0.0860214662019956,0.9262288844628697,-1.1334513327000146,1.6780722875256806,-0.6093435501683586,no_tremor
513,8993629,3.463,-0.059190352160878604,-0.08621430752980672,0.92615830568292,-1.0767215036622841,1.6770350622910886,-0.591965711902677,no_tremor
514,8993635,3.469,-0.059218730741643875,-0.08640910345285382,0.9261060378911686,-1.0208239591708044,1.6794478293483024,-0.5743968282238472,no_tremor
515,8993661,3.495,-0.05925221512570999,-0.0866053106567392,0.9260718970937262,-0.9659414511795525,1.6852294253110862,-0.5567720765567641,no_tremor
516,8993666,3.5,-0.059291351378834255,-0.08680238036029929,0.9260555926145311,-0.9122465399232552,1.6942930670968996,-0.5392222913549942,no_tremor
517,8993676,3.51,-0.05933661460606659,-0.08699976299445542,0.9260567308806681,-0.8599010265453444,1.7065464908964894,-0.5218730401354348,no_tremor
518,8993680,3.514,-0.05938840825351273,-0.08719691315117399,0.9260748202257437,-0.8090555274425979,1.7218920515033358,-0.5048437344045578,no_tremor
519,8993685,3.519,-0.05944706413234944,-0.08739329474191933,0.926109276645036,-0.7598491871343881,1.7402267963339804,-0.48824677728046834,no_tremor
520,8993690,3.524,-0.059512843088663996,-0.08758838629244316,0.9261594304279978,-0.7124095213006649,1.7614425250766643,-0.472186753363197,no_tremor
521,8993700,3.534,-0.059585936237041,-0.08778168628803167,0.9262245335853162,-0.6668523768202976,1.7854258424615204,-0.45675967002585155,no_tremor
522,8993705,3.539,-0.05966646667888717,-0.087972718471121,0.9263037679775199,-0.6232819918738377,1.8120582086356392,-0.4420522620632763,no_tremor
523,8993710,3.544,-0.0597544916365426,-0.08816103698256296,0.9263962540392287,-0.5817911369886187,1.8412159889854598,-0.42814137311843603,no_tremor
524,8993715,3.549,-0.05985000494881089,-0.088346231230185,0.9265010599777761,-0.5424613175467838,1.8727705031414068,-0.4150934273724246,no_tremor
525,8993720,3.554,-0.0599529398898828,-0.08852793036513172,0.9266172113083901,-0.5053630194139636,1.9065880717581059,-0.4029640038496597,no_tremor
526,8993725,3.559,-0.0600631722890002,-0.08870580724884343,0.9267437005724752,-0.470555981128394,1.9425300595098671,-0.39179752384033484,no_tremor
527,8993729,3.563,-0.06018052394030967,-0.0888795818016841,0.926879497073185,-0.4380894778969041,1.9804529131246855,-0.381627059661223,no_tremor
528,8993734,3.568,-0.06030476629966554,-0.0890490236377588,0.9270235564556957,-0.40800260457356063,2.0202081939553365,-0.37247427020762736,no_tremor
529,8993739,3.573,-0.060435624467037354,-0.08921395390853744,0.9271748299602994,-0.38032454734255977,2.061642605852121,-0.3643494655781209,no_tremor
530,8993744,3.578,-0.06057278144984262,-0.08937424629950325,0.9273322731859583,-0.3550748373074996,2.104598021380466,-0.3572517998463532,no_tremor
531,8993749,3.583,-0.06071588269477817,-0.08952982714803889,0.9274948542209286,-0.33226358337085177,2.1489115126248506,-0.35116958804332304,no_tremor
532,8993753,3.587,-0.06086454086483003,-0.08968067467596771,0.9276615610253391,-0.31189168590704924,2.1944153961655464,-0.3460807406593477,no_tremor
533,8993758,3.592,-0.06101834082561083,-0.08982681735541909,0.9278314079872642,-0.2939510360389202,2.240937304461953,-0.34195330670779484,no_tremor
534,8993784,3.618,-0.06117684479258191,-0.0899683314508713,0.9280034416171655,-0.27842470757155324,2.2883002976948887,-0.33874611493335344,no_tremor
535,8993789,3.623,-0.0613395975797997,-0.09010533780226848,0.9281767453926828,-0.26528714996272684,2.3363230316099446,-0.33640950217324544,no_tremor
536,8993799,3.633,-0.0615061318837975,-0.09023799793294379,0.9283504438119521,-0.2545043913693955,2.384819998364473,-0.3348861180182807,no_tremor
537,8993804,3.638,-0.06167597353559873,-0.09036650958081194,0.9285237057525262,-0.2460342610745732,2.4336018584413375,-0.3341117954763215,no_tremor
538,8993809,3.643,-0.0618486466612162,-0.09049110176158677,0.928695747258016,-0.23982664048759558,2.4824758814413435,-0.3340164778892468,no_tremor
539,8993813,3.647,-0.062023678705463416,-0.09061202947910688,0.9288658338815728,-0.23582375101264205,2.5312465108651296,-0.3345251924917542,no_tremor
540,8993818,3.652,-0.062200605292084474,-0.09072956820113413,0.9290332827036543,-0.23396048508386338,2.5797160621264204,-0.335559060708638,no_tremor
541,8993823,3.657,-0.062378974910460884,-0.09084400821992235,0.9291974641137406,-0.2341647839585337,2.627685554538369,-0.3370363349384237,no_tremor
542,8993828,3.662,-0.06255835343111707,-0.09095564901552856,0.9293578034063246,-0.23635806321903005,2.6749556686817875,-0.33887345131452534,no_tremor
543,8993833,3.667,-0.06273832845577551,-0.09106479373583269,0.9295137821959538,-0.2404556848391094,2.7213278122884095,-0.3409860873645769,no_tremor
544,8993848,3.682,-0.06291851350122914,-0.09117174389988893,0.9296649396099653,-0.24636747324576197,2.766605271381133,-0.3432902122577847,no_tremor
545,8993858,3.692,-0.06309855199997286,-0.09127679441996692,0.929810873176606,-0.25399827210776266,2.8105944188273457,-0.34570311579253854,no_tremor
546,8993862,3.696,-0.06327812107667126,-0.09138022902224727,0.9299512392968311,-0.2632485385399482,2.853105949724719,-0.34814440127802654,no_tremor
547,8993867,3.701,-0.06345693503276953,-0.09148231612713748,0.9300857531766435,-0.27401497175745354,2.893956112624688,-0.350536927779897,no_tremor
548,8993872,3.706,-0.06363474844787721,-0.09158330522901931,0.9302141881077226,-0.28619117363364993,2.9329679077598487,-0.3528076890637641,no_tremor
549,8993877,3.711,-0.06381135879123484,-0.0916834237940613,0.9303363740169843,-0.29966833881994037,2.969972227993154,-0.35488861930543836,no_tremor
550,8993882,3.716,-0.06398660843251999,-0.09178287467574733,0.9304521952555661,-0.31433597173267813,3.0048089250642773,-0.3567173179743453,no_tremor
551,8993907,3.741,-0.06416038594898056,-0.0918818340327906,0.9305615876567478,-0.33008262646416536,3.0373277929039784,-0.35823768752031626,no_tremor
552,8993912,3.746,-0.06433262664437737,-0.09198044972437762,0.9306645349517135,-0.34679666340064186,3.067389470597125,-0.3594004781419707,no_tremor
553,8993917,3.751,-0.06450331222243424,-0.09207884015387417,0.9307610646822398,-0.3643670134017948,3.0948662778616822,-0.36016373506210814,no_tremor
554,8993922,3.756,-0.06467246959045375,-0.09217709353402884,0.9308512437810593,-0.38268393781062277,3.11964300272417,-0.360493145733544,no_tremor
555,8993926,3.76,-0.06484016880378346,-0.09227526755302208,0.9309351739981023,-0.4016397713856146,3.1416176624184886,-0.3603622866108371,no_tremor
556,8993936,3.77,-0.06500652019513097,-0.09237338942915725,0.9310129873348756,-0.4211296356160409,3.160702254654232,-0.3597527708153986,no_tremor
557,8993941,3.775,-0.06517167076101937,-0.09247145634994096,0.9310848416164533,-0.4410521107743736,3.1768235090640764,-0.35865429908479135,no_tremor
558,8993946,3.78,-0.06533579989833016,-0.09256943629637751,0.9311509162898501,-0.461309855430401,3.1899236395782293,-0.3570646169868212,no_tremor
559,8993951,3.785,-0.06549911459513816,-0.09266726925375551,0.931211408497209,-0.4818101621231574,3.199961088868614,-0.3549893813288277,no_tremor
560,8993960,3.794,-0.06566184418135133,-0.09276486880518889,0.931266529438541,-0.5024654383511978,3.2069112468891703,-0.35244193789448536,no_tremor
561,8993965,3.799,-0.065824234737075,-0.09286212409396165,0.9313165010152185,-0.5231936033204277,3.210767118071935,-0.34944301172769937,no_tremor
562,8993970,3.804,-0.06598654324282013,-0.09295890212675664,0.9313615527329824,-0.5439183925089579,3.211539907199673,-0.34602031111780435,no_tremor
563,8993975,3.809,-0.06614903153954042,-0.09305505037443935,0.9314019188408025,-0.5645695637151044,3.2092594933112673,-0.34220804746487654,no_tremor
564,8993980,3.814,-0.06631196015211702,-0.09315039961283864,0.9314378356871055,-0.5850830000175616,3.2039747639108325,-0.3380463746850711,no_tremor
565,8993984,3.818,-0.06647558202063018,-0.09324476693519115,0.9314695392846642,-0.6054007073093196,3.1957537865429537,-0.333580753073283,no_tremor
566,8993989,3.823,-0.06664013618156199,-0.09333795886213547,0.931497263086774,-0.6254707069907924,3.1846837996080475,-0.3288612434613113,no_tremor
567,8993994,3.828,-0.0668058414467106,-0.09342977447507347,0.931521235987744,-0.6452468281857255,3.170871008313484,-0.3239417383349747,no_tremor
568,8993999,3.833,-0.06697289014080691,-0.09352000850429709,0.9315416805683935,-0.6646884083454282,3.1544401749566435,-0.31887913744990315,no_tremor
569,8994004,3.838,-0.0671414419784701,-0.09360845431369527,0.9315588116111079,-0.6837599156092448,3.1355339954893378,-0.31373247643438257,no_tremor
570,8994029,3.863,-0.06731161818519259,-0.09369490673760704,0.9315728349086472,-0.7024305098172717,3.1143122565654635,-0.30856201787530085,no_tremor
571,8994034,3.868,-0.06748349599235509,-0.09377916474027252,0.9315839463864833,-0.7206735611327301,3.090950769130245,-0.3034283152764482,no_tremor
572,8994039,3.873,-0.06765710365827055,-0.09386103388148953,0.9315923315505733,-0.7384661458934945,3.065640076253329,-0.2983912608963484,no_tremor
573,8994044,3.878,-0.0678324161804898,-0.09394032858048872,0.9315981652620625,-0.7557885386392146,3.0385839345821157,-0.2935091291163994,no_tremor
574,8994049,3.883,-0.06800935186475429,-0.09401687417172745,0.9316016118284209,-0.7726237172623432,3.009997571000156,-0.28883762814651365,no_tremor
575,8994054,3.888,-0.06818776990196011,-0.0940905087413582,0.9316028253878964,-0.7889568954643403,2.9801057195562772,-0.2844289744649768,no_tremor
576,8994059,3.893,-0.06836746907855974,-0.0941610847237261,0.9316019505518619,-0.8047750942381147,2.9491404490423805,-0.28033100594502486,no_tremor
577,8994064,3.898,-0.06854818771190767,-0.09422847022775231,0.9315991232587225,-0.8200667625555098,2.9173387990065676,-0.2765863511333085,no_tremor
578,8994068,3.902,-0.06872960486422998,-0.09429255006041645,0.9315944717847475,-0.8348214564684088,2.884940251621374,-0.2732316739882639,no_tremor
579,8994073,3.907,-0.06891134285075477,-0.09435322642552889,0.9315881178527599,-0.8490295848677727,2.852184078291952,-0.27029701540068435,no_tremor
580,8994078,3.912,-0.06909297102197513,-0.09441041930083975,0.9315801777799287,-0.8626822290636545,2.8193066117162906,-0.26780525411464706,no_tremor
581,8994083,3.917,-0.06927401076894897,-0.09446406652718196,0.9315707636111975,-0.8757710420632491,2.786538504206174,-0.26577170942120526,no_tremor
582,8994088,3.922,-0.06945394167465985,-0.09451412366997955,0.9315599841944242,-0.8882882313787098,2.7541020398713942,-0.2642039059980523,no_tremor
583,8994097,3.931,-0.06963220871321621,-0.09456056373114378,0.9315479461656223,-0.9002266258108491,2.7222085710164485,-0.26310151761516076,no_tremor
584,8994102,3.936,-0.06980823038047033,-0.09460337679772864,0.9315347548254214,-0.9115798220444243,2.6910561471652295,-0.2624565010506637,no_tremor
585,8994116,3.95,-0.06998140762212107,-0.09464256971329298,0.931520514897976,-0.9223424018070361,2.6608273977010133,-0.2622534241979319,no_tremor
586,8994126,3.96,-0.07015113340574014,-0.0946781658485859,0.9315053311674145,-0.9325102054863111,2.63168771600317,-0.2624699829880211,no_tremor
587,8994156,3.99,-0.0703168027591423,-0.09471020502945418,0.9314893089813857,-0.9420806437409416,2.6037837755057525,-0.2630776912341783,no_tremor
588,8994161,3.995,-0.07047782306910105,-0.09473874365210723,0.9314725545957475,-0.9510530250075367,2.57724238917619,-0.2640427175334507,no_tremor
589,8994166,4.0,-0.07063362440565545,-0.09476385498153042,0.9314551753133488,-0.9594288745834434,2.552169707236958,-0.26532683576618954,no_tremor
590,8994171,4.005,-0.07078366961571346,-0.09478562959278405,0.9314372793525215,-0.9672122210706621,2.5286507367776667,-0.2668884516461201,no_tremor
591,8994180,4.014,-0.0709274639223684,-0.09480417588275347,0.9314189753771017,-0.9744098288402776,2.506749162559676,-0.26868366730501303,no_tremor
592,8994185,4.019,-0.07106456377564833,-0.09481962055557472,0.9314003716342655,-0.9810313604304643,2.486507449706493,-0.2706673482518984,no_tremor
593,8994190,4.024,-0.07119458472366756,-0.09483210897002525,0.9313815746772528,-0.9870894593040577,2.4679472133561497,-0.27279416094826586,no_tremor
594,8994195,4.029,-0.07131720810563995,-0.0948418052318107,0.9313626876911558,-0.9925997496952432,2.4510698447611627,-0.27501955352299284,no_tremor
595,8994200,4.034,-0.0714321864057786,-0.09484889191752931,0.9313438084844465,-0.9975807551458028,2.435857385849834,-0.2773006561801824,no_tremor
596,8994204,4.038,-0.07153934714689483,-0.0948535693293714,0.9313250272507846,-1.0020537403611594,2.4222736444521233,-0.279597081640309,no_tremor
597,8994209,4.043,-0.0716385952427836,-0.09485605419909302,0.9313064242402698,-1.006042482811879,2.41026554077222,-0.2818716099333281,no_tremor
598,8994214,4.048,-0.07172991376825344,-0.09485657778506094,0.9312880675034332,-1.00957298219947,2.399764673194214,-0.28409074634678955,no_tremor
599,8994219,4.053,-0.07181336314440033,-0.09485538333577402,0.9312700108827858,-1.0126731180874307,2.390689088975166,-0.28622514618952827,no_tremor
600,8994224,4.058,-0.07188907877416663,-0.09485272292588091,0.9312522924245402,-1.0153722681031612,2.3829452429923985,-0.2882499049777015,no_tremor
601,8994229,4.063,-0.07195726719917607,-0.09484885370507169,0.9312349333669846,-1.017700900135139,2.3764301248770594,-0.2901447176168541,no_tremor
602,8994234,4.068,-0.07201820088300886,-0.09484403363511464,0.931217937832541,-1.0196901516409114,2.3710335307437096,-0.29189391510340784,no_tremor
603,8994238,4.072,-0.07207221175799135,-0.0948385168245742,0.9312012933092352,-1.021371408146219,2.3666404496637,-0.2934863917769713,no_tremor
604,8994243,4.077,-0.07211968370146243,-0.09483254860324168,0.9311849719564166,-1.022775891756819,2.36313352655345,-0.2949154393549529,no_tremor
605,8994248,4.082,-0.07216104413234196,-0.09482636050791994,0.9311689327120902,-1.0239342690644009,2.360395552077342,-0.29617850491375575,no_tremor
606,8994273,4.107,-0.07219675493857446,-0.09482016537679464,0.931153124118638,-1.024876286279607,2.3583119171832125,-0.29727688809222275,no_tremor
607,8994278,4.112,-0.07222730295970797,-0.09481415276975878,0.9311374877240648,-1.0256304379971841,2.3567729569918643,-0.29821538836713823,no_tremor
