sample,t_ms,t_s,ax,ay,az,gx,gy,gz,tremor
0,8959920,0.0,-0.21292899017440034,-0.1753319872015772,-1.0110228905609953,0.6720968004471456,4.07824550804954,-0.6457676734644389,no_tremor
1,8959925,0.005,-0.21284761989008696,-0.17538660612449375,-1.011074089228564,0.7433085134492102,4.088945120924129,-0.6641923191075448,no_tremor
2,8959930,0.01,-0.2127306804370813,-0.17546100579185714,-1.011144781796678,0.8124684481542186,4.0967023588768265,-0.6815865887803058,no_tremor
3,8959935,0.015,-0.21257258745533386,-0.1755561549489319,-1.0112365420487166,0.8792239573358374,4.100830930634321,-0.6977787322494948,no_tremor
4,8959940,0.02,-0.2123735738497439,-0.1756692128827384,-1.0113473649688944,0.9432309251261551,4.100615173811059,-0.7125986673472824,no_tremor
5,8959944,0.024,-0.21213759323620499,-0.1757954675044052,-1.0114733560683054,1.004156490444396,4.0953153248575065,-0.7258796424733552,no_tremor
6,8959949,0.029,-0.21186996543892903,-0.17593004045210922,-1.011610294385998,1.0616816802914013,4.084173512909284,-0.737459975449456,no_tremor
7,8959954,0.034,-0.2115759409017697,-0.17606875171182038,-1.0117544599840589,1.1155039251715366,4.06642047236059,-0.7471848554867037,no_tremor
8,8959959,0.039,-0.21126012196056118,-0.17620835452448705,-1.0119028848625309,1.1653394341044312,4.041282961257016,-0.7549081919025491,no_tremor
9,8959964,0.044,-0.21092638563266503,-0.17634645879325156,-1.0120533067313946,1.2109254109017042,4.007991863705471,-0.7604944914220794,no_tremor
10,8959994,0.074,-0.21057801825868017,-0.17648135526024367,-1.0122040199993787,1.2520220964799444,3.965790944530898,-0.7638207455268333,no_tremor
11,8959999,0.079,-0.2102179011852864,-0.17661184097854474,-1.0123537196244892,1.2884146239114678,3.913946214025461,-0.764778309839801,no_tremor
12,8960003,0.083,-0.20984867872054894,-0.1767370797868582,-1.012501372190605,1.3199146736469944,3.85175585012505,-0.7632747582154626,no_tremor
13,8960008,0.088,-0.20947288791387955,-0.17685650124859947,-1.0126461198377419,1.3463619164210594,3.778560614381787,-0.7592356945060863,no_tremor
14,8960013,0.093,-0.2090930502322416,-0.17696973115915485,-1.012787212237223,1.3676252318313222,3.6937546863798496,-0.7526065047107877,no_tremor
15,8960018,0.098,-0.2087117318378363,-0.17707654501436082,-1.0129239595912898,1.383603692125045,3.5967968291237145,-0.7433540314246719,no_tremor
16,8960023,0.103,-0.2083315799690619,-0.17717683711100154,-1.0130557004221201,1.394227303134822,3.487221786249439,-0.7314681513530041,no_tremor
17,8960028,0.108,-0.2079553417434932,-0.17727059983601362,-1.0131817794299194,1.3994574971784124,3.364651801257854,-0.7169632353799015,no_tremor
18,8960033,0.113,-0.20758587014576313,-0.17735790936870396,-1.0133015321175676,1.3992873762211668,3.228808139457082,-0.6998794694981014,no_tremor
19,8960037,0.117,-0.2072261205977289,-0.17743891527995956,-1.013414273982562,1.393741708250305,3.0795224850674714,-0.6802840138891869,no_tremor
20,8960047,0.127,-0.20687914046518624,-0.17751383239623264,-1.0135192928694254,1.3828766857494352,2.91674807929573,-0.6582719765596462,no_tremor
21,8960052,0.132,-0.20654805311217875,-0.1775829338912087,-1.01361584362263,1.3667794615153894,2.740570460180259,-0.6339671772528949,no_tremor
22,8960057,0.137,-0.20623603760729198,-0.17764654495870447,-1.013703144549771,1.3455674823739814,2.551217661459908,-0.6075226772507634,no_tremor
23,8960061,0.141,-0.20594630485332416,-0.17770503667244752,-1.0137803754515922,1.3193876447118393,2.3490697255615975,-0.5791210517044548,no_tremor
24,8960066,0.146,-0.20568207070157488,-0.177758819799361,-1.0138466771382724,1.2884152975381606,2.134667384875706,-0.5489743835396766,no_tremor
25,8960071,0.151,-0.20544652648669315,-0.1778083384354045,-1.0139011524563857,1.2528531202661917,1.9087197652555168,-0.5173239616489218,no_tremor
26,8960086,0.166,-0.20524280735002423,-0.17785406339864887,-1.0139428689155503,1.2129299043958741,1.6721109657414759,-0.4844396709601304,no_tremor
27,8960090,0.17,-0.20507395868896075,-0.17789648535719718,-1.0139708630394417,1.1688992705214682,1.4259053691240262,-0.450619067898663,no_tremor
28,8960115,0.195,-0.20494290106284854,-0.17793610769867194,-1.0139841465798685,1.121038353688594,1.1713515397262115,-0.4161861409573949,no_tremor
29,8960124,0.204,-0.20485239389251464,-0.17797343916867633,-1.0139817147294312,1.0696464904460008,0.9098845682354787,-0.3814897615591188,no_tremor
30,8960134,0.214,-0.20480499830372487,-0.17800898632117887,-1.0139625564508763,1.015043939998396,0.6431267290877215,-0.34690183481134357,no_tremor
31,8960139,0.219,-0.20480303948085518,-0.1780432458362428,-1.0139256670122292,0.9575706700354766,0.3728863244130152,-0.3128151633258391,no_tremor
32,8960144,0.224,-0.20484856891378322,-0.17807669677132504,-1.0138700627790715,0.897585235062718,0.10115459999055405,-0.27964103987189654,no_tremor
33,8960148,0.228,-0.2049433269374146,-0.17810979282236994,-1.0137947982718414,0.8354637705702922,-0.16989936780159243,-0.24780658566728045,no_tremor
34,8960153,0.233,-0.2050887059783879,-0.1781429546804436,-1.0136989854492977,0.7715991191815716,-0.43793590065015375,-0.21775185042439715,no_tremor
35,8960158,0.238,-0.20528571493618067,-0.17817656257849912,-1.0135818151311198,0.7064000951755356,-0.7004541348381621,-0.18992668881015384,no_tremor
36,8960163,0.243,-0.20553494513470028,-0.1782109491304923,-1.0134425804242013,0.6402908832445943,-0.9548036843694023,-0.16478742731262494,no_tremor
37,8960167,0.247,-0.2058365382840933,-0.17824639257078503,-1.013280701969392,0.5737105584946293,-1.1981985976958145,-0.14279333655058843,no_tremor
38,8960173,0.253,-0.20619015688976244,-0.17828311050493562,-1.0130957547789112,0.5071127092769365,-1.4277336457165881,-0.12440292640795947,no_tremor
39,8960178,0.258,-0.2065949575357609,-0.17832125428310175,-1.0128874963900034,0.44096514283826205,-1.640402970831352,-0.11007008395215112,no_tremor
40,8960182,0.262,-0.20704956745277076,-0.1783609041041157,-1.0126558960181684,0.3757496551124893,-1.8331211180324776,-0.10024007637942689,no_tremor
41,8960187,0.267,-0.20755206475731577,-0.17840206495182528,-1.0124011643539879,0.31196184853364445,-2.0027464565748807,-0.09534544371769879,no_tremor
42,8960207,0.287,-0.20809996271989778,-0.17844466345580964,-1.0121237836116144,0.25011098363617745,-2.1461069825397208,-0.09580180946626267,no_tremor
43,8960212,0.292,-0.2086901983876034,-0.17848854575671838,-1.011824537404773,0.19071985041677003,-2.2600284674906312,-0.10200364166574391,no_tremor
44,8960236,0.316,-0.20931912585523374,-0.1785334764433036,-1.0115045399979832,0.1343246443151852,-2.3413648864667316,-0.11432000090707764,no_tremor
45,8960241,0.321,-0.20998251445294316,-0.17857913861507657,-1.0111652644567708,0.08147483024637182,-2.3870310216523536,-0.13309031408017163,no_tremor
46,8960251,0.331,-0.21067555210047678,-0.1786251351126561,-1.010808569201038,0.03273297719592584,-2.394037100802496,-0.15862021244622143,no_tremor
47,8960260,0.34,-0.21139285406582023,-0.1786709909479445,-1.010436722450939,-0.011325454147990036,-2.359525298039729,-0.19117747017352482,no_tremor
48,8960265,0.345,-0.2121284773519408,-0.17871615695816653,-1.0100524240456583,-0.050112387592704116,-2.280807902536011,-0.23098807608065816,no_tremor
49,8960270,0.35,-0.21287594091098927,-0.17876001470084493,-1.0096588241139488,-0.08302748779403808,-2.1554069457528438,-0.278232468598983,no_tremor
50,8960275,0.355,-0.2136282518458537,-0.17880188259992794,-1.0092595380824672,-0.10945861357972528,-1.9810950646241021,-0.3330419627888151,no_tremor
51,8960280,0.36,-0.21437793770430574,-0.17884102334542973,-1.008858657524182,-0.12878238684070387,-1.7559373614231497,-0.3954953982370843,no_tremor
52,8960285,0.365,-0.2151170849054194,-0.17887665253918267,-1.0084607563735022,-0.14036489824478196,-1.4783339987492374,-0.4656160367980734,no_tremor
53,8960289,0.369,-0.2158373832681915,-0.17890794856707087,-1.0080708920654617,-0.14356257400480865,-1.1470632396721918,-0.5433687388165653,no_tremor
54,8960294,0.374,-0.2165301765456201,-0.17893406366327938,-1.0076946011912054,-0.13772323081643587,-0.7613246097348134,-0.6286574458511184,no_tremor
55,8960299,0.379,-0.21718651881006917,-0.17895413611495412,-1.0073378892992866,-0.12218734847995273,-0.32078182214737094,-0.7213229973121087,no_tremor
56,8960304,0.384,-0.21779723649142282,-0.1789673035368797,-1.00700721451059,-0.09628959120800192,0.17439492613485577,-0.8211413078596462,no_tremor
57,8960308,0.388,-0.21835299583943088,-0.1789727171261818,-1.0067094646533565,-0.05936060880272629,0.7234877088020077,-0.9278219318815141,no_tremor
58,8960313,0.393,-0.21884437556446942,-0.17896955678749718,-1.0064519276638817,-0.010729147447920959,1.325191119407511,-1.041007041215619,no_tremor
59,8960318,0.398,-0.21926194440353813,-0.17895704700029264,-1.006242255038696,0.05027550337405698,1.9775744761179814,-1.160270842752026,no_tremor
60,8960327,0.407,-0.21959634335628087,-0.1789344732827101,-1.0060884181666263,0.1243207063267709,2.678046452177102,-1.2851194633620922,no_tremor
61,8960332,0.412,-0.21983837233397033,-0.17890119909108174,-1.0059986574157145,0.21206729897883825,3.423322605386006,-1.4149913301711905,no_tremor
62,8960337,0.417,-0.21997908095712795,-0.17885668298178364,-1.0059814239026537,0.31416603612839356,4.209396277946763,-1.5492580742240578,no_tremor
63,8960363,0.443,-0.22000986321925037,-0.17880049585317326,-1.0060453139335312,0.43125365109750324,5.031513332458295,-1.687225985086172,no_tremor
64,8960367,0.447,-0.2199225557007361,-0.17873233808066125,-1.0061989961760838,0.563948541705442,5.8841511815961205,-1.8281380426360017,no_tremor
65,8960372,0.452,-0.21970953896692508,-0.17865205635769674,-1.0064511317055778,0.7128460924381922,6.761002557866392,-1.971176549811288,no_tremor
66,8960377,0.457,-0.21936384171854872,-0.1785596600591304,-1.0068102871571956,0.878513650968582,7.654964454639353,-2.1154663865329453,no_tremor
67,8960382,0.462,-0.2188792471852686,-0.17845533695004853,-1.007284841314353,1.0614851858429983,8.558132649054155,-2.260078901167581,no_tremor
68,8960392,0.472,-0.21825040116735991,-0.178339468071475,-1.0078828855611008,1.2622556628880774,9.461802190498139,-2.4040364519933246,no_tremor
69,8960396,0.476,-0.21747292104051105,-0.1782126416431238,-1.008612118724381,1.4812751896305534,10.356474205156017,-2.5463176066256836,no_tremor
70,8960406,0.486,-0.21654350494692223,-0.17807566583175735,-1.0094797369257469,1.7189429884445295,11.231869328402457,-2.6858630014968448,no_tremor
71,8960411,0.491,-0.21546004030469398,-0.17792958024111818,-1.0104923191504356,1.975601269329379,12.076948033979951,-2.821581856014139,no_tremor
72,8960415,0.495,-0.21422171067924012,-0.17777566598563682,-1.0116557093234868,2.251529081551384,12.879938083075524,-2.9523591271556318,no_tremor
73,8960430,0.51,-0.21282909997782926,-0.17761545421523298,-1.012974895757815,2.5469362294478275,13.628369267634456,-3.077063280432602,no_tremor
74,8960435,0.515,-0.21128429285423306,-0.17745073296281144,-1.0144538889081194,2.861957341693572,14.309115569805597,-3.1945546429797105,no_tremor
75,8960440,0.52,-0.20959097014752098,-0.17728355219000108,-1.016095598427506,3.1966461858604256,14.908444802645892,-3.3036942947280923,no_tremor
76,8960445,0.525,-0.20775449812938251,-0.17711622691099063,-1.0179017105805206,3.5509703213206762,15.412075735963024,-3.4033534447443583,no_tremor
77,8960450,0.53,-0.20578201029916665,-0.1769513382797974,-1.01987256711621,3.924806183202002,15.805242645708319,-3.4924232320797617,no_tremor
78,8960455,0.535,-0.20368248044519427,-0.1767917325337591,-1.0220070467465827,4.317934688276745,16.072767155902653,-3.5698248836174753,no_tremor
79,8960460,0.54,-0.20146678568400606,-0.17664051769606254,-1.0243024504078768,4.730037450706845,16.199137168394753,-3.634520154916656,no_tremor
80,8960484,0.564,-0.1991477581948663,-0.17650105795303578,-1.0267543915027606,5.160693691250855,16.16859259715559,-3.6855219733889304,no_tremor
81,8960489,0.569,-0.19674022438392952,-0.17637696563778796,-1.029356692329662,5.60937791726598,15.965217540400623,-3.721905195892892,no_tremor
82,8960494,0.574,-0.19426103024020905,-0.17627209077040357,-1.0321012879001725,6.075458442794417,15.57303843712614,-3.7428173849648503,no_tremor
83,8960499,0.579,-0.19172905168358775,-0.17619050812588602,-1.0349781383270427,6.558196809510263,14.976127666745928,-3.7474894999419766,no_tremor
84,8960504,0.584,-0.189165188754098,-0.17613650182382384,-1.0379751509345858,7.056748161627515,14.158711962903865,-3.7352463920033085,no_tremor
85,8960509,0.589,-0.1865923425529489,-0.176114547457682,-1.0410781132014097,7.570162621304112,13.10528492622694,-3.7055169864854696,no_tremor
86,8960514,0.594,-0.18403537392124264,-0.1761292918061619,-1.0442706375932433,8.097387704868275,11.8007228373052,-3.6578440324814276,no_tremor
87,8960518,0.598,-0.18152104293404644,-0.17618553019383465,-1.0475341192819883,8.63727181317318,10.230402892851565,-3.5918932990708488,no_tremor
88,8960523,0.603,-0.17907792839740536,-0.1762881815929382,-1.0508477076768121,9.188568820604127,8.380322917249815,-3.5074620991006737,no_tremor
89,8960528,0.608,-0.17673632666585748,-0.17644226158253695,-1.0541882926149775,9.749943776406264,6.2372215405310865,-3.404487024194321,no_tremor
90,8960533,0.613,-0.17452812924990097,-0.17665285330479918,-1.0575305059748634,10.319979719372006,3.7886977835839244,-3.2830507777925146,no_tremor
91,8960543,0.623,-0.17248667885823685,-0.17692507658046364,-1.0608467393814796,10.89718559304471,1.0233289529112226,-3.143387996358551,no_tremor
92,8960547,0.627,-0.1706466037193504,-0.17726405536595718,-1.0641071785754048,11.480005233937922,-2.069214279351765,-2.9858899527527227,no_tremor
93,8960552,0.632,-0.16904363025084565,-0.17767488375217358,-1.0672798549089797,12.066827390346834,-5.498056750267435,-2.811108040604167,no_tremor
94,8960557,0.637,-0.167714374391278,-0.17816259071859558,-1.0703307143182597,12.65599671464238,-9.271012783095845,-2.6197559445247696,no_tremor
95,8960562,0.642,-0.16669611217484068,-0.1787321038654022,-1.0732237039951402,13.245825657730125,-13.394486413327387,-2.4127104084197364,no_tremor
96,8960567,0.647,-0.16602653040950663,-0.17938821235011018,-1.0759208768504032,13.83460718062796,-17.873379000020908,-2.1910105233453208,no_tremor
97,8960571,0.651,-0.16574345860847398,-0.18013552925443813,-1.0783825137145402,14.420628184934177,-22.711005333006387,-1.9558554679600095,no_tremor
98,8960576,0.656,-0.16588458361714528,-0.18097845360222323,-1.0805672630689496,15.00218355150366,-27.909019300848996,-1.7086006492574475,no_tremor
99,8960581,0.661,-0.1664871486681274,-0.18192113224139628,-1.082432297936278,15.577590665006234,-33.467350115463006,-1.450752209341511,no_tremor
100,8960606,0.686,-0.16758763888108033,-0.18296742179320333,-1.0839334893870127,16.145204291060086,-39.38414999443153,-1.183959885457923,no_tremor
101,8960611,0.691,-0.16922145550112888,-0.18412085086083205,-1.085025595942774,16.703431662115886,-45.655754080234374,-0.9100082348980231,no_tremor
102,8960621,0.701,-0.1714225814398975,-0.18538458267811125,-1.0856624679793943,17.25074761848371,-52.276653229090215,-0.6308062629126918,no_tremor
103,8960626,0.706,-0.17422324094904643,-0.18676137836804257,-1.0857972660600945,17.785709642966438,-59.23948013803459,-0.3483755190752228,no_tremor
104,8960636,0.716,-0.17765355651725054,-0.18825356097191798,-1.085382691965088,18.3069726230547,-66.53500910604572,-0.06483675388020604,no_tremor
105,8960641,0.721,-0.18174120633218158,-0.18986298040404906,-1.0843712310302838,18.813303174634083,-74.15216955010206,0.2176047487312587,no_tremor
106,8960646,0.726,-0.18651108587780793,-0.1915909794860096,-1.0827154042639842,19.30359336564706,-82.07807322296433,0.49667502622197657,no_tremor
107,8960651,0.731,-0.1919849774300823,-0.19343836121894936,-1.0803680285767898,19.77687368609668,-90.298054906207,0.7700483240755339,no_tremor
108,8960656,0.736,-0.19818123135810578,-0.19540535746347734,-1.0772824833388455,20.232325120714865,-98.79572617738603,1.0353648404782703,no_tremor
109,8960670,0.75,-0.20511446322450605,-0.19749159921307327,-1.0734129813744466,20.669290191442162,-107.55304167115092,1.2902491373234688,no_tremor
110,8960675,0.755,-0.21279527070370244,-0.19969608866704713,-1.0687148424221464,21.08728284816616,-116.55037706937226,1.5323290077716076,no_tremor
111,8960685,0.765,-0.22122997429845198,-0.20201717333046845,-1.063144767033859,21.485997097732433,-125.76661786895706,1.7592545730636662,no_tremor
112,8960690,0.77,-0.23042038573386098,-0.20445252238946743,-1.0566611088625182,21.865314272075977,-135.1792577982062,1.9687173654645946,no_tremor
113,8960695,0.775,-0.2403636077456449,-0.20699910562997978,-1.049224143294876,22.22530884416958,-144.7645055965299,2.158469142586401,no_tremor
114,8960700,0.78,-0.25105186875831825,-0.20965317518644205,-1.0407963304207346,22.56625270254861,-154.49739874873055,2.326340174041969,no_tremor
115,8960705,0.785,-0.2624723956706615,-0.21241025042515138,-1.0313425703871182,22.888617789477568,-164.3519226779852,2.4702567466166077,no_tremor
116,8960731,0.811,-0.27460732762856005,-0.2152651062869524,-1.0208304492614604,23.193076994496113,-174.30113385000874,2.588257649396113,no_tremor
117,8960736,0.816,-0.28743367326230923,-0.21821176543862933,-1.0092304736200535,23.480503177839044,-184.317285229696,2.67850942503626,no_tremor
118,8960741,0.821,-0.3009233133834318,-0.22124349461556092,-0.9965162921860098,23.751966185764452,-194.3719525858055,2.7393202066665383,no_tremor
119,8960746,0.826,-0.3150430505578684,-0.22435280558222442,-0.9826649029629547,24.008727723632752,-204.4361602944847,2.7691519999017515,no_tremor
120,8960751,0.831,-0.32975470628664705,-0.22753146118963605,-0.9676568444436182,24.252233979702698,-214.4805055573873,2.7666313129494196,no_tremor
121,8960756,0.836,-0.3450152657370039,-0.23077048706081746,-0.951476369614185,24.484105940424207,-224.4752802856961,2.730558081555522,no_tremor
122,8960760,0.84,-0.3607770691011866,-0.23406018947367552,-0.9341116016247056,24.706127397342133,-234.39059024624825,2.659912877408128,no_tremor
123,8960770,0.85,-0.37698804775506856,-0.23739018002260265,-0.9155546701519897,24.92023070741599,-244.1964713733585,2.55386242772993,no_tremor
124,8960775,0.855,-0.3935920024896633,-0.2407494076167617,-0.8958018276407225,25.128480425834976,-253.86300339535828,2.411763509568453,no_tremor
125,8960780,0.86,-0.41052892024765036,-0.24412619831007482,-0.8748535447630721,25.33305497776566,-263.36042109633934,2.23316531373591,no_tremor
126,8960784,0.864,-0.42773532507123707,-0.2475083033553495,-0.8527145845744802,25.53622656861109,-272.65922362772193,2.0178103988689933,no_tremor
127,8960789,0.869,-0.44514465840828976,-0.2508829557365816,-0.8293940549520761,25.74033955006509,-281.7302823076136,1.7656343740053286,no_tremor
128,8960794,0.874,-0.462687683561999,-0.2542369352660957,-0.8049054389783922,25.947787464456884,-290.54494731240396,1.4767644577640717,no_tremor
129,8960803,0.883,-0.4802929089141456,-0.25755664214490476,-0.7792666029843722,26.16098898825799,-299.07515358926065,1.1515170649187358,no_tremor
130,8960813,0.893,-0.497887024597435,-0.2608281786826178,-0.752499782009182,26.38236299354182,-307.2935262109792,0.7903945693867493,no_tremor
131,8960818,0.898,-0.5153953475234693,-0.26403743866166485,-0.7246315424921256,26.614302950530135,-315.17348526416,0.394081388060791,no_tremor
132,8960828,0.908,-0.5327422700646389,-0.26717020360993987,-0.695692722106971,26.8591509127973,-322.6893502159821,-0.036560478514031026,no_tremor
133,8960856,0.936,-0.5498517082025218,-0.2702122450133251,-0.6657183468020966,27.11917136493559,-329.8164435515423,-0.5004963275583889,no_tremor
134,8960861,0.941,-0.566647545542049,-0.27314943125316327,-0.6347475253310849,27.396525267326986,-336.53119332089864,-0.9965239595764366,no_tremor
135,8960866,0.946,-0.5830540701937391,-0.27596783780191697,-0.6028233218289496,27.693244686695916,-342.8112340954179,-1.5232791396502026,no_tremor
136,8960870,0.95,-0.5989964020953374,-0.2786538589779021,-0.569992607253539,28.011208429226993,-348.6355057220185,-2.0792412783054273,no_tremor
137,8960875,0.955,-0.6144009088451317,-0.28119431938216205,-0.5363058907024552,28.352119080102987,-353.9843491870322,-2.6627393255893934,no_tremor
138,8960880,0.96,-0.6291956085377062,-0.2835765830466054,-0.5018171316940543,28.717481804569502,-358.8395988493625,-3.2719578961581903,no_tremor
139,8960885,0.965,-0.6433105584294685,-0.28578865832626055,-0.4665835344701794,29.108585198491397,-363.1846702615168,-3.904943659882962,no_tremor
140,8960894,0.974,-0.6566782285237965,-0.28781929666981465,-0.43066532526640167,29.5264844071461,-367.00464276006704,-4.559612041089587,no_tremor
141,8960899,0.979,-0.6692338593645976,-0.2896580835922259,-0.39412551333399065,29.97198667067392,-370.28633597577453,-5.2337542703963935,no_tremor
142,8960904,0.984,-0.680915803474422,-0.291295520433367,-0.3570296363117474,30.445639409942554,-373.0183793946662,-5.925044828332343,no_tremor
143,8960909,0.989,-0.6916658499818737,-0.29272309579005495,-0.3194454903568747,30.947720939390138,-375.1912741028995,-6.631049313732924,no_tremor
144,8960914,0.994,-0.7014295320642302,-0.29393334582263686,-0.2814428452801284,31.478233879537616,-376.7974458760272,-7.3492327672381474,no_tremor
145,8960919,0.999,-0.7101564168912502,-0.29491990293347503,-0.24309314483044425,32.03690133329401,-377.83128882896955,-8.076968483914335,no_tremor
146,8960924,1.004,-0.717800377794506,-0.29567753257717966,-0.20446919227945673,32.62316587870886,-378.28919892668597,-8.811547357866369,no_tremor
147,8960928,1.008,-0.7243198483961961,-0.29620215818502044,-0.1656448215982483,33.23619141045658,-378.1695967686032,-9.55018781067212,no_tremor
148,8960933,1.013,-0.7296780584005331,-0.29649087436693095,-0.12669455481396555,33.87486783008123,-377.4729392052179,-10.290046358184902,no_tremor
149,8960943,1.023,-0.7338432506648266,-0.29654194869588363,-0.08769324658585274,34.53781854061871,-376.20171952576226,-11.028228862253194,no_tremor
150,8960948,1.028,-0.7367888790097287,-0.29635481248815104,-0.04871571763799971,35.22341064610978,-374.3604561714294,-11.761802494653157,no_tremor
151,8960953,1.033,-0.738493785980717,-0.29593004108089227,-0.009836379400631326,35.9297676934994,-371.95567017403033,-12.487808412542712,no_tremor
152,8960985,1.065,-0.738942359419852,-0.2952693241894742,0.028871147006894797,36.65478472822005,-368.9958517822054,-13.20327511090274,no_tremor
153,8960990,1.07,-0.738124666248991,-0.2943754270110671,0.06733441354258099,37.39614537281041,-365.4914169916272,-13.905232380128988,no_tremor
154,8960995,1.075,-0.7360365613447796,-0.2932521428269136,0.10548252518214049,38.15134059010588,-361.4546549002448,-14.59072576075613,no_tremor
155,8960999,1.079,-0.7326797688941943,-0.29190423792826103,0.14324651202809727,38.91768876773458,-356.8996669170004,-15.2568313602011,no_tremor
156,8961004,1.084,-0.7280619332699416,-0.29033738973157647,0.1805596884940057,39.692356760120326,-351.84229884069845,-15.900670884961537,no_tremor
157,8961009,1.089,-0.7221966363406743,-0.28855811894931643,0.2173579947384248,40.472381539065324,-346.30006671582703,-16.519426745482583,no_tremor
158,8961014,1.094,-0.7151033782615046,-0.28657371665079384,0.2535803160741969,41.254692121691704,-340.2920772068547,-17.110357103955263,no_tremor
159,8961019,1.099,-0.706807519164666,-0.28439216700063785,0.2891687768041783,42.03613145711367,-333.8389430472709,-17.670810752029272,no_tremor
160,8961024,1.104,-0.6973401797562687,-0.2820220664187488,0.324069005739114,42.813477960012825,-326.96269393739874,-18.19824172327981,no_tremor
161,8961029,1.109,-0.6867380995778156,-0.27947253988177884,0.3582303714600331,43.58346638494464,-319.686683103827,-18.690223563142887,no_tremor
162,8961034,1.114,-0.6750434525548026,-0.2767531550936802,0.391606186132186,44.342807746455065,-312.03548960714727,-19.144463194940066,no_tremor
163,8961039,1.119,-0.6623036203678776,-0.27387383529674986,0.42415387731024495,45.088208012896196,-304.0348163999067,-19.558814331123838,no_tremor
164,8961048,1.128,-0.6485709250847206,-0.27084477157174974,0.45583512766396017,45.816385340021554,-295.7113840921153,-19.931290380430823,no_tremor
165,8961053,1.133,-0.6339023233287612,-0.2676763355744051,0.48661598288680835,46.52408566573512,-287.09282037301335,-20.26007679268811,no_tremor
166,8961058,1.138,-0.618359064984999,-0.26437899375598023,0.5164669282311185,47.20809655938234,-278.2075450624403,-20.543542765272488,no_tremor
167,8961063,1.143,-0.6020063200111275,-0.2609632241916252,0.5453629341615636,47.86525930398438,-269.084650823265,-20.78025221306594,no_tremor
168,8961072,1.152,-0.584912777307365,-0.25743943716502593,0.5732834715675768,48.49247927966161,-259.7537796589479,-20.968973882436252,no_tremor
169,8961077,1.157,-0.5671502198000494,-0.2538179006115892,0.600212496863417,49.08673480040655,-250.2449954459645,-21.108690473452917,no_tremor
170,8961106,1.186,-0.5487930799366398,-0.25010867139751464,0.6261384071745206,49.64508462500559,-240.5886529027553,-21.1986066257818,no_tremor
171,8961111,1.191,-0.5299179797153339,-0.2463215332173017,0.6510539657089435,50.16467441081148,-230.8152635597387,-21.23815562441025,no_tremor
172,8961115,1.195,-0.510603259233499,-0.2424659416544499,0.6749561974004902,50.64274240491485,-220.95535944210096,-21.227004693076797,no_tremor
173,8961120,1.2,-0.49092849758948787,-0.2385509767100837,0.6978462550406477,51.076624673327586,-211.03935527827863,-21.165058766090105,no_tremor
174,8961125,1.205,-0.47097402985289966,-0.23458530290085955,0.7197292564158903,51.46376015938783,-201.09741008957116,-21.052462661159712,no_tremor
175,8961130,1.21,-0.45082046374440343,-0.23057713688044354,0.7406140934128649,51.801695841638896,-191.15928901700963,-20.88960161354306,no_tremor
176,8961135,1.215,-0.43054819962934177,-0.22653422244510438,0.7605132145861442,52.08809223106646,-181.25422623074468,-20.677100171305327,no_tremor
177,8961140,1.22,-0.4102369574082303,-0.22246381272809224,0.7794423832341896,52.32072940885637,-171.4107897652224,-20.41581948910006,no_tremor
178,8961145,1.225,-0.3899653138579121,-0.218372659352515,0.7974204135461118,52.497513759982006,-161.65674913622846,-20.106853090721675,no_tremor
179,8961150,1.23,-0.3698102539170159,-0.2142670082848227,0.8144688878303349,52.61648550650509,-152.01894662317974,-19.751521196584164,no_tremor
180,8961154,1.234,-0.34984673929901805,-0.210152602101507,0.8306118581965222,52.67582708914454,-142.523173140423,-19.35136372926121,no_tremor
181,8961159,1.239,-0.33014729764009904,-0.20603468834497923,0.8458755363247437,52.67387238891133,-133.1940496721691,-18.908132116100784,no_tremor
182,8961164,1.244,-0.3107816351358927,-0.20191803359907032,0.8602879751193171,52.60911672632415,-124.05491530214552,-18.423780000738187,no_tremor
183,8961169,1.249,-0.2918162752856096,-0.197806942861395,0.8738787461131334,52.48022752806684,-115.12772292353621,-17.90045295488972,no_tremor
184,8961174,1.254,-0.2733142259477283,-0.19370528373230733,0.8866786164696107,52.286055512411686,-106.43294375697029,-17.340477251256814,no_tremor
185,8961179,1.259,-0.2553346764353046,-0.18961651488262823,0.8987192293343645,52.0256462155737,-97.98948182011524,-16.746347723879463,no_tremor
186,8961184,1.264,-0.23793272587020586,-0.18554371820866994,0.9100327911295855,51.69825166006429,-89.81459946372169,-16.120714711156285,no_tremor
187,8961189,1.269,-0.22115914351174362,-0.18148963403612303,0.9206517691744486,51.30334195053666,-81.92385499848152,-15.466370056056808,no_tremor
188,8961194,1.274,-0.20506016131814234,-0.17745669869579503,0.9306086027689316,50.84061656900745,-74.33105327738747,-14.786232134262649,no_tremor
189,8961199,1.279,-0.18967729863311616,-0.17344708376500892,0.9399354306102939,50.31001512671788,-67.04820987631578,-14.083329898815062,no_tremor
190,8961225,1.305,-0.17504721865737607,-0.16946273624984232,0.9486638371327414,49.711727314258354,-60.085529247728864,-13.360785969644223,no_tremor
191,8961235,1.315,-0.16120161629835889,-0.16550541897769042,0.9568246200769275,49.046201778707285,-53.45139692878931,-12.621798851704781,no_tremor
192,8961240,1.32,-0.14816713709500523,-0.16157675048105238,0.9644475813032654,48.31415365256342,-47.15238558985677,-11.869624423058404,no_tremor
193,8961245,1.325,-0.1359653271469713,-0.1576782436865461,0.9715613425490272,47.51657046978794,-41.19327444090446,-11.10755687797654,no_tremor
194,8961250,1.33,-0.12461261425511122,-0.15381134277944034,0.9781931874783489,46.65471623076049,-35.5770812970427,-10.338909329302314,no_tremor
195,8961254,1.334,-0.11412032070523878,-0.14997745768955098,0.9843689309771293,45.730133415984305,-30.305106450770158,-9.566994269612913,no_tremor
196,8961259,1.339,-0.10449470822660163,-0.14617799573129617,0.9901128162036565,44.74464279094615,-25.376987402245522,-8.795104070955787,no_tremor
197,8961264,1.344,-0.09573705559535756,-0.1424143900206048,0.9954474394334911,43.70034088746274,-20.790763446491592,-8.026491676976383,no_tremor
198,8961269,1.349,-0.08784376912795439,-0.13868812437741296,1.0003937022533107,42.59959509047346,-16.54294909515207,-7.264351614440756,no_tremor
199,8961274,1.354,-0.08080652593593604,-0.13500075449981647,1.00497079018676,41.445036305490376,-12.628615309630801,-6.511801426821382,no_tremor
200,8961279,1.359,-0.07461244932324927,-0.1313539252614788,1.0091961764013717,40.23954923091516,-9.041477532606542,-5.771863613971231,no_tremor
201,8961284,1.364,-0.06924431514250079,-0.12774938403640065,1.0130856487729594,38.986260308800176,-5.773989517927025,-5.047448151877211,no_tremor
202,8961289,1.369,-0.06468078733825498,-0.1241889899959469,1.0166533582898676,37.68852347364263,-2.8174419702900293,-4.341335666632205,no_tremor
203,8961294,1.374,-0.060896680344752034,-0.12067471935646756,1.0199118865734391,36.34990385771832,-0.16206501615065116,-3.656161346651138,no_tremor
204,8961298,1.378,-0.05786324551796379,-0.11720866658901091,1.0228723301750033,34.974159640846054,2.202866460751519,-2.9943996942352995,no_tremor
205,8961318,1.398,-0.055548478402483226,-0.11379304164413037,1.025544399279641,33.565222252236495,4.288925567970678,-2.3583502379241965,no_tremor
206,8961323,1.403,-0.05391744338300569,-0.11043016330361297,1.027936528492665,32.1271751442842,6.108425158016863,-1.7501243465469014,no_tremor
207,8961353,1.433,-0.05293261215157124,-0.10712244885470072,1.0300559974883325,30.664231365706915,7.674309466438655,-1.171633300610022,no_tremor
208,8961363,1.443,-0.05255421241850495,-0.10387240039232576,1.0319090594357458,29.180710166662024,9.000046455955372,-0.6245777826830918,no_tremor
209,8961368,1.448,-0.05274058337071845,-0.10068258817792025,1.0335010752540512,27.68101287176705,10.099521618540239,-0.11043894255543672,no_tremor
210,8961373,1.453,-0.05344853449079171,-0.0975556315903632,1.0348366518626466,26.169598256074796,10.986933916724327,0.3695288252960128,no_tremor
211,8961378,1.458,-0.05463370446070265,-0.09449417826458183,1.03591978267108,24.65095765123587,11.676694484911572,0.814303281688269,no_tremor
212,8961382,1.462,-0.05625091697744691,-0.09150088201299023,1.0367539886030146,23.12958999451914,12.183328663975582,1.223097840881301,no_tremor
213,8961387,1.467,-0.05825453041750735,-0.08857838007392585,1.037342457983903,21.609977015471056,12.521381902706848,1.5953631177547367,no_tremor
214,8961392,1.472,-0.06059877842218239,-0.08572927015080772,1.037688183657926,20.09655873736707,12.705330021275342,1.930786502561882,no_tremor
215,8961397,1.477,-0.06323809864917396,-0.08295608761643591,1.037794095746693,18.59370945497629,12.749494291263892,2.229289767593821,no_tremor
216,8961402,1.482,-0.06612744715197769,-0.08026128317355456,1.0376631885260172,17.1057143367915,12.667961743339307,2.4910247349281756,no_tremor
217,8961407,1.487,-0.0692225961052197,-0.07764720119468733,1.037298639980491,15.636746788566223,12.474511067423327,2.716367058752139,no_tremor
218,8961412,1.492,-0.07248041288436284,-0.07511605891580878,1.0367039226994053,14.190846705614646,12.18254442091371,2.9059081992803923,no_tremor
219,8961417,1.497,-0.07585911882241568,-0.0726699266303094,1.0358829049011915,12.771899733969686,11.805025407317993,3.0604456873336936,no_tremor
220,8961421,1.501,-0.07931852629290202,-0.07031070901963075,1.0348399405153539,11.38361765542796,11.354423430618917,3.1809717985943773,no_tremor
221,8961426,1.506,-0.08282025309533012,-0.06804012776060415,1.0335799474083096,10.029520008905319,10.842664571166758,3.268660774238225,no_tremor
222,8961431,1.511,-0.08632791343542263,-0.06585970556182597,1.0321084730097498,8.712917060005086,10.281089068748127,3.3248547399271122,no_tremor
223,8961441,1.521,-0.08980728508788266,-0.06377075179738667,1.0304317467761814,7.436894231137566,9.680415438647422,3.3510484875065476,no_tremor
224,8961446,1.526,-0.09322645259711632,-0.061774349921540954,1.028556719115698,6.204298104450658,9.050711186531123,3.3488732927346407,no_tremor
225,8961470,1.55,-0.09655592660583842,-0.05987134685850192,1.0264910865905053,5.017724107922024,8.40137002677216,3.3200799483774834,no_tremor
226,8961475,1.555,-0.09976873959970929,-0.058062344563567424,1.0242433034088216,3.8795059899997755,7.7410954460902435,3.266521196136461,no_tremor
227,8961480,1.56,-0.10284051851792105,-0.05634769394133994,1.021822579411988,2.7917071786307206,7.077890391770966,3.1901337439466526,no_tremor
228,8961485,1.565,-0.10574953480864248,-0.054727491280749656,1.0192388649512307,1.7561141048264535,6.419052804816519,3.0929200571070616,no_tremor
229,8961490,1.57,-0.10847673261120458,-0.053201577323995025,1.0165028232267228,0.7742315488138134,5.771176666942783,2.9769301117319467,no_tremor
230,8961500,1.58,-0.11100573583143065,-0.05176953902947568,1.0136257908263457,-0.1527199598843278,5.140158188492124,2.8442432966636115,no_tremor
231,8961509,1.589,-0.11332283494920385,-0.050430714021639136,1.0106197273516728,-1.0238046855104632,4.531206732523563,2.6969506455129286,no_tremor
232,8961514,1.594,-0.11541695446379552,-0.04918419764828203,1.0074971551534841,-1.838370197144543,3.9488600487943186,2.5371375740851425,no_tremor
233,8961524,1.604,-0.11727960194773128,-0.048028852492718155,1.0042710903170404,-2.5960438985297363,3.397003381024706,2.366867289265734,no_tremor
234,8961529,1.609,-0.11890479974855878,-0.04696332011849194,1.0009549661359953,-3.296727650914522,2.878892012648464,2.1881650222819324,no_tremor
235,8961539,1.619,-0.12028900045302786,-0.0459860347621902,0.997562550390491,-3.9405905846478126,2.3971768292796125,2.003003222129112,no_tremor
236,8961544,1.624,-0.12143098731110381,-0.045095238639748625,0.994107857797176,-4.528060215247402,1.953932496911809,1.8132878252952025,no_tremor
237,8961549,1.629,-0.12233176090654468,-0.04428899849749956,0.9906050590245122,-5.059811997981851,1.5506878782571782,1.6208456973406786,no_tremor
238,8961554,1.634,-0.12299441345237619,-0.043565223023886206,0.9870683876645893,-5.536757470462207,1.1884583303771377,1.4274133213813782,no_tremor
239,8961558,1.638,-0.12342399217728454,-0.04292168074212996,0.9835120465230202,-5.960031144119696,0.8677795413561025,1.2346267888885203,no_tremor
240,8961563,1.643,-0.12362735334578365,-0.042356018026896265,0.9799501145332646,-6.330976312491018,0.5887425719159951,1.044013130549255,no_tremor
241,8961568,1.648,-0.1236130085145024,-0.04186577692615367,0.9763964555239089,-6.651129947318358,0.35102977211854974,0.8569830099492263,no_tremor
242,8961593,1.673,-0.12339096466345222,-0.041448412518867675,0.9728646299705792,-6.922206852972572,0.15395124704645052,0.674824790019967,no_tremor
243,8961598,1.678,-0.12297255985009499,-0.04110130959503192,0.9693678107520416,-7.146083246116026,-0.0035184487919881283,0.49869996998860006,no_tremor
244,8961603,1.683,-0.12237029601257275,-0.04082179850104953,0.9659187038061119,-7.324779921490434,-0.1227036989022203,0.32963997771140036,no_tremor
245,8961608,1.688,-0.12159767049670903,-0.040607170044447374,0.9625294744483411,-7.4604451567072765,-0.20519159007561283,0.16854428880274502,no_tremor
246,8961613,1.693,-0.12066900780349983,-0.040454689392541064,0.9592116799785371,-7.5553374994292595,-0.25279633188711426,0.016179830952182034,no_tremor
247,8961618,1.698,-0.11959929295750753,-0.040361608928470794,0.9559762090620543,-7.6118085703176535,-0.26752458283332076,-0.12681837975747412,no_tremor
248,8961623,1.703,-0.11840400779087819,-0.040325180046747844,0.9528332282403901,-7.632286005463869,-0.2515419078733791,-0.2599454336237652,no_tremor
249,8961628,1.708,-0.11709897133038727,-0.04034266388232786,0.9497921358042228,-7.619256652872059,-0.20714056167373732,-0.38282362474130127,no_tremor
250,8961633,1.713,-0.11570018537116868,-0.04041134097543622,0.9468615231550043,-7.575250128688832,-0.1367087602367457,-0.4951985297582042,no_tremor
251,8961643,1.723,-0.11422368622320067,-0.04052851988143859,0.9440491436899062,-7.502822830100611,-0.04270157304782265,-0.5969341524199132,no_tremor
252,8961648,1.728,-0.11268540352559471,-0.04069154474273577,0.9413618891688258,-7.404542492722051,0.07238645970345801,-0.68800722262699,no_tremor
253,8961652,1.732,-0.1111010269378005,-0.040897801848916115,0.9388057734590571,-7.282973370315112,0.2060469040645975,-0.768500741666723,no_tremor
254,8961657,1.737,-0.10948588143319837,-0.04114472522237384,0.9363859234994024,-7.14066210380016,0.35578114297403507,-0.8385968671157064,no_tremor
255,8961662,1.742,-0.10785481183590852,-0.04142980127875148,0.9341065772764318,-6.980124335444931,0.5191221778353725,-0.898569231716975,no_tremor
256,8961667,1.747,-0.1062220771531378,-0.041750572623836885,0.9319710885570416,-6.803832113582249,0.6936544939069151,-0.9487747902197367,no_tremor
257,8961672,1.752,-0.10460125516109509,-0.04210464105968345,0.9299819380703631,-6.614202123509217,0.8770319767238042,-0.9896452870264332,no_tremor
258,8961677,1.757,-0.10300515760168032,-0.042489669881594465,0.9281407507768832,-6.413584771329561,1.0669938804460168,-1.0216784363848648,no_tremor
259,8961682,1.762,-0.10144575624030709,-0.042903385553455776,0.9264483188033427,-6.204254139389865,1.2613788624936375,-1.0454289065149913,no_tremor
260,8961692,1.772,-0.09993411992402437,-0.04334357885142451,0.9249046295597844,-5.988398824821526,1.458137111974633,-1.0614991993465233,no_tremor
261,8961717,1.797,-0.09848036266612419,-0.0438081055653882,0.9235088984925625,-5.768113666865403,1.6553406121220116,-1.0705305177341162,no_tremor
262,8961722,1.802,-0.09709360267210634,-0.044294886844698275,0.9222596058688146,-5.545392364205532,1.851191589743811,-1.0731937114632168,no_tremor
263,8961727,1.807,-0.09578193211679849,-0.04480190927090996,0.9211545369414713,-5.322120980040619,2.0440292183351514,-1.0701803917284038,no_tremor
264,8961732,1.812,-0.09455239738883373,-0.045327224737369796,0.9201908248189768,-5.100072329491331,2.232334656042659,-1.0621943008705514,no_tremor
265,8961737,1.817,-0.09341098944066405,-0.04586895021463098,0.9193649953679444,-4.880901241045195,2.4147345137381633,-1.0499430198306796,no_tremor
266,8961742,1.822,-0.09236264382097585,-0.04642526748172547,0.9186730135112284,-4.6661406813378665,2.590002859720571,-1.0341300898414723,no_tremor
267,8961746,1.826,-0.09141124991985633,-0.04699442290504155,0.918110330343499,-4.4571987306500045,2.757061873916414,-1.0154476171814582,no_tremor
268,8961751,1.831,-0.09055966892171369,-0.04757472734726045,0.917671930563548,-4.255356394581382,2.9149812648698137,-0.9945694203672734,no_tremor
269,8961761,1.841,-0.0898097599327272,-0.048164556286847196,0.9173523798092298,-4.061766234906927,3.0629765574862184,-0.9721447682593609,no_tremor
270,8961766,1.846,-0.08916241372453819,-0.04876235022248079,0.9171458715696623,-3.877451799280833,3.2004063497360296,-0.9487927457868114,no_tremor
271,8961771,1.851,-0.08861759351029928,-0.04936661542521718,0.9170462734331303,-3.7033078251290865,3.3267686247891124,-0.9250972719970161,no_tremor
272,8961776,1.856,-0.08817438214005129,-0.04997592508308682,0.9170471725019776,-3.5401011880539137,3.4416961943873123,-0.9016027834005357,no_tremor
273,8961781,1.861,-0.08783103506813508,-0.05058892085786993,0.9171419198635227,-3.388472560042911,3.544951341910884,-0.8788105845753383,no_tremor
274,8961785,1.865,-0.08758503840653008,-0.051204314842551356,0.9173236740471646,-3.248938738334823,3.6364197299570864,-0.8571758583375438,no_tremor
275,8961790,1.87,-0.08743317133711276,-0.05182089187194852,0.9175854434230857,-3.1218956021422843,3.7161036364265287,-0.8371053199474656,no_tremor
276,8961795,1.875,-0.08737157211639665,-0.052437512100423814,0.9179201275092062,-3.007621651585801,3.784114584323165,-0.8189554936691326,no_tremor
277,8961805,1.885,-0.08739580687227581,-0.053053113722142164,0.9183205571526452,-2.9062820812614754,3.840665433705054,-0.8030315850930632,no_tremor
278,8961810,1.89,-0.08750094036774977,-0.05366671567433757,0.9187795335422948,-2.8179333398672144,3.8860620095695584,-0.7895869188668242,no_tremor
279,8961815,1.895,-0.08768160789574593,-0.054277420136570734,0.9192898659927303,-2.7425281269920627,3.920694346114538,-0.7788229090573919,no_tremor
280,8961840,1.92,-0.08793208747561405,-0.054884414623282696,0.9198444084191083,-2.67992077824173,3.945027634128013,-0.7708895282650444,no_tremor
281,8961845,1.925,-0.08824637154761704,-0.055486973466338865,0.9204360944008892,-2.629872990182811,3.959592962811685,-0.7658862415580296,no_tremor
282,8961850,1.93,-0.08861823740645268,-0.05608445849985715,0.921057970713029,-2.592059837032677,3.964977949700319,-0.7638633721737443,no_tremor
283,8961854,1.934,-0.08904131567629621,-0.05667631879024486,0.9217032291915206,-2.566076031680101,3.9618173527959293,-0.7648238676296402,no_tremor
284,8961860,1.94,-0.08950915620474514,-0.057262089296916716,0.9223652368000896,-2.55144238491758,3.950783758110084,-0.7687254368391763,no_tremor
285,8961865,1.945,-0.090015290837504,-0.05784138839922811,0.9230375637779901,-2.547612419033782,3.9325784336898195,-0.775483030008109,no_tremor
286,8961869,1.949,-0.09055329262559035,-0.058413914278007385,0.9237140097736297,-2.5539790948670036,3.907922437322975,-0.7849716326954194,no_tremor
287,8961874,1.954,-0.0911168311083316,-0.058979440191649427,0.9243886279016738,-2.569881614324092,3.8775480585863353,-0.7970293434990477,no_tremor
288,8961879,1.959,-0.0916997234048045,-0.059537808734100514,0.9250557466982533,-2.5946122626412964,3.842190666571249,-0.8114607020154989,no_tremor
289,8961884,1.964,-0.09229598093033582,-0.06008892520331342,0.9257099899858894,-2.6274232561953457,3.802581023413421,-0.8280402305857099,no_tremor
290,8961889,1.969,-0.09289985163031872,-0.060632750242667816,0.9263462946929062,-2.66753356274723,3.759438111997192,-0.8465161501662589,no_tremor
291,8961894,1.974,-0.0935058576885284,-0.06116929194358452,0.9269599266981062,-2.7141356619935855,3.7134625151533176,-0.8666142277628992,no_tremor
292,8961899,1.979,-0.09410882871971045,-0.06169859761442111,0.927546494787655,-2.7664022153424055,3.6653303744539674,-0.8880417106069773,no_tremor
293,8961903,1.983,-0.0947039304958027,-0.06222074542811643,0.9281019628156495,-2.823492614694374,3.615687950032154,-0.9104913009206393,no_tremor
294,8961913,1.993,-0.09528668928220692,-0.06273583615852607,0.928622660151903,-2.884559380404423,3.565146798428078,-0.9336451248751615,no_tremor
295,8961918,1.998,-0.09585301187677249,-0.0632439852029905,0.9291052904805192,-2.948754378612243,3.5142795820312744,-0.9571786502707595,no_tremor
296,8961923,2.003,-0.09639920145255353,-0.0637453150672273,0.929546938982934,-3.0152348283664683,3.463616519861244,-0.9807645094638717,no_tremor
297,8961928,2.008,-0.09692196930979796,-0.06423994845988426,0.9299450779029863,-3.083169070113919,3.4136424846383484,-1.004076186951701,no_tremor
298,8961932,2.012,-0.09741844264692273,-0.06472800211046283,0.9302975704539099,-3.151742069389743,3.364794745765333,-1.0267915346521883,no_tremor
299,8961937,2.017,-0.09788616846748063,-0.06520958138851912,0.9306026729926506,-3.2201606325135743,3.3174613528129795,-1.0485960821425921,no_tremor
300,8961962,2.042,-0.09832311375216003,-0.06568477576669254,0.9308590353597634,-3.2876583140444198,3.2719801499696066,-1.069186113618148,no_tremor
301,8961967,2.047,-0.09872766204235744,-0.06615365513766389,0.9310656992669533,-3.3534999979779307,3.228638408654746,-1.0882714878291995,no_tremor
302,8961972,2.052,-0.09909860660446948,-0.06661626696801232,0.9312220946121123,-3.416986135815635,3.187673062423332,-1.1055781821270487,no_tremor
303,8961977,2.057,-0.09943514037037118,-0.06707263425221897,0.9313280336150109,-3.477456624952392,3.149271524221203,-1.1208505478845203,no_tremor
304,8961981,2.061,-0.09973684287732515,-0.06752275421864222,0.9313837026942352,-3.5342943111217617,3.113573059844932,-1.1338532721015562,no_tremor
305,8961991,2.071,-0.10000366445713342,-0.06796659773508727,0.9313896520429925,-3.5869280996192003,3.0806706827446613,-1.1443730476585112,no_tremor
306,8961996,2.076,-0.10023590794711215,-0.06840410936194113,0.9313467829019091,-3.634835661765637,3.0506135250532034,-1.1522199607228307,no_tremor
307,8962001,2.081,-0.10043420821224047,-0.06883520800270644,0.9312563325653489,-3.677545725248607,3.023409629937825,-1.157228607521929,no_tremor
308,8962011,2.091,-0.1005995097770467,-0.06925978810271133,0.9311198571903855,-3.71463993938514,2.9990291029401095,-1.159258954435176,no_tremor
309,8962015,2.095,-0.10073304286675733,-0.0696777213453367,0.9309392125029149,-3.7457543089992407,2.9774075554937287,-1.1581969557112382,no_tremor
310,8962020,2.1,-0.10083629815030097,-0.07008885879079574,0.930716532514352,-3.7705801935148715,2.9584497715048177,-1.1539549424441584,no_tremor
311,8962025,2.105,-0.10091100046422083,-0.07049303339564215,0.9304542063775317,-3.7888648710177955,2.9420335266280007,-1.146471795216439,no_tremor
312,8962030,2.11,-0.10095908177834384,-0.07089006284267918,0.9301548535250863,-3.800411670310609,2.9280134893913865,-1.1357129116463505,no_tremor
313,8962035,2.115,-0.1009826536433773,-0.07127975260203313,0.92982129725052,-3.805079677097342,2.916225134391664,-1.121669979161245,no_tremor
314,8962040,2.12,-0.10098397933954001,-0.0716618991361804,0.9294565369131921,-3.802783023385233,2.906488601404797,-1.1043605624117618,no_tremor
315,8962044,2.124,-0.10096544592553117,-0.07203629315588807,0.9290637189740181,-3.793489772592254,2.8986124406079736,-1.0838275136683289,no_tremor
316,8962049,2.129,-0.10092953636967648,-0.07240272283132843,0.9286461070984455,-3.7772204173141195,2.8923971922120897,-1.0601382132937585,no_tremor
317,8962054,2.134,-0.10087880193051654,-0.07276097686376556,0.9282070515957618,-3.754046011964353,2.887638757354535,-1.033383645843413,no_tremor
318,8962059,2.139,-0.10081583494258216,-0.07311084732857998,0.9277499584970116,-3.7240859675380613,2.8841315254597957,-1.003677315449675,no_tremor
319,8962084,2.164,-0.10074324215455514,-0.07345213221007042,0.9272782586051641,-3.6875055398294405,2.8816712315869832,-0.9711540023185665,no_tremor
320,8962089,2.169,-0.10066361876128736,-0.07378463756225978,0.9267953768774886,-3.644513045645312,2.8800575259576933,-0.9359683610776344,no_tremor
321,8962099,2.179,-0.10057952326817901,-0.07410817924741249,0.9263047025173603,-3.5953568441909565,2.8790962471629835,-0.8982933617008212,no_tremor
322,8962104,2.184,-0.10049345332623627,-0.07442258422441327,0.925809560156616,-3.540322122555576,2.878601400317881,-0.8583185747635839,no_tremor
323,8962109,2.189,-0.10040782267862304,-0.0747276913814616,0.9253131824972498,-3.4797275244605586,2.8783968507342217,-0.8162483048859147,no_tremor
324,8962113,2.193,-0.10032493936410518,-0.07502335193036526,0.9248186847527097,-3.4139216600211033,2.87831775090406,-0.7722995796224561,no_tremor
325,8962118,2.198,-0.10024698532832053,-0.07530942940179257,0.9243290411869309,-3.3432795316572683,2.8782117222104864,-0.7267000058212423,no_tremor
326,8962128,2.208,-0.10017599759880508,-0.07558579930115003,0.9238470639971615,-3.268198907920824,2.877939812334319,-0.6796855112232526,no_tremor
327,8962133,2.213,-0.10011385118248829,-0.07585234850249066,0.9233753847280894,-3.1890966731782737,2.877377245652631,-0.631497995077406,no_tremor
328,8962138,2.218,-0.10006224384314087,-0.0761089744722404,0.9229164383430307,-3.1064051773534276,2.8764139786631535,-0.5823829169374536,no_tremor
329,8962143,2.223,-0.10002268290931109,-0.07635558442469839,0.9224724500161736,-3.0205686070796394,2.8749550673155757,-0.5325868568916182,no_tremor
330,8962148,2.228,-0.09999647424961428,-0.07659209451646573,0.922045424651283,-2.932039398007858,2.8729208495057663,-0.48235508307699704,no_tremor
331,8962152,2.232,-0.09998471353210919,-0.076818429186803,0.9216371390797595,-2.841274707192382,2.87024694486911,-0.43192916383056457,no_tremor
332,8962157,2.237,-0.09998827985943697,-0.07703452074546993,0.921249136846846,-2.748732963687666,2.866884075680615,-0.3815446626311259,no_tremor
333,8962167,2.247,-0.10000783184362584,-0.07724030929924462,0.9208827254606916,-2.6548705145258253,2.8627977166332212,-0.3314289539767617,no_tremor
334,8962172,2.252,-0.1000438061562135,-0.0774357430936275,0.9205389759556671,-2.560138382528813,2.8579675864298935,-0.28179919696712097,no_tremor
335,8962177,2.257,-0.10009641856243676,-0.07762077932788654,0.9202187246086118,-2.4649791524911375,2.8523869991120847,-0.23286050018333437,no_tremor
336,8962182,2.262,-0.10016566742377603,-0.07779538548030313,0.9199225766434291,-2.36982400324215,2.8460620965808223,-0.1848043065818407,no_tremor
337,8962206,2.286,-0.10025133963116725,-0.07795954115685706,0.9196509117635405,-2.2750899043133836,2.8390109851026004,-0.1378070211069617,no_tremor
338,8962211,2.291,-0.10035301891052305,-0.07811324045113485,0.9194038913602522,-2.1811769963627645,2.831262797745416,-0.0920288972504318,no_tremor
339,8962216,2.296,-0.10047009642058428,-0.07825649477640817,0.9191814672546854,-2.088466173505076,2.8228567022071895,-0.04761319238967998,no_tremor
340,8962221,2.301,-0.10060178353795726,-0.07838933610323882,0.9189833918382343,-1.9973168833854833,2.8138408699375765,-0.004685595751368629,no_tremor
341,8962226,2.306,-0.10074712669377278,-0.07851182050861272,0.9188092294795295,-1.9080651578150445,2.804271418207199,0.036646072722186535,no_tremor
342,8962231,2.311,-0.10090502409083633,-0.07862403191683798,0.9186583690645979,-1.8210218838238048,2.7942113324160145,0.07629189972076632,no_tremor
343,8962235,2.315,-0.10107424409117306,-0.07872608588981965,0.9185300375331975,-1.73647132277375,2.783729372299853,0.11417966464192043,no_tremor
344,8962240,2.32,-0.10125344502396481,-0.07881813330640124,0.9184233142705742,-1.6546698839810907,2.7728989633487857,0.1502543923109493,no_tremor
345,8962250,2.33,-0.10144119612547978,-0.07890036375864726,0.9183371462122178,-1.5758451587127633,2.761797073582008,0.1844776956066867,no_tremor
346,8962255,2.335,-0.10163599928810461,-0.07897300848844883,0.9182703635208466,-1.500195219660288,2.7505030756188313,0.21682693632019093,no_tremor
347,8962260,2.34,-0.10183631126766712,-0.07903634269170279,0.9182216957001391,-1.4278881895302433,2.7390975952303296,0.24729423682806614,no_tremor
348,8962265,2.345,-0.1020405659798337,-0.07909068703020622,0.9181897880179598,-1.3590620802361895,2.7276613511817773,0.2758853778028287,no_tremor
349,8962269,2.349,-0.10224719651000486,-0.07913640821324136,0.9181732181214162,-1.293824901606172,2.7162739973196195,0.3026186173074823,no_tremor
350,8962274,2.354,-0.10245465646799962,-0.0791739185405544,0.9181705127351129,-1.2322550357143782,2.705012985093375,0.3275234637828573,no_tremor
351,8962279,2.359,-0.10266144033851209,-0.07920367433428033,0.9181801643405971,-1.174401870010912,2.693952470687516,0.3506394304119727,no_tremor
352,8962284,2.364,-0.10286610250931918,-0.07922617322725327,0.9182006477378755,-1.1202866794962736,2.683162293797877,0.3720147929587256,no_tremor
353,8962289,2.369,-0.10306727469938837,-0.07924195031700296,0.9182304363882364,-1.0699037451877025,2.6727070542635802,0.39170536893046015,no_tremor
354,8962294,2.374,-0.1032636815558476,-0.07925157323660535,0.9182680184312497,-1.0232216926587834,2.6626453088409483,0.40977333294868956,no_tremor
355,8962299,2.379,-0.10345415423932393,-0.07925563623356525,0.9183119122580635,-0.9801850303260218,2.6530289044288153,0.42628608073370544,no_tremor
356,8962304,2.384,-0.10363764186822266,-0.0792547533843613,0.9183606815088219,-0.9407158629172475,2.6439024570389877,0.44131515158854107,no_tremor
357,8962328,2.408,-0.10381322074091318,-0.07924955110374671,0.918412949345332,-0.9047157521649316,2.635302978676962,0.4549352169505622,no_tremor
358,8962333,2.413,-0.10398010129783296,-0.07924066013321476,0.9184674118327152,-0.8720676950777329,2.6272596480943933,0.46722314086831135,no_tremor
359,8962338,2.418,-0.10413763282158764,-0.07922870721122642,0.9185228502482418,-0.8426381903455973,2.6197937172428807,0.4782571171015005,no_tremor
360,8962343,2.423,-0.10428530590205759,-0.07921430663820395,0.9185781421253691,-0.8162793649858522,2.6129185439593856,0.4881158866268164,no_tremor
361,8962347,2.427,-0.10442275271673494,-0.07919805195208039,0.9186322708394287,-0.7928311355957325,2.606639742631538,0.4968780385613576,no_tremor
362,8962362,2.442,-0.10454974519646436,-0.07918050792660168,0.9186843335500199,-0.7721233813741565,2.6009554468928107,0.5046213969658095,no_tremor
363,8962367,2.447,-0.10466619116592692,-0.07916220309638886,0.9187335473335342,-0.7539781094877932,2.595856680206597,0.5114224954951426,no_tremor
364,8962371,2.451,-0.10477212856813962,-0.07914362300132363,0.9187792533658695,-0.7382115970386968,2.591327830730037,0.5173561407924124,no_tremor
365,8962376,2.456,-0.10486771790319771,-0.07912520432843978,0.9188209190486101,-0.7246364968719695,2.5873472259720764,0.5224950631892762,no_tremor
366,8962381,2.461,-0.10495323303268177,-0.07910733011163099,0.9188581380101152,-0.7130638957781731,2.5838878004912202,0.5269096496992228,no_tremor
367,8962386,2.466,-0.10502905052138808,-0.07909032612726957,0.9188906279545263,-0.7033053132403834,2.580917846489053,0.5306677503118999,no_tremor
368,8962391,2.471,-0.10509563770628351,-0.07907445859666949,0.9189182263752959,-0.6951746276255804,2.578401833415191,0.5338345451607635,no_tremor
369,8962396,2.476,-0.10515353969833141,-0.07905993327417468,0.9189408841944043,-0.6884899154876407,2.5763012795121996,0.536472457543863,no_tremor
370,8962401,2.481,-0.10520336553619845,-0.07904689596306913,0.9189586574332267,-0.6830751887106329,2.5745756560938053,0.5386410957601446,no_tremor
