sample,t_ms,t_s,ax,ay,az,gx,gy,gz,tremor
0,8947474,0.0,-0.19675256118555903,-0.19312899732087188,-1.0126450043910473,1.1711520971707803,-0.0738482032378159,-2.038408819330864,no_tremor
1,8947479,0.005,-0.19672494346985295,-0.19330159247503595,-1.0126334648703832,1.2064230838202832,0.02764378596296842,-1.9363291149724164,no_tremor
2,8947483,0.009,-0.19668952699068498,-0.193536950924996,-1.0126157759031515,1.2410005124490413,0.12793796816564465,-1.8357987473547392,no_tremor
3,8947488,0.014,-0.19664729092088995,-0.19383826520712105,-1.0125902862537053,1.2747766586193836,0.22655052438246479,-1.737183120250117,no_tremor
4,8947493,0.019,-0.19660106696269036,-0.1941966494057389,-1.0125561000198624,1.307645493991827,0.32301997096526996,-1.6408361196016328,no_tremor
5,8947498,0.024,-0.196554276204923,-0.19459723526378223,-1.0125129290480988,1.3395031685565004,0.41691290124080266,-1.5470973598659414,no_tremor
6,8947503,0.029,-0.19651000556371453,-0.19502456209773658,-1.0124608124103103,1.3702485041854588,0.507829390948311,-1.456289577220448,no_tremor
7,8947508,0.034,-0.1964706293760912,-0.19546532344206702,-1.0123999048956005,1.3997834989931304,0.5954079760154781,-1.3687162003977653,no_tremor
8,8947512,0.038,-0.19643777754024955,-0.1959091240458934,-1.0123303666697485,1.4280138428247635,0.6793301159576933,-1.2846591249569403,no_tremor
9,8947517,0.043,-0.19641244668593805,-0.19634824820175387,-1.0122523259713907,1.4548494445153535,0.7593240627805201,-1.204376711747247,no_tremor
10,8947522,0.048,-0.19639513797988595,-0.19677710998190465,-1.012165880663476,1.4802049710764016,0.8351680654095731,-1.1281020258238745,no_tremor
11,8947527,0.053,-0.19638597511042918,-0.19719170425260293,-1.0120711155028637,1.504000397840799,0.9066928539159185,-1.0560413281403072,no_tremor
12,8947531,0.057,-0.19638479228569716,-0.19758916624551867,-1.0119681229864297,1.5261615669725148,0.9737833648237838,-0.9883728287218218,no_tremor
13,8947536,0.062,-0.19639119604930338,-0.19796745157370724,-1.0118570225635497,1.5466207495014217,1.0363796863534052,-0.9252457068771323,no_tremor
14,8947546,0.072,-0.19640460803647825,-0.19832511553693435,-1.0117379765444305,1.5653172030346536,1.0944772187703873,-0.866779401596793,no_tremor
15,8947551,0.077,-0.19642429514755652,-0.1986611649307155,-1.011611202568103,1.5821977137144954,1.1481260591605191,-0.8130631732079716,no_tremor
16,8947556,0.082,-0.19644939198407677,-0.19897495946552732,-1.0114769830277273,1.5972171074606898,1.1974296315225654,-0.7641559346109028,no_tremor
17,8947561,0.087,-0.19647891885258517,-0.1992661457723567,-1.0113356719465216,1.6103387129503977,1.2425425917189674,-0.720086346404968,no_tremor
18,8947565,0.091,-0.19651179746588454,-0.1995346121876983,-1.011187699730141,1.6215347579258088,1.2836680421541489,-0.680853165307193,no_tremor
19,8947590,0.116,-0.19654686565008941,-0.1997804564633283,-1.0110335761122862,1.6307866815782366,1.3210540929640173,-0.6464258305056594,no_tremor
20,8947595,0.121,-0.19658289181439306,-0.20000396132670709,-1.0108738915080009,1.6380853487531926,1.3549898056409424,-0.6167452689594545,no_tremor
21,8947600,0.126,-0.19661858957546305,-0.20020557469589337,-1.0107093169098809,1.6434311559295867,1.3858005531923256,-0.5917248986427956,no_tremor
22,8947605,0.131,-0.1966526326868666,-0.20038589258874184,-1.0105406024099235,1.646834023369084,1.4138428309864333,-0.5712518081825728,no_tremor
23,8947610,0.136,-0.196683670264209,-0.20054564356327553,-1.010368574402323,1.6483132716681006,1.4394985568806782,-0.5551880916382715,no_tremor
24,8947615,0.141,-0.1967103421934129,-0.20068567403057685,-1.0101941315155358,1.6478973838901563,1.4631689086818807,-0.5433723176764917,no_tremor
25,8947620,0.146,-0.19673129454807492,-0.2008069340941729,-1.0100182393292563,1.6456236564869418,1.4852677602927533,-0.5356211127375404,no_tremor
26,8947625,0.151,-0.19674519481337363,-0.20091046375855084,-1.009841923947335,1.6415377432800755,1.5062147930383702,-0.53173083782639,no_tremor
27,8947629,0.155,-0.19675074671248957,-0.20099737945889282,-1.0096662645160814,1.6356930971554529,1.5264283730414612,-0.5314793382431211,no_tremor
28,8947634,0.16,-0.1967467044513952,-0.2010688609235172,-1.0094923847951789,1.6281503146320855,1.546318296184134,-0.5346277451517675,no_tremor
29,8947639,0.165,-0.19673188623336393,-0.2011261384087032,-1.0093214439032971,1.6189763898478429,1.5662785069688987,-0.5409223079849108,no_tremor
30,8947644,0.17,-0.19670518693951716,-0.20117048035467544,-1.009154626371197,1.6082438867634297,1.5866798961318715,-0.5500962378230128,no_tremor
31,8947648,0.174,-0.19666558992009117,-0.2012031815092781,-1.008993131641327,1.5960300408970318,1.607863275566322,-0.5618715439907275,no_tremor
32,8947658,0.184,-0.19661217788711582,-0.20122555155718377,-1.0088381631550023,1.582415804084624,1.6301326199268094,-0.5759608485610185,no_tremor
33,8947663,0.189,-0.19654414293769318,-0.20123890428046975,-1.0086909171671579,1.5674848475444714,1.6537486535810886,-0.5920691657051279,no_tremor
34,8947668,0.194,-0.19646079576368689,-0.20124454726312085,-1.0085525714257941,1.551322540212155,1.6789228501431646,-0.6098956348245683,no_tremor
35,8947673,0.199,-0.19636157411526384,-0.2012437721389858,-1.008424273850243,1.5340149212677021,1.7058119005674668,-0.6291351984395117,no_tremor
36,8947677,0.203,-0.19624605058144134,-0.201237845371075,-1.0083071313407943,1.5156476882414571,1.7345126960473252,-0.6494802180972957,no_tremor
37,8947682,0.208,-0.1961139397325361,-0.2012279995406661,-1.0082021988530823,1.4963052249209174,1.7650578648842887,-0.6706220241392641,no_tremor
38,8947687,0.213,-0.19596510464153974,-0.20121542511799934,-1.0081104688741584,1.4760696957931505,1.7974118983280887,-0.6922523981911407,no_tremor
39,8947712,0.238,-0.1957995627694649,-0.2012012626826934,-1.008032861442842,1.4550202351346009,1.831467898639372,-0.7140649912746267,no_tremor
40,8947717,0.243,-0.19561749116935376,-0.20118659556162977,-1.0079702148629692,1.4332322588793696,1.8670449827648516,-0.7357566859567315,no_tremor
41,8947722,0.248,-0.19541923094061156,-0.20117244285519587,-1.0079232772613755,1.4107769264005101,1.903886376805929,-0.7570289173267134,no_tremor
42,8947727,0.253,-0.19520529085450047,-0.20115975282971102,-1.0078926991383736,1.3877207774881557,1.9416582398168207,-0.777588972882075,no_tremor
43,8947737,0.263,-0.19497635007522926,-0.2011493966645383,-1.0078790270435667,1.3641255667289491,1.9799492601457542,-0.7971512938313439,no_tremor
44,8947742,0.268,-0.19473325991717205,-0.20114216255615683,-1.0078826984833367,1.3400483127293006,2.018271072845749,-0.8154387997267647,no_tremor
45,8947747,0.273,-0.1944770446019723,-0.20113875019711508,-1.007904038130739,1.3155415731682256,2.0560595511993576,-0.8321842558871623,no_tremor
46,8947751,0.277,-0.19420890100330432,-0.20113976566392056,-1.0079432553679413,1.2906539489550264,2.0926770269568586,-0.8471316999471553,no_tremor
47,8947756,0.282,-0.19393019738686695,-0.20114571676341875,-1.0080004431498613,1.2654308124904556,2.1274154902600944,-0.8600379407287969,no_tremor
48,8947761,0.287,-0.193642471165962,-0.20115700890139093,-1.0080755781383801,1.2399152470762964,2.1595008102798956,-0.8706741397024802,no_tremor
49,8947766,0.292,-0.1933474256977837,-0.20117394154964924,-1.008168522021456,1.2141491778812663,2.1880980019519356,-0.8788274823134066,no_tremor
50,8947770,0.296,-0.19304692614233623,-0.20119670539866702,-1.0082790239017254,1.188174670222448,2.2123175447858165,-0.8843029427311961,no_tremor
51,8947776,0.302,-0.19274299439520315,-0.20122538029151157,-1.0084067236153138,1.1620353681657047,2.2312227387907666,-0.8869251408208175,no_tremor
52,8947780,0.306,-0.19243780308807779,-0.20125993404106876,-1.0085511558236446,1.1357780448361603,2.2438380620904828,-0.8865402849414706,no_tremor
53,8947785,0.311,-0.19213366862840456,-0.20130022223555985,-1.0087117547087217,1.1094542346778562,2.249158476457847,-0.8830181895866173,no_tremor
54,8947790,0.316,-0.191833043223771,-0.2013459891363427,-1.0088878590950436,1.0831219171216038,2.2461596122313043,-0.8762543533269204,no_tremor
55,8947800,0.326,-0.19153850581072573,-0.2013968697661868,-1.009078717818355,1.0568472208064486,2.2338087543291465,-0.8661720795593892,no_tremor
56,8947805,0.331,-0.19125275178521534,-0.20145239327498826,-1.0092834951622724,1.0307061172255731,2.2110765478745202,-0.8527246194845591,no_tremor
57,8947810,0.336,-0.1909785814174063,-0.2015119876528699,-1.009501276188239,1.0047860717278163,2.176949346019885,-0.8358973131732425,no_tremor
58,8947835,0.361,-0.1907188868321284,-0.20157498583792985,-1.0097310717923773,0.9791876181492931,2.1304421325149256,-0.8157097004870808,no_tremor
59,8947839,0.365,-0.19047663745080934,-0.20164063323855866,-1.0099718233353048,0.9540258218424347,2.070611963365656,-0.7922175689678502,no_tremor
60,8947844,0.37,-0.19025486382080536,-0.20170809666035774,-1.0102224067092154,0.9294315955834014,1.9965718798531473,-0.765514900811641,no_tremor
61,8947849,0.375,-0.1900566397978885,-0.20177647459805387,-1.0104816357325805,0.9055528341429536,1.9075052440261635,-0.7357356763292939,no_tremor
62,8947854,0.38,-0.18988506308909775,-0.20184480882567726,-1.0107482647982529,0.8825553356078254,1.8026804356656887,-0.7030554876861923,no_tremor
63,8947859,0.385,-0.18974323419877856,-0.20191209719432734,-1.0110209907453525,0.8606234800576154,1.6814658289732858,-0.6676929148634285,no_tremor
64,8947864,0.39,-0.18963423384594602,-0.2019773075252296,-1.0112984539767504,0.8399606389550723,1.5433449422309375,-0.6299106160929201,no_tremor
65,8947869,0.395,-0.18956109893456619,-0.20203939246507288,-1.0115792388988902,0.8207892921538155,1.387931628053928,-0.5900160876566897,no_tremor
66,8947878,0.404,-0.18952679716078938,-0.20209730514971105,-1.0118618738155831,0.8033508337036125,1.2149851477041296,-0.5483620526896366,no_tremor
67,8947888,0.414,-0.18953420033641397,-0.20215001550089046,-1.0121448304589171,0.7879050518612226,1.024424951299721,-0.5053464448313976,no_tremor
68,8947893,0.419,-0.1895860565037571,-0.20219652695944038,-1.0124265233850387,0.7747292726043982,0.8163449670841771,-0.46141195942017504,no_tremor
69,8947897,0.423,-0.1896849609228377,-0.20223589343917606,-1.0127053094967495,0.7641171602724736,0.5910271873498315,-0.41704515179916973,no_tremor
70,8947902,0.428,-0.18983332603101283,-0.20226723627104107,-1.0129794879757414,0.7563771746923325,0.3489543265104571,-0.37277506884875583,no_tremor
71,8947907,0.433,-0.19003335050344966,-0.20228976089877282,-1.0132473009138085,0.7518306914478498,0.09082131924754688,-0.32917140569046166,no_tremor
72,8947912,0.438,-0.1902869875732951,-0.20230277308638797,-1.0135069349255832,0.7508098000173872,-0.1824545745539825,-0.28684218417136975,no_tremor
73,8947917,0.443,-0.19059591280061744,-0.2023056944035625,-1.0137565240077493,0.7536548020260442,-0.46972528440087596,-0.24643095301963033,no_tremor
74,8947922,0.448,-0.19096149151092742,-0.20229807676622605,-1.0139941538840775,0.7607114375764668,-0.7696052741698745,-0.20861351185197996,no_tremor
75,8947927,0.453,-0.19138474616011392,-0.20227961582474466,-1.0142178680444465,0.7723278709502219,-1.0804669063216363,-0.17409416330421762,no_tremor
76,8947931,0.457,-0.1918663239249549,-0.20225016300917537,-1.0144256756511305,0.7888514683410718,-1.4004379888497152,-0.14360150004275155,no_tremor
77,8947957,0.483,-0.19240646486782648,-0.20220973605866283,-1.0146155614483416,0.8106254007719348,-1.7274016422944185,-0.11788373639097098,no_tremor
78,8947962,0.488,-0.19300497107965817,-0.20215852787910646,-1.0147854977721795,0.8379851060023732,-2.058998599217284,-0.09770359755542503,no_tremor
79,8947967,0.493,-0.19366117726158738,-0.2020969135898586,-1.0149334587186307,0.871254644772941,-2.392632028323136,-0.08383278276658014,no_tremor
80,8947972,0.498,-0.19437392325376074,-0.2020254556378046,-1.0150574364881089,0.9107429894940581,-2.7254749643371423,-0.07704602206100813,no_tremor
81,8947977,0.503,-0.19514152904858775,-0.20194490687775285,-1.0151554598876802,0.9567402871190331,-3.05448042390026,-0.07811475022539222,no_tremor
82,8947982,0.508,-0.19596177282842814,-0.20185621154321268,-1.0152256149379801,1.009514141383422,-3.376394292461003,-0.08780042609089317,no_tremor
83,8947986,0.512,-0.1968318725432424,-0.20176050406184462,-1.0152660675021214,1.0693059617446736,-3.6877710700117463,-0.10684753114676532,no_tremor
84,8947991,0.517,-0.19774847149619454,-0.20165910570453907,-1.0152750878293193,1.1363274265849008,-3.9849925590350272,-0.13597628789848967,no_tremor
85,8947996,0.522,-0.19870762834151048,-0.20155351909487415,-1.015251076886493,1.2107571063207518,-4.264289564028825,-0.17587514462122186,no_tremor
86,8948011,0.537,-0.19970481182746672,-0.201445420644719,-1.0151925943356248,1.2927372882482329,-4.521766648819116,-0.22719307835063354,no_tremor
87,8948016,0.542,-0.20073490054703907,-0.2013366510197159,-1.015098388000882,1.3823710402439804,-4.753429967848785,-0.2905317716324902,no_tremor
88,8948020,0.546,-0.2017921878978769,-0.20122920377278763,-1.0149674246538962,1.479719546316494,-4.955218154768622,-0.3664377205361892,no_tremor
89,8948025,0.551,-0.20287039240859672,-0.2011252123123182,-1.0147989219239022,1.584799744433995,-5.1230362204346465,-0.45539433206809765,no_tremor
90,8948030,0.556,-0.20396267356275893,-0.20102693539275887,-1.0145923811080948,1.6975822959446798,-5.252792385586621,-0.557814069469136,no_tremor
91,8948035,0.561,-0.20506165324268272,-0.20093674132906114,-1.0143476206152229,1.8179899155148576,-5.340437750710145,-0.6740307052441834,no_tremor
92,8948040,0.566,-0.20615944291525745,-0.20085709114369893,-1.0140648097233391,1.9458960903215359,-5.382008684297814,-0.8042917446745582,no_tremor
93,8948045,0.571,-0.207247676682218,-0.20079052085766538,-1.013744502273747,2.0811242170268645,-5.373671788030384,-0.9487510863838483,no_tremor
94,8948050,0.576,-0.20831755031014568,-0.20073962313593058,-1.013387669861065,2.2234471843575596,-5.311771271138932,-1.1074619902276932,no_tremor
95,8948055,0.581,-0.20935986633548628,-0.20070702849400648,-1.0129957340173001,2.3725874271136873,-5.192878535003134,-1.2803704258477602,no_tremor
96,8948079,0.605,-0.2103650853048413,-0.2006953862653956,-1.0125705968286622,2.5282174737170635,-5.013843732354401,-1.4673088777599186,no_tremor
97,8948084,0.61,-0.21132338316142363,-0.20070734551920483,-1.0121146693699585,2.6899610045388105,-4.771849023916522,-1.667990685011177,no_tremor
98,8948089,0.615,-0.21222471472892088,-0.20074553610229479,-1.0116308972954051,2.8573944334087473,-4.4644632106397575,-1.882004995157583,no_tremor
99,8948094,0.62,-0.21305888318090044,-0.20081254996059247,-1.0111227828899139,3.030049020681935,-4.089697374076954,-2.1088124133039026,no_tremor
100,8948099,0.625,-0.21381561532433419,-0.2009109228702642,-1.0105944028646576,3.2074135228266187,-3.6460611131215246,-2.3477414270071284,no_tremor
101,8948104,0.63,-0.21448464247378538,-0.2010431166833364,-1.0100504211771884,3.3889373800768063,-3.132618924068619,-2.5979856870912768,no_tremor
102,8948108,0.634,-0.2150557866482085,-0.20121150216694317,-1.0094960961701906,3.5740344399301716,-2.549046233618011,-2.8586022231921846,no_tremor
103,8948114,0.64,-0.21551905178250622,-0.20141834249348603,-1.0089372813534245,3.7620872100696987,-1.8956845608342114,-3.1285106714499435,no_tremor
104,8948118,0.644,-0.2158647196075353,-0.20166577742259859,-1.0083804191990196,3.9524516293188303,-1.1735952537456449,-3.406493590223602,no_tremor
105,8948123,0.649,-0.2160834498119006,-0.20195580820587203,-1.0078325273787674,4.14446233906854,-0.38461121918808244,-3.6911979376225608,no_tremor
106,8948128,0.654,-0.2161663840538831,-0.20229028324185583,-1.0073011769407627,4.337438430444823,0.468613958735724,-3.9811377812722797,no_tremor
107,8948133,0.659,-0.2161052533401649,-0.20267088451123283,-1.0067944619988987,4.53068963543536,1.3825601345161596,-4.274698305274115,no_tremor
108,8948138,0.664,-0.21589248822832158,-0.20309911482908624,-1.0063209605895567,4.723522924384701,2.352798586163599,-4.570141171237166,no_tremor
109,8948143,0.669,-0.21552133124175699,-0.20357628596127994,-1.0058896864327838,4.915249467804871,3.3739545074828725,-4.865611279309369,no_tremor
110,8948147,0.673,-0.2149859508089125,-0.20410350766345314,-1.0055100314180618,5.10519191661108,4.439674640195828,-5.1591449615073,no_tremor
111,8948157,0.683,-0.21428155595383658,-0.20468167771232657,-1.0051916987158902,5.292691950978559,5.542600664065029,-5.448679624057003,no_tremor
112,8948162,0.688,-0.21340451087381984,-0.2053114730085308,-1.0049446264949111,5.477118043807793,6.674348942516918,-5.732064838775402,no_tremor
113,8948167,0.693,-0.2123524484437981,-0.2059933418369779,-1.0047789023000846,5.6578733805388906,7.825497196346859,-6.0070748661851745,no_tremor
114,8948172,0.698,-0.21112438158939323,-0.20672749737427598,-1.004704668220884,5.834403873082785,8.985578649559008,-6.271422575049781,no_tremor
115,8948177,0.703,-0.2097208113742489,-0.20751391253250373,-1.0047320170507232,6.006206201741708,10.143084159060983,-6.522774704413914,no_tremor
116,8948206,0.732,-0.2081438305567031,-0.20835231622472883,-1.0048708797113863,6.172835814703557,11.285472803641184,-6.75876839562681,no_tremor
117,8948211,0.737,-0.20639722129051147,-0.20924219113030199,-1.005130904291207,6.333914810148681,12.399191367137325,-6.977028904055774,no_tremor
118,8948216,0.742,-0.2044865455800076,-0.21018277302828237,-1.0055213271257104,6.489139621969526,13.469703105103237,-7.175188383627741,no_tremor
119,8948221,0.747,-0.2024192270578212,-0.2111730517572436,-1.0060508364371485,6.638288427006948,14.481526132183843,-7.350905621465739,no_tremor
120,8948231,0.757,-0.20020462263711686,-0.2122117738509659,-1.00672742914674,6.781228189262123,15.418281707153524,-7.501886583864847,no_tremor
121,8948236,0.762,-0.19785408260012904,-0.2132974468926725,-1.0075582615804266,6.917921254506233,16.26275262250164,-7.625905618399116,no_tremor
122,8948240,0.766,-0.19538099771653397,-0.21442834562450813,-1.0085494949040295,7.0484314076385655,16.99695182414347,-7.720827140737347,no_tremor
123,8948250,0.776,-0.1928008320334009,-0.21560251984204207,-1.0097061362445812,7.172929306051147,17.602201293636494,-7.78462762003014,no_tremor
124,8948255,0.781,-0.19013114003845066,-0.21681780409377654,-1.011031876579245,7.291697205578073,18.05922112117022,-7.815417664734234,no_tremor
125,8948259,0.785,-0.18739156696756373,-0.2180718291912686,-1.0125289265995245,7.405132900694879,18.34822858570062,-7.811464002142097,no_tremor
126,8948264,0.79,-0.18460383110577724,-0.21936203551522476,-1.0141978518840291,7.5137528062685615,18.449046943505145,-7.7712111395751675,no_tremor
127,8948274,0.8,-0.1817916870205461,-0.2206856880760509,-1.016037408835212,7.618194113402499,18.341223512679637,-7.693302492417866,no_tremor
128,8948278,0.804,-0.17898086877115094,-0.22203989325376106,-1.0180443829510772,7.719215956554397,18.004156531930782,-7.576600763110835,no_tremor
129,8948288,0.814,-0.17619901226505857,-0.22342161710256164,-1.0202134311083517,7.817699533512945,17.41723016886238,-7.420207355705143,no_tremor
130,8948293,0.819,-0.17347555608792795,-0.22482770506129102,-1.0225369296251434,7.914647124630473,16.559956955336368,-7.223480612964746,no_tremor
131,8948298,0.824,-0.1708416203249487,-0.22625490286430475,-1.025004829944845,8.011179963564816,15.412126833295481,-6.986052667380642,no_tremor
132,8948324,0.85,-0.1683298631201575,-0.22769987840081607,-1.027604523835863,8.108534919288683,13.953961900661398,-6.707844703347573,no_tremor
133,8948329,0.855,-0.16597431498439064,-0.22915924422694653,-1.0303207200320168,8.208059958913601,12.166275850558728,-6.389080434773621,no_tremor
134,8948333,0.859,-0.16381019115049075,-0.2306295803975087,-1.0331353342465468,8.311208373667153,10.030636995804382,-6.03029761071108,no_tremor
135,8948338,0.864,-0.1618736825675425,-0.23210745725845608,-1.0360273944806304,8.419531766702576,7.529533663942139,-5.632357371526099,no_tremor
136,8948343,0.869,-0.16020172640455863,-0.2335894578298012,-1.0389729635174687,8.534671821113442,4.646540639568799,-5.196451289739158,no_tremor
137,8948348,0.874,-0.15883175718612044,-0.23507219941330748,-1.0419450804462216,8.658350888486316,1.3664852277302373,-4.724105943023086,no_tremor
138,8948353,0.879,-0.15780143990633466,-0.23655235407683778,-1.0449137229951513,8.792361461129325,-2.32438857636202,-4.217184882363561,no_tremor
139,8948357,0.883,-0.1571483866680051,-0.2380266676940644,-1.0478457923675364,8.938554613334224,-6.438259392207319,-3.677887876789716,no_tremor
140,8948367,0.893,-0.15690985857816483,-0.23949197725098156,-1.050705122163673,9.098827516895932,-10.985572852041235,-3.1087473377310144,no_tremor
141,8948372,0.898,-0.15712245480646192,-0.24094522616704678,-1.0534525128334615,9.275110151556543,-15.974892715892222,-2.5126218503716418,no_tremor
142,8948377,0.903,-0.15782179088696324,-0.24238347741759292,-1.056045792932014,9.469351340539095,-21.412760299926546,-1.8926867650854897,no_tremor
143,8948382,0.908,-0.15904216852422248,-0.24380392428506636,-1.0584399082406946,9.683504244710203,-27.303563756178914,-1.2524218279566486,no_tremor
144,8948387,0.913,-0.16081623935674877,-0.24520389860972083,-1.0605870395650336,9.919511447427613,-33.649418657423034,-0.5955958548362753,no_tremor
145,8948392,0.918,-0.16317466533716574,-0.24658087645548535,-1.0624367497296794,10.179289757890741,-40.45006123566961,0.07375152193982051,no_tremor
146,8948396,0.922,-0.1661457786050229,-0.24793248115316824,-1.063936159963723,10.46471485566669,-47.7027555024946,0.7513309812847183,no_tremor
147,8948401,0.927,-0.16975524394730904,-0.2492564837299578,-1.0650301555149166,10.777605893861706,-55.40221535046362,1.432627439778156,no_tremor
148,8948406,0.932,-0.174025727151607,-0.25055080078026576,-1.0656616199578552,11.11971017317522,-63.540542603076204,2.112926678436193,no_tremor
149,8948411,0.937,-0.17897657274357562,-0.2518134898773278,-1.065771697279482,11.492687993681871,-72.10718184939638,2.7873445477954326,no_tremor
150,8948416,0.942,-0.1846234947487464,-0.2530427426667355,-1.065300080446714,11.898097785905973,-81.08889276925534,3.450858602710568,no_tremor
151,8948421,0.947,-0.19097828421269933,-0.2542368758214567,-1.0641853247975173,12.337381618348676,-90.46974052321978,4.098341988121955,no_tremor
152,8948447,0.973,-0.19804853723838942,-0.2553943200722146,-1.0623651842598751,12.811851176011148,-100.23110464432402,4.724599363880196,no_tremor
153,8948452,0.978,-0.20583740724311375,-0.2565136075564685,-1.0597769681027318,13.322674304506728,-110.35170672304405,5.324404621596564,no_tremor
154,8948457,0.983,-0.21434338499804684,-0.257593357752245,-1.0563579156671352,13.870862218010265,-120.80765702589537,5.892540111222454,no_tremor
155,8948461,0.987,-0.22356010980232957,-0.25863226227773706,-1.0520455863197584,14.457257476720184,-131.57252003855754,6.4238370629000086,no_tremor
156,8948466,0.992,-0.2334762148848662,-0.259629068842362,-1.0467782617149488,15.082522848407415,-142.61739877916855,6.913216863932331,no_tremor
157,8948476,1.002,-0.24407520984584807,-0.26058256462998847,-1.0404953573392872,15.747131174268922,-153.91103757928204,7.35573283238647,no_tremor
158,8948481,1.007,-0.25533540266573235,-0.26149155938281665,-1.0331378402342304,16.451356357386686,-165.41994287043786,7.746612116087275,no_tremor
159,8948486,1.012,-0.26722986353127626,-0.2623548684393887,-1.024648649738122,17.19526558134607,-177.1085213452348,8.081297336492607,no_tremor
160,8948491,1.017,-0.2797264324546432,-0.2631712959678869,-1.014973118052215,17.978712848504344,-188.93923469613716,8.355487590581818,no_tremor
161,8948496,1.022,-0.29278777237944864,-0.26393961863136933,-1.0040593874139982,18.80133390458194,-200.87276998742965,8.565178421210117,no_tremor
162,8948500,1.026,-0.3063714691541491,-0.2646585699284072,-0.9918588206568442,19.66254259113507,-212.868224593188,8.706700368349768,no_tremor
163,8948505,1.031,-0.3204301793799641,-0.2653268254720764,-0.9783264019526031,20.56152864180106,-224.88330453562128,8.776755720621782,no_tremor
164,8948520,1.046,-0.334911826677769,-0.26594298950181094,-0.9634211245791144,21.497256912804303,-236.87453497719872,8.77245309828002,no_tremor
165,8948530,1.056,-0.34975984634190566,-0.2665055829637897,-0.9471063626324202,22.46846801358426,-248.7974815513407,8.691339514975875,no_tremor
166,8948535,1.061,-0.36491347765129206,-0.2670130335414895,-0.9293502237146513,23.47368028041028,-260.6069811621029,8.531429586111807,no_tremor
167,8948539,1.065,-0.38030810230648204,-0.2674636680614059,-0.9101258797680919,24.51119301515403,-272.2573808496497,8.291231576380254,no_tremor
168,8948544,1.07,-0.3958756265913258,-0.2678557077310878,-0.8894118733848653,25.579090892354127,-283.7027833037166,7.969770007596646,no_tremor
169,8948572,1.098,-0.4115449039630014,-0.2681872666803156,-0.8671923970923529,26.675249418405095,-294.8972975952934,7.566604578790218,no_tremor
170,8948577,1.103,-0.4272421939038219,-0.2684563542673793,-0.8434575432917903,27.79734130608952,-305.795293668309,7.081845182131624,no_tremor
171,8948582,1.108,-0.442891652087468,-0.26866088157960644,-0.8182035227033786,28.942843608315574,-316.3516590844624,6.516162829444684,no_tremor
172,8948597,1.123,-0.4584158462992681,-0.2687986725008857,-0.7914328493319447,30.109045442934917,-326.5220564589823,5.870796334012168,no_tremor
173,8948602,1.128,-0.4737362921660621,-0.26886747964035945,-0.7631544901024881,31.29305614215716,-336.2631799794104,5.147554620715128,no_tremor
174,8948607,1.133,-0.48877400261033155,-0.26886500531747737,-0.7333839774292049,32.49181367897234,-345.53300937366566,4.348814563978417,no_tremor
175,8948611,1.137,-0.5034500450159002,-0.26878892767992735,-0.7021434830922229,33.70209325948967,-354.2910596937601,3.47751427763268,no_tremor
176,8948616,1.142,-0.5176861003292212,-0.26863693189217996,-0.6694618519244975,34.920516020220525,-362.49862530889095,2.5371418050837957,no_tremor
177,8948621,1.147,-0.5314050186686773,-0.26840674617378674,-0.6353745939765647,36.14355782466438,-370.11901654814324,1.5317191852464571,no_tremor
178,8948626,1.152,-0.54453136642441,-0.268096182291213,-0.5999238340452969,37.36755820500199,-377.11778748568736,0.4657819027953225,no_tremor
179,8948631,1.157,-0.5569919602593594,-0.26770317992116666,-0.5631582177351961,38.58872953659455,-383.4629534118429,-0.6556462282301732,no_tremor
180,8948636,1.162,-0.5687163838347624,-0.2672258541160113,-0.525132773570892,39.80316656334173,-389.12519657929954,-1.8270826513254574,no_tremor
181,8948645,1.171,-0.5796374834572838,-0.26666254492353064,-0.485908731093699,41.00685641086658,-394.0780588532026,-3.0426199766846302,no_tremor
182,8948650,1.176,-0.5896918391677154,-0.2660118680557971,-0.4455532953403391,42.19568923375289,-398.2981199228892,-4.295964008734957,no_tremor
183,8948655,1.181,-0.5988202080617095,-0.2652727653776901,-0.4041393785953868,43.36546964624821,-401.7651597482282,-5.5804756303729555,no_tremor
184,8948660,1.186,-0.6069679368622269,-0.2644445539064346,-0.36174529080508605,44.51192908727507,-404.4623039129431,-6.889216224677909,no_tremor
185,8948665,1.191,-0.6140853409714672,-0.26352697198678526,-0.3184543905241154,45.63073927294069,-406.376150540323,-8.214996260965288,no_tremor
186,8948693,1.219,-0.6201280474410321,-0.26252022133221153,-0.27435469874138485,46.71752689200546,-407.4968773954651,-9.55042662539098,no_tremor
187,8948698,1.224,-0.6250572995365339,-0.26142500369396865,-0.22953847840594366,47.76788969709975,-407.8183277654581,-10.887972239848596,no_tremor
188,8948707,1.233,-0.6288402208571172,-0.26024255102807875,-0.18410178294416066,48.77741412985746,-407.3380737069181,-12.220007488191465,no_tremor
189,8948712,1.238,-0.6314500373115092,-0.25897464816742566,-0.13814397749068114,49.741694585824284,-406.0574553232368,-13.538872955220189,no_tremor
190,8948717,1.243,-0.6328662556387675,-0.25762364716848973,-0.09176723690004136,50.65635437466896,-403.9815949107018,-14.836932978144578,no_tremor
191,8948722,1.248,-0.6330747975578124,-0.25619247268875706,-0.04507602483027061,51.517068368912675,-401.1193850868877,-16.10663350773933,no_tremor
192,8948727,1.253,-0.6320680889899085,-0.25468461796090036,0.0018234417077114817,52.31958726798374,-397.4834503541204,-17.340559773580342,no_tremor
193,8948732,1.258,-0.6298451040909,-0.25310413116054736,0.04882373793936644,53.05976333850487,-393.0900819197292,-18.531493243664272,no_tremor
194,8948736,1.262,-0.6264113640475554,-0.25145559220989266,0.09581678272973376,53.733577427460766,-387.95914596503246,-19.672467364953924,no_tremor
195,8948741,1.267,-0.6217788907472126,-0.24974408031143983,0.14269439159467395,54.33716698308308,-382.1139659053895,-20.756821570166238,no_tremor
196,8948746,1.272,-0.6159661155465661,-0.24797513275560443,0.1893488272633284,54.86685476120339,-375.58117949887,-21.778253038325794,no_tremor
197,8948756,1.282,-0.6089977434757745,-0.2461546957832266,0.23567334390201794,55.31917784575902,-368.39057193206935,-22.730865701851226,no_tremor
198,8948761,1.287,-0.6009045733552345,-0.24428906849927912,0.2815627212884074,55.69091657462041,-360.5748862356284,-23.609216001543572,no_tremor
199,8948766,1.292,-0.5917232745163323,-0.24238484101622962,0.32691378541490684,55.979122939131145,-352.16961256364135,-24.408354905668382,no_tremor
200,8948781,1.307,-0.5814961211475609,-0.24044882814335494,0.37162591220370766,56.181148019463194,-343.21275802474804,-25.12386573524497,no_tremor
201,8948785,1.311,-0.5702706857673394,-0.23848800002421333,0.4156015112263923,56.29466802689582,-333.7445989038367,-25.751897378194396,no_tremor
202,8948813,1.339,-0.558099493962007,-0.23650941115915305,0.4587464865200444,56.31770854430718,-323.8074172926352,-26.289192528561735,no_tremor
203,8948818,1.344,-0.5450396432827652,-0.23452012924196303,0.5009706717564649,56.248666584226974,-313.4452243736359,-26.733110646650722,no_tremor
204,8948838,1.364,-0.5311523899669961,-0.2325271651993786,0.5421882371405337,56.08633012232296,-302.7034728598696,-27.081645393590176,no_tremor
205,8948842,1.368,-0.5165027077880134,-0.23053740575067921,0.5823180655025382,55.82989481954806,-291.6287613304362,-27.3334363465013,no_tremor
206,8948847,1.373,-0.5011588237139513,-0.228557549691572,0.6212840951517503,55.47897771733953,-280.26853335287444,-27.487774852379665,no_tremor
207,8948852,1.378,-0.4851917351365835,-0.22659404893656096,0.659015627236593,55.03362776293549,-268.67077430654973,-27.544603937850887,no_tremor
208,8948857,1.383,-0.4686747132813912,-0.22465305512116657,0.6954475956607646,54.49433307888951,-256.8837087194222,-27.504512262145468,no_tremor
209,8948862,1.388,-0.4516827971429163,-0.22274037228310473,0.7305207980453068,53.862024926576986,-244.95550074431048,-27.36872217886294,no_tremor
210,8948867,1.393,-0.4342922820038796,-0.22086141583919283,0.7641820867720786,53.13807833481012,-232.93396017883754,-27.13907205148869,no_tremor
211,8948872,1.398,-0.4165802063566827,-0.2190211777858143,0.7963845197416979,52.324309381154904,-220.86625620983696,-26.817993043251562,no_tremor
212,8948877,1.403,-0.398623840880247,-0.2172241978035289,0.8270874710766004,51.42296912970406,-208.79864085749344,-26.40848067318656,no_tremor
213,8948882,1.408,-0.38050018303497685,-0.2154745397607786,0.8562567025542956,50.436734244489834,-196.77618391970444,-25.91406149891958,no_tremor
214,8948886,1.412,-0.3622854608076024,-0.21377577299916056,0.8838643970331584,49.368694311556936,-184.84252108021494,-25.33875535292496,no_tremor
215,8948892,1.418,-0.3440546491388949,-0.21213095774713384,0.9098891555075035,48.2223359175091,-173.0396167436777,-24.687033619573725,no_tremor
216,8948896,1.422,-0.325881002568042,-0.21054263404667187,0.9343159596828629,47.00152355383517,-161.40754308821235,-23.96377409011239,no_tremor
217,8948901,1.427,-0.3078356075955582,-0.20901281367790944,0.9571361020876739,45.710477449718056,-149.98427676895545,-23.17421296836778,no_tremor
218,8948906,1.432,-0.28998695818021736,-0.20754297471422284,0.9783470857343969,44.35374848297662,-138.8055146513626,-22.323894622055477,no_tremor
219,8948911,1.437,-0.27240055764019455,-0.20613405851461428,0.9979524952208807,42.936190377380136,-127.90450988782327,-21.418619687744453,no_tremor
220,8948938,1.464,-0.2551385500341615,-0.2047864691406957,1.015961840940486,41.46292946000788,-117.31192956296103,-20.4643921484567,no_tremor
221,8948943,1.469,-0.23825938386845888,-0.20350007535192102,1.0323903777807604,39.93933231569395,-107.05573500711267,-19.467366015389743,no_tremor
222,8948948,1.474,-0.22181751072002442,-0.20227421546741353,1.0472588993937786,38.370971723524335,-97.16108569407058,-18.433792254550834,no_tremor
223,8948953,1.479,-0.2058631210795055,-0.20110770547299772,1.0605935088973957,36.76359128089656,-87.6502673802388,-17.369966592596107,no_tremor
224,8948958,1.484,-0.1904419193966424,-0.199998850793611,1.072425366787394,35.1230691126898,-78.54264481062161,-16.282178804186202,no_tremor
225,8948962,1.488,-0.17559493994476497,-0.198945462149707,1.0827904169311529,33.45538103745165,-69.85463894415291,-15.176664028090677,no_tremor
226,8948967,1.493,-0.16135840471353283,-0.19794487588252516,1.0917290917478912,31.766563532210057,-61.599728278927806,-14.059556592137579,no_tremor
227,8948972,1.498,-0.14776362409254695,-0.19699397907674668,1.099285998007435,30.06267680940988,-53.78847351596484,-12.936846757850143,no_tremor
228,8948977,1.503,-0.13483694062744922,-0.19608923973491257,1.1055095850473426,28.349768294884537,-46.42856449962671,-11.814340728446709,no_tremor
229,8948981,1.507,-0.12259971562119913,-0.19522674216703984,1.1104517975741879,26.633836774568113,-39.524888116174445,-10.697624198557241,no_tremor
230,8948986,1.512,-0.11106835782776216,-0.19440222765051846,1.114167715545356,24.920797459921914,-33.07961561924998,-9.59202965869532,no_tremor
231,8948996,1.522,-0.10025439295938944,-0.19361114028907078,1.116715183898165,23.216448207773944,-27.092307682100472,-8.502607601432874,no_tremor
232,8949001,1.527,-0.09016457221995806,-0.1928486778559637,1.1181544350867902,21.526437118576546,-21.560035350348016,-7.434101711029323,no_tremor
233,8949006,1.532,-0.08080101760316341,-0.192109847248496,1.1185477074944665,19.856231725935064,-16.477514984605868,-6.39092805727955,no_tremor
234,8949011,1.537,-0.07216140127158113,-0.1913895240134442,1.1179588628052706,18.211089977332048,-11.837255236994457,-5.377158260333517,no_tremor
235,8949015,1.541,-0.06423915597304931,-0.1906825152349176,1.1164530053504824,16.596033190234543,-7.629714096474069,-4.396506546811493,no_tremor
236,8949020,1.546,-0.05702371316156145,-0.18998362491736287,1.1140961063016592,15.015821149864951,-3.843464060669718,-3.4523205771318284,no_tremor
237,8949025,1.551,-0.05050076527247038,-0.18928772085814813,1.1109546353855628,13.474929495831473,-0.46536354138959546,-2.5475758872953214,no_tremor
238,8949030,1.556,-0.04465254845331777,-0.18858980189576446,1.1070952025674914,11.977529524795656,2.519267318281038,-1.6848737543181742,no_tremor
239,8949035,1.561,-0.0394581419660218,-0.1878850643483239,1.1025842119113005,10.52747051549693,5.126468151414908,-0.866442263998272,no_tremor
240,8949061,1.587,-0.03489378044617178,-0.18716896642734587,1.0974875295954913,9.128264661625268,7.373458839830242,-0.0941403348552017,no_tremor
241,8949066,1.592,-0.030933175224598725,-0.18643728942633253,1.0918701678592004,7.783074678038159,9.278460493164046,0.6305355652351147,no_tremor
242,8949075,1.601,-0.027547840983125658,-0.18568619454304608,1.0857959864755717,6.494704125647291,10.860518377491818,1.3064422820155739,no_tremor
243,8949080,1.606,-0.024707424133699855,-0.1849122742969772,1.0793274131976527,5.26559047742214,12.139328141913147,1.932778690051159,no_tremor
244,8949085,1.611,-0.022380029483255043,-0.18411259764339774,1.0725251844785986,4.097800921007652,13.135066599464821,2.509072525918249,no_tremor
245,8949090,1.616,-0.020532541976860066,-0.1832847480521959,1.0654481076147135,2.9930308639336656,13.868228224949917,3.0351655938519437,no_tremor
246,8949100,1.626,-0.019130940592649207,-0.18242685400078396,1.0581528452815265,1.9526050783764843,14.359468431823982,3.5111975854714568,no_tremor
247,8949105,1.631,-0.018140601780979787,-0.18153761151439704,1.050693723222469,0.9774813963651189,14.629454579936754,3.937588742299327,no_tremor
248,8949110,1.636,-0.017526590180983386,-0.1806162985653854,1.043122561606949,0.06825684425832468,14.698725544772334,4.315021577098986,no_tremor
249,8949114,1.64,-0.01725393469273686,-0.17966278130895547,1.0354885303048056,-0.774823912703488,14.587560547904154,4.644421857664963,no_tremor
250,8949119,1.645,-0.017287888316586425,-0.17867751228122794,1.027838028036621,-1.5518579595514084,14.315857810511147,4.92693904497057,no_tremor
251,8949124,1.65,-0.017594170480880893,-0.17766152081371514,1.0202145850678617,-2.2632715104553847,13.903023451420362,5.163926366795673,no_tremor
252,8949129,1.655,-0.018139190859450174,-0.17661639602618465,1.0126587888357044,-2.909805444297046,13.367870913638814,5.356920697990346,no_tremor
253,8949134,1.66,-0.018890253929472613,-0.17554426284897287,1.0052082316465467,-3.492499174220944,12.728531073860262,5.507622408805469,no_tremor
254,8949139,1.665,-0.019815743740883594,-0.17444775159843395,0.997897479372344,-4.012673037839073,12.002373071596246,5.617875332442778,no_tremor
255,8949144,1.67,-0.020885288563971097,-0.17332996168768067,0.9907580599136905,-4.471909402510013,11.205935790086594,5.689646991566562,no_tremor
256,8949148,1.674,-0.022069905257265533,-0.17219442010118094,0.983818470091107,-4.872032684999277,10.354869830496716,5.725009211004263,no_tremor
257,8949153,1.679,-0.023342123359068868,-0.17104503529793805,0.9771041995730299,-5.215088485796145,9.463889744027027,5.726119230753203,no_tremor
258,8949158,1.684,-0.02467608905913063,-0.16988604723559547,0.9706377704452109,-5.50332203535194,8.54673622267727,5.695201420136123,no_tremor
259,8949183,1.709,-0.026047649357811745,-0.16872197422854923,0.9644387910639973,-5.739156143496956,7.616147897114189,5.634529680533168,no_tremor
260,8949188,1.714,-0.027434416872956377,-0.16755755736851255,0.9585240229041166,-5.925168835484216,6.683842347525545,5.546410610599906,no_tremor
261,8949193,1.719,-0.028815815911517797,-0.1663977032467642,0.9529074591941953,-6.064070849310239,5.760505897600381,5.433167495025433,no_tremor
262,8949197,1.723,-0.030173110582102935,-0.16524742572334408,0.9476004142106276,-6.158683159603596,4.855791728610258,5.297125167004242,no_tremor
263,8949202,1.728,-0.0314894158804051,-0.1641117874889501,0.9426116221562498,-6.211914683569986,3.9783258163520236,5.140595786338437,no_tremor
264,8949207,1.733,-0.032749692823509154,-0.16299584215947782,0.9379473445793617,-6.2267403141659745,3.1357201580743026,4.965865568723723,no_tremor
265,8949212,1.738,-0.0339407288322022,-0.16190457763041483,0.933611485297153,-6.2061794148784335,2.334592722454883,4.775182495808122,no_tremor
266,8949226,1.752,-0.03505110465515726,-0.16084286139776283,0.9296057117865713,-6.1532748995184265,1.5805935274266165,4.570745028715367,no_tremor
267,8949231,1.757,-0.03607114919023458,-0.15981538852230262,0.9259295820051817,-6.071073009778959,0.878436231445786,4.354691839162132,no_tremor
268,8949236,1.762,-0.03699288358410655,-0.1588266328726788,0.9225806756119933,-5.962603893486675,0.23193461508673804,4.129092562123626,no_tremor
269,8949240,1.766,-0.037809955983015855,-0.1578808022277881,0.9195547285783432,-5.830863077914848,-0.355956668796396,3.895939563107032,no_tremor
270,8949250,1.776,-0.03851756826925079,-0.15698179774960536,0.9168457702141524,-5.678793925286369,-0.883097688538901,3.657140702905756,no_tremor
271,8949255,1.781,-0.039112396057474845,-0.15613317825590273,0.914446261685311,-5.5092711513030554,-1.348115767751417,3.4145130745842103,no_tremor
272,8949260,1.786,-0.039592503151316905,-0.15533812963260785,0.9123472351616377,-5.325085481465788,-1.750355538290212,3.16977768200276,no_tremor
273,8949265,1.791,-0.03995725158158685,-0.15459943963252518,0.9105384328083199,-5.128929513266709,-2.08982706920087,2.924555026033002,no_tremor
274,8949269,1.795,-0.040207208268642984,-0.15391947821428564,0.9090084449129261,-4.92338484458853,-2.3671526052246756,2.680361562747123,no_tremor
275,8949274,1.8,-0.040344049275658656,-0.15330018348438185,0.9077448465214565,-4.7109105202077926,-2.5835124222001964,2.4386069965692867,no_tremor
276,8949303,1.829,-0.0403704625478015,-0.15274305321632042,0.9067343320377659,-4.493832840139675,-2.740590276942887,2.2005923706707193,no_tremor
277,8949308,1.834,-0.040290049964946506,-0.15224914183429555,0.9059628473186675,-4.274336566354609,-2.840518895893847,1.9675089171359863,no_tremor
278,8949313,1.839,-0.04010722947300412,-0.1518190626653753,0.9054157188687845,-4.054457557573238,-2.885825911867369,1.7404376303823192,no_tremor
279,8949318,1.844,-0.039827138001950195,-0.15145299518665065,0.9050777798000386,-3.836076853578942,-2.87938062493193,1.5203495279167873,no_tremor
280,8949323,1.849,-0.03945553582705254,-0.151150696925427,0.9049334922659823,-3.620916219152419,-2.8243419340426903,1.3081065620763226,no_tremor
281,8949327,1.853,-0.03899871298170854,-0.15091151961346264,0.9049670661087701,-3.4105351434961406,-2.724107759617331,1.1044631454994829,no_tremor
282,8949332,1.858,-0.03846339828238421,-0.15073442915067653,0.9051625734671817,-3.206329275539905,-2.582266250921743,0.9100682526659954,no_tremor
283,8949337,1.863,-0.03785667147477873,-0.15061802889862239,0.9055040590901164,-3.0095302602590293,-2.40254904363615,0.7254680597968137,no_tremor
284,8949342,1.868,-0.03718587895284533,-0.15056058579806206,0.9059756460842524,-2.8212069264652757,-2.1887868018020487,0.5511090846581649,no_tremor
285,8949351,1.877,-0.03645855343769289,-0.15056005878714512,0.9065616368002372,-2.642267762428647,-1.9448672450717222,0.3873417855829916,no_tremor
286,8949356,1.882,-0.035682337932831175,-0.15061412898657783,0.9072466085325243,-2.473464602723178,-1.6746958274345292,0.2344245756181378,no_tremor
287,8949361,1.887,-0.03486491419899454,-0.15072023111622984,0.9080155036781947,-2.3153974388507153,-1.3821591979036505,0.0925282041614769,no_tremor
288,8949366,1.892,-0.03401393592066279,-0.15087558561526718,0.9088537139749883,-2.168520257858621,-1.0710915378944663,-0.03825954420006667,no_tremor
289,8949371,1.897,-0.03313696667245461,-0.15107723095680486,0.9097471584234608,-2.0331478066823996,-0.7452438355997888,-0.15792888513997988,no_tremor
290,8949376,1.902,-0.03224142274082369,-0.15132205567939547,0.9106823544967647,-1.9094631742905213,-0.4082561258793805,-0.2665428557128314,no_tremor
291,8949380,1.906,-0.0313345208170882,-0.1516068297015324,0.9116464822566122,-1.7975260783196017,-0.06363269574715494,-0.36423197189951156,no_tremor
292,8949385,1.911,-0.030423230551823128,-0.15192823454076085,0.9126274410267647,-1.6972817381126064,0.28527976920024023,-0.45118877298949367,no_tremor
293,8949390,1.916,-0.02951423194616019,-0.15228289212383006,0.9136138983258324,-1.6085702129978703,0.6353111427818373,-0.5276623033667172,no_tremor
294,8949395,1.921,-0.02861387754916947,-0.1526673919453486,0.9145953308276442,-1.5311360841016353,0.9834839826736101,-0.5939525822586365,no_tremor
295,8949400,1.926,-0.02772815942799567,-0.15307831640554112,0.9155620571970283,-1.4646383596864687,1.327026896785456,-0.6504051106265465,no_tremor
296,8949425,1.951,-0.026862680874451414,-0.1535122642284946,0.9165052627376562,-1.4086604870093897,1.6633852392244428,-0.69740546079351,no_tremor
297,8949430,1.956,-0.026022632804490485,-0.15396587192621616,0.9174170158823831,-1.3627203575872684,1.9902292361417524,-0.7353739889328982,no_tremor
298,8949435,1.961,-0.025212774792479572,-0.15443583332655605,0.9182902766505341,-1.3262801980601286,2.3054596552404965,-0.7647607040797096,no_tremor
299,8949440,1.966,-0.024437420659000255,-0.15491891722107057,0.9191188972862232,-1.2987562462139906,2.6072111454136433,-0.786040320326594,no_tremor
300,8949449,1.975,-0.02370042849964897,-0.155411983211022,0.9198976153735773,-1.2795281210857743,2.893853382466501,-0.7997075112677264,no_tremor
301,8949454,1.98,-0.023005195005568028,-0.15591199583802412,0.9206220397973514,-1.2679478067181302,3.16399016173127,-0.8062723776581626,no_tremor
302,8949459,1.985,-0.022354653887700294,-0.15641603708486743,0.9212886299814806,-1.2633481804774416,3.4164565790529555,-0.8062561312072862,no_tremor
303,8949464,1.99,-0.021751278178971097,-0.15692131732656361,0.9218946688948406,-1.265051028665673,3.6503144400528855,-0.8001869902452182,no_tremor
304,8949469,1.995,-0.021197086153715183,-0.15742518480492815,0.9224382303636666,-1.2723745041651433,3.8648460360139953,-0.7885962776295703,no_tremor
305,8949474,2.0,-0.02069365057300728,-0.15792513369349667,0.9229181412737337,-1.284639992489381,4.059546424737631,-0.7720147085223944,no_tremor
306,8949479,2.005,-0.02024211093938642,-0.1584188108133811,0.9233339392818951,-1.3011783632701428,4.234114356989555,-0.7509688558551342,no_tremor
307,8949484,2.01,-0.019843188426308597,-0.15890402105454715,0.9236858266848588,-1.3213355935929163,4.388441993601083,-0.7259777839648651,no_tremor
308,8949489,2.015,-0.019497203138279615,-0.15937873155087595,0.9239746211118796,-1.3444777578544282,4.52260356378458,-0.6975498451598465,no_tremor
309,8949493,2.019,-0.01920409335864701,-0.15984107465162917,0.9242017037162005,-1.3699953864221457,4.636843119892147,-0.6661796390437005,no_tremor
310,8949498,2.024,-0.018963436454365313,-0.16028934972732056,0.9243689655369829,-1.3973072027077449,4.731561546502535,-0.6323451397683572,no_tremor
311,8949503,2.029,-0.018774471130303512,-0.16072202384550394,0.9244787526891456,-1.4258632552679622,4.807302982756057,-0.5965050017431359,no_tremor
312,8949513,2.039,-0.018636120758004984,-0.1611377313526702,0.9245338110135872,-1.455147467815595,4.864740817253576,-0.559096059534139,no_tremor
313,8949518,2.044,-0.018547017542050223,-0.16153527240325524,0.9245372307856745,-1.4846796352398133,4.904663414430557,-0.5205310423441728,no_tremor
314,8949522,2.048,-0.0185055273268326,-0.1619136104863779,0.9244923920369621,-1.5140168978747361,4.927959728509432,-0.4811965267418382,no_tremor
315,8949547,2.073,-0.018509774882207865,-0.16227186901551985,0.924402910995539,-1.5427547294308286,4.935604954314051,-0.4414511523531616,no_tremor
316,8949556,2.082,-0.018557669532909344,-0.16260932706511833,0.9242725880961475,-1.5705274763044421,4.9286463531994515,-0.40162412404671455,no_tremor
317,8949561,2.087,-0.018646931010618092,-0.162925414358674,0.9241053579545445,-1.5970084874802641,4.908189378533012,-0.36201402181122977,no_tremor
318,8949571,2.097,-0.018775115409300703,-0.163219705631858,0.923905241643658,-1.6219098749860434,4.875384210751967,-0.3228879371024713,no_tremor
319,8949576,2.102,-0.01893964111748362,-0.1634919145075312,0.9236763015537622,-1.6449819448445289,4.8314127986032736,-0.2844809519374298,no_tremor
320,8949581,2.107,-0.019137814591043183,-0.16374188702528475,0.923422599066398,-1.6660123377051885,4.777476490854373,-0.2469959736750392,no_tremor
321,8949586,2.112,-0.019366855821898524,-0.1639695949656423,0.9231481552229949,-1.6848249169107308,4.714784330636428,-0.2106039335524177,no_tremor
322,8949591,2.117,-0.01962392335447591,-0.16417512909916215,0.9228569145247525,-1.7012784398099277,4.644542071799562,-0.17544435053383076,no_tremor
323,8949596,2.122,-0.019906138703206077,-0.16435869247444487,0.9225527119606016,-1.7152650459074334,4.567941963061866,-0.14162625444365648,no_tremor
324,8949601,2.127,-0.020210610029234792,-0.16452059383761142,0.9222392433249296,-1.7267085932596136,4.4861533318778095,-0.10922945449628395,no_tremor
325,8949605,2.131,-0.020534454941120283,-0.1646612412502817,0.921920038855845,-1.7355628725792314,4.400313986835005,-0.0783061315657757,no_tremor
326,8949611,2.137,-0.020874822291016,-0.16478113594461902,0.9215984401976044,-1.7418097266884616,4.3115224460514225,-0.04888272485983447,no_tremor
327,8949615,2.141,-0.021228912843757042,-0.16488086642394126,0.9212775806669075,-1.745457100985435,4.220830990247817,-0.020962076431040217,no_tremor
328,8949620,2.146,-0.02159399870109194,-0.16496110278725779,0.9209603687815838,-1.7465370483179792,4.129239533251184,0.0054742090306784345,no_tremor
329,8949625,2.151,-0.02196744136730981,-0.1650225912275416,0.92064947499124,-1.74510370912339,4.037690299580161,0.03046323587897224,no_tremor
330,8949634,2.16,-0.022346708346441493,-0.16506614862827926,0.9203473215322111,-1.741231285070832,3.9470632979528384,0.05405816992688721,no_tremor
331,8949639,2.165,-0.022729388166119666,-0.16509265716252688,0.9200560753131228,-1.7350120220613938,3.85817257980617,0.07632552209659887,no_tremor
332,8949644,2.17,-0.02311320373030457,-0.16510305878503517,0.9197776437218861,-1.726554216496265,3.7717632713261624,0.09734241415673082,no_tremor
333,8949669,2.195,-0.023496023913563424,-0.1650983495026545,0.919513673229244,-1.7159802568073286,3.6885093643509705,0.1171938772164418,no_tremor
334,8949674,2.2,-0.023875873323877743,-0.16507957331250153,0.919265550647267,-1.703424709527888,3.6090122452563933,0.1359702331239613,no_tremor
335,8949679,2.205,-0.02425094017811409,-0.16504781571168758,0.9190344068826896,-1.6890324553096643,3.5337999322325344,0.15376460779948634,no_tremor
336,8949684,2.21,-0.02461958225211653,-0.16500419670599664,0.9188211230044011,-1.672956875852864,3.4633269816428798,0.17067062300589492,no_tremor
337,8949688,2.214,-0.0249803308836794,-0.1649498632758408,0.918626338422317,-1.655358088853983,3.397975015159698,0.18678030806453136,no_tremor
338,8949693,2.219,-0.02533189302087345,-0.16488598129355495,0.9184504609530506,-1.636401226016583,3.338053812661845,0.2021822648779345,no_tremor
339,8949698,2.224,-0.02567315132180449,-0.16481372692413315,0.9182936785290183,-1.6162547498924407,3.283802912550826,0.2169601087227536,no_tremor
340,8949713,2.239,-0.026003162327542163,-0.1647342775799033,0.9181559722947881,-1.595088809000657,3.235393661825734,0.2311911951426051,no_tremor
341,8949718,2.244,-0.026321152750381053,-0.16464880253686087,0.9180371308301791,-1.5730736362421678,3.192931662943721,0.24494563174122627,no_tremor
342,8949723,2.249,-0.026626513946749295,-0.16455845335474442,0.9179367652455148,-1.5503780011327495,3.1564595719482416,0.25828556405011077,no_tremor
343,8949728,2.254,-0.02691879467847599,-0.16446435427207726,0.9178543249107807,-1.527167730029982,3.125960210300136,0.27126471736428703,no_tremor
344,8949733,2.259,-0.02719769230623744,-0.16436759276857998,0.917789113605709,-1.5036043096344422,3.1013599593127865,0.2839281712948288,no_tremor
345,8949738,2.264,-0.02746304260128047,-0.1642692104983714,0.9177403059087238,-1.4798435880704621,3.0825324103579117,0.2963123404815495,no_tremor
346,8949742,2.268,-0.027714808401337113,-0.16417019479725503,0.9177069636752114,-1.456034585786009,3.069302246263394,0.3084451335082653,no_tremor
347,8949747,2.273,-0.027953067369494357,-0.16407147095639146,0.9176880524860486,-1.4323184263532156,3.0614493300305936,0.3203462626856363,no_tremor
348,8949752,2.278,-0.028177999137070118,-0.163973895433886,0.9176824579730426,-1.408827395777428,3.058712976777055,0.3320276795035301,no_tremor
349,8949757,2.283,-0.028389872120854757,-0.16387825014692425,0.91768900194739,-1.3856841383349088,3.060796384168681,0.3434941131885325,no_tremor
350,8949762,2.288,-0.028589030300209366,-0.16378523795206912,0.9177064582698665,-1.3630009967108758,3.0673711955623686,0.35474369239577236,no_tremor
351,8949767,2.293,-0.02877588022046701,-0.16369547938239115,0.917733568407507,-1.3408795035033163,3.0780821686249267,0.36576863297385287,no_tremor
352,8949792,2.318,-0.028950878457049873,-0.1636095106694623,0.9177690566218689,-1.3194100296619942,3.092551921000177,0.37655597837969385,no_tremor
353,8949797,2.323,-0.029114519732306346,-0.163527783038063,0.9178116447296016,-1.2986715933135278,3.1103857245405306,0.3870883832173199,no_tremor
354,8949801,2.327,-0.02926732582882489,-0.16345066322396942,0.9178600663676433,-1.278731829709765,3.131176320530812,0.3973449332512017,no_tremor
355,8949806,2.332,-0.029409835395203456,-0.16337843513276457,0.9179130806831703,-1.2596471193258165,3.1545087287362272,0.4073019958992206,no_tremor
356,8949811,2.337,-0.02954259469925769,-0.16331130253227583,0.9179694853526947,-1.2414628661150926,3.1799650213961725,0.4169340934756596,no_tremor
357,8949816,2.342,-0.029666149353413617,-0.16324939265400742,0.9180281288165208,-1.2242139120155107,3.2071290290635037,0.42621478845660404,no_tremor
358,8949821,2.347,-0.029781037018383902,-0.16319276056975413,0.9180879215962848,-1.2079250682244989,3.235590939447882,0.4351175673312354,no_tremor
359,8949826,2.352,-0.029887781082811395,-0.16314139420781454,0.9181478465474874,-1.192611739927542,3.2649517444922314,0.44361670791924157,no_tremor
360,8949840,2.366,-0.029986885315980892,-0.16309521987801753,0.9182069678891088,-1.178280619603828,3.294827485557735,0.45168811404646636,no_tremor
361,8949845,2.371,-0.030078829494936114,-0.1630541081850068,0.9182644388516971,-1.164930424110028,3.3248532422783623,0.45931010062250155,no_tremor
362,8949850,2.376,-0.03016406601277543,-0.16301788022321584,0.9183195077960998,-1.1525526516545967,3.3546868081414694,0.46646411137957744,no_tremor
363,8949854,2.38,-0.030243017477631175,-0.16298631396243962,0.9183715226784532,-1.1411323364003063,3.3840119962676525,0.4731353511101779,no_tremor
364,8949859,2.385,-0.030316075308624922,-0.1629591507474433,0.9184199337725626,-1.1306487810655677,3.4125415233089047,0.4793133145359493,no_tremor
365,8949864,2.39,-0.030383599324326226,-0.16293610184671398,0.9184642946058418,-1.1210762516753499,3.4400194281024,0.4849921953877601,no_tremor
366,8949869,2.395,-0.03044591830108921,-0.16291685499315228,0.9185042611154898,-1.112384623358273,3.4662229929605677,0.49017116229421714,no_tremor
367,8949874,2.4,-0.030503331454438943,-0.16290108086285543,0.9185395890830985,-1.1045399712971369,3.4909641461049477,0.4948544925010632,no_tremor
368,8949879,2.405,-0.03055611076830789,-0.1628884394373086,0.9185701299542655,-1.0975051059334013,3.5140903317765493,0.4990515593933585,no_tremor
369,8949884,2.41,-0.030604504066452844,-0.16287858618980752,0.9185958251915859,-1.091240055742845,3.535484840519839,0.5027766745327182,no_tremor
370,8949888,2.414,-0.03064873868987506,-0.16287117802959905,0.9186166993422231,-1.0857025040801336,3.5550665977218556,0.506048789587359,no_tremor
371,8949927,2.453,-0.030689025615429955,-0.1628658789281019,0.9186328520239911,-1.0808481887622556,3.5727894145302894,0.5088910686106606,no_tremor
372,8949932,2.458,-0.030725563825941597,-0.16286236514210256,0.918644449046864,-1.0766312744761108,3.588640711356391,0.5113303464851741,no_tremor
373,8949937,2.463,-0.03075854472343518,-0.16286032994124208,0.9186517128918156,-1.0730047090347143,3.602639729585828,0.5133964940534521,no_tremor
374,8949942,2.468,-0.030788156367596537,-0.1628594877444016,0.9186549127687271,-1.0699205750292198,3.6148352517939943,0.5151217134617737,no_tremor
375,8949952,2.478,-0.03081458732376027,-0.1628595775743599,0.9186543544727213,-1.06733044832727,3.6253028552502435,0.516539788305004,no_tremor
376,8949957,2.483,-0.030838029919086875,-0.16286036575311655,0.9186503702553601,-1.0651857738296284,3.634141728577544,0.5176853130217948,no_tremor
