sample,t_ms,t_s,ax,ay,az,gx,gy,gz,tremor
0,9317734,0.0,-0.3111568417696967,-0.24940872091493616,-0.9840877486408103,-7.050948937615409,15.230142428694691,-0.7183828077764975,tremor
1,9317739,0.005,-0.31134095506990833,-0.2489091298724654,-0.9838337176045284,-6.828850075024617,15.191367705275635,-0.6451213922068487,tremor
2,9317744,0.01,-0.3115931597946287,-0.24822167153288516,-0.9834867998124445,-6.603127267077206,15.132802751249507,-0.5756088065082371,tremor
3,9317749,0.015,-0.3119158625736917,-0.2473330408053951,-0.9830421456156483,-6.3740284819498445,15.052559283622903,-0.5101232285052081,tremor
4,9317754,0.02,-0.3122972169729709,-0.2462651423736762,-0.9825127946585529,-6.141804507677534,14.948882324250862,-0.44892339094664185,tremor
5,9317759,0.025,-0.31271776992333666,-0.24505822115076029,-0.9819206953104939,-5.906708559016039,14.820180078145166,-0.392247105605386,tremor
6,9317764,0.03,-0.31315664814743555,-0.24375540766917805,-0.9812887018112928,-5.668995901663992,14.665052650562464,-0.3403098916167146,tremor
7,9317768,0.034,-0.3135949205523911,-0.24239458127270902,-0.9806364538231974,-5.4289234763800795,14.482319143087125,-0.2933037127363559,tremor
8,9317773,0.039,-0.3140167213047224,-0.24100592010364813,-0.9799792021226429,-5.186749506955213,14.271042719296199,-0.2513958317647396,tremor
9,9317778,0.044,-0.31440920463493227,-0.2396123588885885,-0.9793281112406422,-4.942733079175765,14.03055329049735,-0.21472779446527074,tremor
10,9317783,0.049,-0.31476208313949516,-0.23823103713776478,-0.9786910480153019,-4.697133683352317,13.760467537478972,-0.18341455946999663,tremor
11,9317788,0.054,-0.3150671216509361,-0.23687480121426296,-0.9780733818979165,-4.450210720661697,13.460706051007865,-0.15754379437270796,tremor
12,9317793,0.059,-0.3153177213198786,-0.23555342828304038,-0.977478634928245,-4.2022229821386246,13.131507438186661,-0.1371753610964505,tremor
13,9317798,0.064,-0.3155086167705429,-0.23427452178000377,-0.9769089617866511,-3.9534281165341505,12.773439300341515,-0.1223410154864776,tremor
14,9317803,0.069,-0.3156356684963848,-0.23304412924466034,-0.9763654898046977,-3.70408210782256,12.387406037690388,-0.11304434663937721,tremor
15,9317807,0.073,-0.31569572403251256,-0.23186715398235955,-0.9758485575127794,-3.45443878458624,11.974653474084624,-0.10926098025177292,tremor
16,9317812,0.078,-0.315686524514769,-0.2307476235708489,-0.9753578847287335,-3.2047493825042075,11.53677032016126,-0.11093906672645101,tremor
17,9317817,0.083,-0.31560663913714077,-0.22968886291912857,-0.9748926985822713,-2.9552621785417204,11.075686505119716,-0.11800006874140755,tremor
18,9317822,0.088,-0.3154554154992644,-0.22869360544896128,-0.9744518321772253,-2.7062222118496586,10.593668407096901,-0.1303398550639692,tremor
19,9317827,0.093,-0.31523293802962127,-0.22776406506828184,-0.9740338067603701,-2.4578711024946887,10.093311001924173,-0.14783009880365441,tremor
20,9317852,0.118,-0.31493998958935493,-0.22690198385627633,-0.9736369041756692,-2.2104469756219505,9.5775269331557,-0.17031997007805585,tremor
21,9317862,0.128,-0.31457801327120055,-0.226108665108389,-0.97325923364693,-1.964184495888556,9.049532487429198,-0.19763810544361235,tremor
22,9317866,0.132,-0.3141490726004549,-0.22538499789827712,-0.9728987951645184,-1.7193150150199117,8.512830445490716,-0.2295948293725766,tremor
23,9317876,0.142,-0.31365580907359364,-0.22473147704189755,-0.9725535406453193,-1.476066834066694,7.9711897786566075,-0.26598459710488853,tremor
24,9317881,0.147,-0.31310139643031654,-0.22414822088768285,-0.9722214333629122,-1.2346655814416316,7.428622177645672,-0.306588624186823,tremor
25,9317886,0.152,-0.3124894913778288,-0.22363498842254967,-0.9719005057464564,-0.9953347081487486,6.889355432999311,-0.35117766579199405,tremor
26,9317896,0.162,-0.31182418074528684,-0.22319119658567416,-0.9715889154120697,-0.7582961025392109,6.357803726151096,-0.3995149072490489,tremor
27,9317901,0.167,-0.3111099252729434,-0.22281593829583002,-0.9712849991476131,-0.5237708276823174,5.838534930234618,-0.4513589247415659,tremor
28,9317906,0.172,-0.31035150044124526,-0.22250800144413127,-0.9709873244770049,-0.291979983755706,5.3362350551533755,-0.5064666711016201,tremor
29,9317915,0.181,-0.3095539349141223,-0.22226588893288712,-0.970694738359881,-0.06314569436332543,4.855669999690136,-0.5645964355101998,tremor
30,9317920,0.186,-0.3087224472983548,-0.22208783972287383,-0.97040641252663,0.16250779129398524,4.401644793905583,-0.6255107178569768,tremor
31,9317925,0.191,-0.30786238199949423,-0.2219718507674415,-0.970121884906175,0.38475289840617866,3.978960529170251,-0.6889789498884066,tremor
32,9317935,0.201,-0.3069791449807465,-0.22191569965151564,-0.9698410965778825,0.6033574580469496,3.5923691832820035,-0.754779988126476,tremor
33,9317940,0.206,-0.3060781402057769,-0.22191696771016123,-0.9695644236748475,0.8180834103273633,3.2465265565356485,-0.8227042990106176,tremor
34,9317945,0.211,-0.30516470747635144,-0.22197306337117378,-0.9692927036876962,1.0286855280968095,2.9459435434270085,-0.8925557548651966,tremor
35,9317950,0.216,-0.3042440622728218,-0.22208124544711288,-0.9690272556672707,1.234910216117031,2.6949359757552265,-0.964152960136035,tremor
36,9317975,0.241,-0.30332123808397604,-0.22223864609329386,-0.9687698938987996,1.4364944441546272,2.4975732872429504,-1.0373300310905325,tremor
37,9317980,0.246,-0.3024010315870233,-0.22244229314924654,-0.968522934713054,1.6331648736587319,2.357626267519913,-1.1119367589016276,tremor
38,9317985,0.251,-0.301487950921793,-0.2226891315928275,-0.9682891962011552,1.8246372364474666,2.278514194723443,-1.1878380957423258,tremor
39,9317989,0.255,-0.30058616720741915,-0.2229760438603367,-0.9680719906960575,2.0106160198616223,2.2632516622999637,-1.264912916120366,tremor
40,9317994,0.26,-0.29969946938321324,-0.22329986882409794,-0.9678751099636779,2.190794506299895,2.314395447964439,-1.343052020390192,tremor
41,9317999,0.265,-0.29883122242098653,-0.22365741927028465,-0.9677028031047064,2.364855206594561,2.433991810809317,-1.4221553626587589,tremor
42,9318004,0.27,-0.29798432895172333,-0.22404549778101587,-0.9675597472058598,2.532470717177574,2.6235246444259617,-1.5021285000774451,tremor
43,9318009,0.275,-0.2971611943707927,-0.22446091099122784,-0.9674510108024689,2.693305020960205,2.883864957141206,-1.5828782752147037,tremor
44,9318013,0.279,-0.29636369552793285,-0.22490048225770884,-0.9673820102295473,2.847015241386792,3.215222192314879,-1.6643077591018687,tremor
45,9318028,0.294,-0.29559315316609436,-0.2253610628404895,-0.9673584589521772,2.9932538482285223,3.617097939172584,-1.746310500076528,tremor
46,9318033,0.299,-0.2948503083414779,-0.22583954175132032,-0.967386309983906,3.1316713025956227,4.088242615157803,-1.828764141790123,tremor
47,9318038,0.304,-0.2941353031292715,-0.22633285446596776,-0.9674716915291325,3.261919117859835,4.626615722349844,-1.91152349143962,tremor
48,9318043,0.309,-0.29344766598802086,-0.22683799072217206,-0.9676208360265486,3.3836533033057683,5.229350292672349,-1.9944131357395938,tremor
49,9318052,0.318,-0.292786302212651,-0.2273520016300189,-0.9678400028275687,3.4965381486844156,5.892722140756436,-2.077219717040622,tremor
50,9318057,0.323,-0.292149489946157,-0.22787200630542445,-0.9681353948147552,3.6002503000582964,6.612124541492888,-2.1596839949196958,tremor
51,9318062,0.328,-0.2915348822396476,-0.22839519820264922,-0.968513069345905,3.6944830696951163,7.382048942501324,-2.2414928293164027,tremor
52,9318066,0.332,-0.2909395156483993,-0.22891885127258157,-0.9689788439940517,3.778950914997817,8.196072309063814,-2.3222712302469253,tremor
53,9318072,0.338,-0.2903598258278011,-0.22944032601522815,-0.9695381976375476,3.85339401407509,9.046851678193365,-2.401574626932846,tremor
54,9318102,0.368,-0.28979167054864347,-0.2299570754329312,-0.9701961675351403,3.917582859716769,9.92612646664875,-2.4788815160992144,tremor
55,9318107,0.373,-0.28923036048810097,-0.23046665083120274,-0.9709572430987793,3.971322790338459,10.824729032852696,-2.5535866547690844,tremor
56,9318112,0.378,-0.2886706980732884,-0.23096670736365688,-0.9718252571548901,4.014458376077199,11.732603934418705,-2.624994965742546,tremor
57,9318121,0.387,-0.2881070245609645,-0.23145500918372983,-0.972803275568056,4.046877579970505,12.638836252054967,-2.692316322214402,tremor
58,9318126,0.392,-0.28753327543261864,-0.2319294340535791,-0.9738934861932461,4.068515617597341,13.531689267772933,-2.754661370586702,tremor
59,9318131,0.397,-0.28694304407148535,-0.23238797726909338,-0.9750970882233638,4.0793584442494,14.398651691363868,-2.8110385380788068,tremor
60,9318136,0.402,-0.2863296535687593,-0.23282875478370924,-0.9764141831029973,4.079445807611183,15.226494525661632,-2.8603523557903294,tremor
61,9318141,0.407,-0.28568623638101065,-0.2332500054455142,-0.9778436682801536,4.068873816400992,16.0013375513242,-2.90140320997733,tremor
62,9318146,0.412,-0.2850058214297589,-0.23365009229579903,-0.9793831351594587,4.04779699073917,16.70872530011493,-2.9328886160203886,tremor
63,9318151,0.417,-0.2842814280984221,-0.23402750290841745,-0.9810287726979522,4.016429776554801,17.33371227663538,-2.9534060925214027,tremor
64,9318156,0.422,-0.2835061664442287,-0.23438084877514648,-0.9827752781441019,3.97504752187103,17.86095708619375,-2.9614576981276075,tremor
65,9318160,0.426,-0.28267334280792394,-0.23470886376117753,-0.9846157764583607,3.9239869249640518,18.27482503369735,-2.955456280807913,tremor
66,9318165,0.431,-0.28177656987854366,-0.23501040166665477,-0.9865417499661189,3.8636459716959703,18.55949867617761,-2.9337334772458483,tremor
67,9318170,0.436,-0.2808098801611231,-0.23528443293573573,-0.9885429797782788,3.794483381880131,18.69909573916148,-2.894549487062877,tremor
68,9318175,0.441,-0.2797678417083247,-0.23553004055596582,-0.9906075004684297,3.717017583792563,18.677793742195732,-2.836104630827456,tremor
69,9318180,0.446,-0.2786456749170328,-0.23574641519067024,-0.9927215694172525,3.6318252337445798,18.479960616760742,-2.7565526810107963,tremor
70,9318185,0.451,-0.2774393691591281,-0.23593284958900318,-0.9948696521242817,3.539539295253807,18.09029053377604,-2.654015931234245,tremor
71,9318194,0.46,-0.27614579800859695,-0.2360887323259352,-0.9970344246463522,3.440846690394944,17.493944080747248,-2.5266019417099734,tremor
72,9318220,0.486,-0.27476283183602773,-0.23621354094117036,-0.999196794155259,3.336485535302507,16.676691835602817,-2.3724218676536712,tremor
73,9318225,0.491,-0.2732894465512763,-0.23630683457352245,-1.0013359384218643,3.227241974120532,15.625060275615349,-2.1896102430048403,tremor
74,9318229,0.495,-0.271725827265759,-0.2363682462238956,-1.0034293648410477,3.113946631514215,14.326478842410976,-1.9763460560712252,tremor
75,9318239,0.505,-0.2700734655999448,-0.23639747481961634,-1.005452989423481,2.997470711179469,12.769426870555666,-1.7308749198602122,tremor
76,9318244,0.51,-0.2683352492756247,-0.23639427728707868,-1.0073812360039363,2.8787217733976815,10.94357898981438,-1.4515321100745697,tremor
77,9318248,0.514,-0.26651554252342624,-0.2363584608615994,-1.009187155751109,2.758639226881057,8.839947534739967,-1.1367662183577376,tremor
78,9318253,0.519,-0.2646202557353734,-0.23628987586978492,-1.010842566903267,2.6381895694444224,6.45102043615829,-0.7851631467007508,tremor
79,9318258,0.524,-0.26265690273196857,-0.23618840921066864,-1.0123182144883913,2.518361409920426,3.7708930202756807,-0.39547015029803917,tremor
80,9318263,0.529,-0.26063464401422054,-0.23605397873963824,-1.0135839496102836,2.4001603017320665,0.7953920972632181,0.03338037981023615,tremor
81,9318268,0.534,-0.2585643144405365,-0.2358865287271822,-1.0146089276904766,2.284603417735916,-2.477809318729643,0.5022477162115797,tremor
82,9318273,0.539,-0.2564584339030459,-0.23568602652654957,-1.015361824849492,2.1727140965361196,-6.049088349255689,1.0117605087519055,tremor
83,9318278,0.544,-0.2543311997673379,-0.23545246054402422,-1.0158110713915198,2.0655162919579917,-9.916781363905903,1.5622957510041697,tremor
84,9318282,0.548,-0.25219846006915003,-0.23518583956544675,-1.0159251011260284,1.9640289595112126,-14.07710758506207,2.1539593411859466,tremor
85,9318287,0.553,-0.2500776667150613,-0.2348861934548208,-1.0156726150202855,1.8692604165528093,-18.52410889362084,2.786568578166467,tremor
86,9318292,0.558,-0.24798780819660243,-0.23455357520644493,-1.015022857429998,1.782202716014453,-23.24960751160568,3.459636927938776,tremor
87,9318302,0.568,-0.24594932158620916,-0.2341880643013983,-1.0139459029026145,1.7038260757353896,-28.243183179000912,4.1723613858545265,tremor
88,9318307,0.573,-0.24398398383082565,-0.23378977129206005,-1.0124129512902027,1.6350734054179352,-33.49217135311934,4.923612744733921,tremor
89,9318312,0.578,-0.242114782590457,-0.23335884351373135,-1.010396628646836,1.5768549703594392,-38.981683836603615,5.711929058911205,tremor
90,9318342,0.608,-0.2403657670844479,-0.23289547179914638,-1.0078712911199685,1.530043225419131,-44.69465308430411,6.535512569968575,tremor
91,9318346,0.612,-0.23876187961225584,-0.23239989804902653,-1.0048133287787435,1.4954678451144028,-50.611901250344225,7.392230331586418,tremor
92,9318351,0.617,-0.23732876861776045,-0.23187242349078538,-1.001201466060491,1.4739109682275529,-56.712234814513714,8.279618737743416,tremor
93,9318356,0.622,-0.23609258438014838,-0.23131341744064995,-0.9970170552697226,1.4661026694889447,-62.97256537026296,9.194892118851955,tremor
94,9318361,0.627,-0.2350797586524951,-0.23072332637452006,-0.9922443593432092,1.4727166668660625,-69.36805686300904,10.134955523346083,tremor
95,9318366,0.632,-0.23431676983778346,-0.23010268311058882,-0.9868708199098951,1.4943662696388567,-75.87229923573331,11.096421747941855,tremor
96,9318371,0.637,-0.2338298955910746,-0.2294521159104643,-0.9808873065320295,1.531600569136667,-82.4575080688314,12.075632618602354,tremor
97,9318375,0.641,-0.23364495506192512,-0.22877235731240403,-0.9742883429188535,1.584900871365854,-89.09474939437479,13.068684456020888,tremor
98,9318380,0.646,-0.23378704333786365,-0.22806425251739312,-0.9670723058612299,1.6546773699724904,-95.75418842375862,14.071457584466483,tremor
99,9318385,0.651,-0.23428026101243724,-0.22732876715380115,-0.9592415926498745,1.74126605991067,-102.40536045443882,15.079649662633733,tremor
100,9318390,0.656,-0.23514744217418487,-0.22656699424773852,-0.9508027528165062,1.8449258970495155,-109.01746171880211,16.08881253195883,tremor
101,9318395,0.661,-0.23640988448933906,-0.22578016022358524,-0.9417665801813839,1.965836216431608,-115.55965741126943,17.094392193807774,tremor
102,9318405,0.671,-0.2380870854234477,-0.22496962975311866,-0.9321481614075611,2.104094431092619,-122.00140358748403,18.091771443749455,tremor
103,9318410,0.676,-0.2401964890055978,-0.22413690926363886,-0.9219668775575017,2.259714042725623,-128.31277908515136,19.076314610478068,tremor
104,9318414,0.68,-0.24275324786936267,-0.22328364890748773,-0.9112463555281934,2.432623003028954,-134.4648230874663,20.04341377071812,tremor
105,9318419,0.685,-0.24577000558677906,-0.22241164278986558,-0.9000143667142024,2.622662468216901,-140.42987345719484,20.988535741659717,tremor
106,9318424,0.69,-0.2492567045199688,-0.22152282725162956,-0.8883026708214533,2.8295859869265203,-146.1819005292968,21.90726909112658,tremor
107,9318429,0.695,-0.2532204245216737,-0.2206192770114042,-0.8761468034324615,3.0530591521596366,-151.69683067243636,22.795370354643644,tremor
108,9318434,0.7,-0.25766525779512983,-0.2197031989888515,-0.8635858067074049,3.292659730749549,-156.95285362194207,23.64880860983261,tremor
109,9318439,0.705,-0.26259222505416774,-0.21877692365961096,-0.8506619034935364,3.547878259992069,-161.9307073606431,24.463807534680907,tremor
110,9318466,0.732,-0.2679992377889172,-0.21784289383293592,-0.8374201161055479,3.8181190709258654,-166.61393419999447,25.236884070649452,tremor
111,9318471,0.737,-0.2738811109205706,-0.2169036507957847,-0.8239078321260743,4.102701661961317,-170.9891017289338,25.964882829595382,tremor
112,9318476,0.742,-0.2802296293851386,-0.21596181783232538,-0.8101743207437782,4.400862310622614,-175.0459825208757,26.64500543381116,tremor
113,9318480,0.746,-0.28703367117111567,-0.21502008120546764,-0.7962702043670743,4.711755786258879,-178.77768700729547,27.2748340710002,tremor
114,9318485,0.751,-0.29427938801020537,-0.21408116877625252,-0.782246891483647,5.034457021518861,-182.1807447809554,27.852348683589696,tremor
115,9318490,0.756,-0.30195044328627035,-0.2131478265352317,-0.7681559779354659,5.367962614079592,-185.25513073529945,28.375937385461103,tremor
116,9318495,0.761,-0.31002830483390664,-0.21222279342317046,-0.7540486249039622,5.711192054321403,-188.0042337831094,28.844399894195956,tremor
117,9318500,0.766,-0.3184925882181542,-0.21130877492116956,-0.7399749229110335,6.0629886014844105,-190.43476735107268,29.256943971807623,tremor
118,9318509,0.775,-0.3273214439023221,-0.21040841598685825,-0.7259832520023755,6.422119756116922,-192.55662237696862,29.613175075841713,tremor
119,9318515,0.781,-0.33649197950933196,-0.20952427399775791,-0.7121196489548342,6.787277298852366,-194.38266511392158,29.913079632655556,tremor
120,9318520,0.786,-0.34598070626440947,-0.2086587924287329,-0.6984271927973905,7.157076884467207,-195.92848363433902,30.15700255236619,tremor
121,9318524,0.79,-0.3557639967907144,-0.20781427603015737,-0.6849454201060329,7.530057196322435,-197.21208847472107,30.3456198052296,tremor
122,9318529,0.795,-0.365818539835963,-0.20699286827956576,-0.6717097813794193,7.904678681951874,-198.25357431531285,30.47990706418151,tremor
123,9318534,0.8,-0.37612177634494276,-0.20619653184610484,-0.6587511492999456,8.279321910718766,-199.074750891826,30.56110557658574,tremor
124,9318539,0.805,-0.3866523006516061,-0.20542703272994725,-0.6460953888397951,8.652285626183517,-199.6987524405368,30.590686545271925,tremor
125,9318544,0.81,-0.39739021052918266,-0.20468592861540916,-0.6337629980164545,9.021784616235607,-200.14963583403463,30.570315359282205,tremor
126,9318548,0.814,-0.40831739048135524,-0.2039745618057626,-0.6217688266843803,9.38594759847719,-200.4519781233515,30.50181700590081,tremor
127,9318553,0.819,-0.41941771403278455,-0.20329405688981206,-0.6101218791196152,9.742815419396004,-200.63048441324892,30.387143909731822,tremor
128,9318558,0.824,-0.4306771529081969,-0.20264532302602475,-0.5988252043586689,10.090339992454556,-200.70961680476654,30.22834727784297,tremor
129,9318590,0.856,-0.4420837838903274,-0.20202906042080362,-0.5878758763303362,10.426384544241262,-200.71325446616842,30.027552781555915,tremor
130,9318605,0.871,-0.4536276878487587,-0.20144577022882929,-0.5772650637970844,10.74872587476108,-200.66439363141436,29.78694108151934,tremor
131,9318610,0.876,-0.4653007399853632,-0.2008957667347164,-0.5669781880191753,11.055059416735583,-200.58489436329126,29.50873332605812,tremor
132,9318615,0.881,-0.4770962957322301,-0.20037919033196516,-0.5569951638917296,11.34300783463228,-200.49527826245716,29.195181370462297,tremor
133,9318620,0.886,-0.48900878272108694,-0.19989601956637965,-0.5472907181331124,11.610133703977931,-200.4145782074817,28.848562135461304,tremor
134,9318625,0.891,-0.5010332152952351,-0.19944608042474413,-0.5378347760151153,11.853956488731413,-200.360238125054,28.471175284698518,tremor
135,9318629,0.895,-0.5131646535102804,-0.19902905116478065,-0.5285929062433316,12.071973667643618,-200.3480581321832,28.065343254311983,tremor
136,9318634,0.9,-0.5253976329094763,-0.19864446130253138,-0.5195268120465992,12.261685522602045,-200.3921783895037,27.633412594700797,tremor
137,9318639,0.905,-0.5377255941720098,-0.19829168387607088,-0.5105948554339126,12.420622835817563,-200.50509371317162,27.177755573758866,tremor
138,9318644,0.91,-0.5501403427753244,-0.19796992075213224,-0.5017526010260925,12.546376568856854,-200.6976903849461,26.70077104072147,tremor
139,9318654,0.92,-0.5626315679663518,-0.19767818148434438,-0.4929533659476536,12.63662852514819,-200.97929661908844,26.20488365979095,tremor
140,9318658,0.924,-0.5751864475973082,-0.197415257002553,-0.48414876302342397,12.689182030300847,-201.35773872641647,25.69254079067108,tremor
141,9318663,0.929,-0.5877893608595701,-0.1971796901268391,-0.47528922597396395,12.70199178951929,-201.83939608647748,25.16620651667682,tremor
142,9318673,0.939,-0.6004217248767527,-0.1969697454568325,-0.4663245073929747,12.673192270773505,-202.42924950092734,24.628352594149952,tremor
143,9318678,0.944,-0.6130619638685836,-0.19678338149292923,-0.4572041428950815,12.601124177451089,-203.1309192308765,24.081446401368815,tremor
144,9318683,0.949,-0.6256856116871127,-0.19661822784118288,-0.4478778777459614,12.48435877506789,-203.94669088852865,23.527936267345755,tremor
145,9318688,0.954,-0.6382655405695493,-0.19647157002399188,-0.43829605527389115,12.321719992541057,-204.87752924830048,22.9702348211713,tremor
146,9318715,0.981,-0.650772301565364,-0.19634034379480117,-0.42840996913891105,12.112304315703241,-205.9230818665367,22.410701191768773,tremor
147,9318720,0.986,-0.6631745558360544,-0.19622114001392132,-0.418172183847295,11.85549853216102,-207.08167601772325,21.851622994158404,tremor
148,9318725,0.991,-0.6754395713994796,-0.19611022021340643,-0.4075368295109703,11.550995383431353,-208.3503136548886,21.29519905786065,tremor
149,9318730,0.996,-0.6875337573370076,-0.19600354212621943,-0.39645987756141177,11.198807144028539,-209.72466964586798,20.74352378423574,tremor
150,9318735,1.001,-0.6994232072267405,-0.1958967938226653,-0.3848994038406575,10.799277089122018,-211.1990983320298,20.19857387208727,tremor
151,9318739,1.005,-0.7110742254630202,-0.19578543474992854,-0.3728158443063701,10.353088744303685,-212.7666526471364,19.66219795153878,tremor
152,9318744,1.01,-0.722453813701857,-0.1956647418868217,-0.3601722467699946,9.861272742513506,-214.41911889634267,19.136109445944758,tremor
153,9318749,1.015,-0.7335300993581289,-0.19552985933859976,-0.3469345199579369,9.325211050821414,-216.1470690628744,18.62188276230436,tremor
154,9318754,1.02,-0.7442726933567864,-0.19537584993357526,-0.3330716790310979,8.746638279979864,-217.93993131890454,18.120952707475876,tremor
155,9318759,1.025,-0.7546529697863217,-0.19519774768104692,-0.3185560847475349,8.127639760358793,-219.78607834118986,17.634616854333117,tremor
156,9318764,1.03,-0.7646442653712172,-0.194990610255091,-0.30336367188341423,7.470646065812388,-221.67293211817466,17.16404044838524,tremor
157,9318769,1.035,-0.774222001472249,-0.19474957093848502,-0.2874741614573296,6.778423694575644,-223.58708321741068,16.710263352381837,tremor
158,9318773,1.039,-0.7833637353823366,-0.1944698896694802,-0.27087125078456825,6.054061671534341,-225.51442198121907,16.27420846987899,tremor
159,9318778,1.044,-0.7920491508139794,-0.19414700297397663,-0.2535427754132793,5.300953915571622,-227.44027883717254,15.856691065498069,tremor
160,9318783,1.049,-0.8002599995610628,-0.19377657264159456,-0.23548083751370794,4.522777315625463,-229.34957083054346,15.458428409469025,tremor
161,9318788,1.054,-0.8079800073428755,-0.1933545330246005,-0.21668189622665499,3.723465575582041,-231.22695157555026,15.08004921693835,tremor
162,9318793,1.059,-0.8151947568544997,-0.19287713681295737,-0.19714681672915035,2.9071790154563297,-233.0569620407413,14.72210242531282,tremor
163,9318798,1.064,-0.8218915601607663,-0.19234099907788807,-0.1768808762290834,2.078270646765244,-234.82417988825603,14.385064948966264,tremor
164,9318803,1.069,-0.8280593309266128,-0.19174313929292208,-0.15589372663350276,1.2412489650813439,-236.51336543528237,14.069348161501347,tremor
165,9318808,1.074,-0.833688464753931,-0.19108102094851884,-0.13419931513123448,0.4007380150897883,-238.1096026637158,13.77530297294505,tremor
166,9318812,1.078,-0.838770733296031,-0.19035258828579527,-0.1118157652948455,-0.4385646218747893,-239.598434045982,13.503223485557225,tremor
167,9318840,1.106,-0.8432991950578007,-0.18955629959551912,-0.08876522247239127,-1.2719311932583959,-240.96598826388782,13.253349322177115,tremor
168,9318844,1.11,-0.8472681230830328,-0.18869115646580736,-0.06507366815387475,-2.0946477160058787,-242.19910015389485,13.025866820521674,tremor
169,9318849,1.115,-0.8506729473270571,-0.18775672831850046,-0.040770708603069625,-2.90205768629916,-243.2854223852016,12.820909367845248,tremor
170,9318854,1.12,-0.8535102076771236,-0.18675317155101284,-0.015889343276719297,-3.6896047529029325,-244.213528430034,12.638557202604826,tremor
171,9318859,1.125,-0.8557775125146376,-0.18568124259828342,0.00953428162529618,-4.452873581054046,-244.97300630434555,12.478837027002875,tremor
172,9318864,1.13,-0.8574734974543791,-0.18454230424942744,0.03546112968585128,-5.187628194004081,-245.55454236889253,12.341721758049236,tremor
173,9318869,1.135,-0.8585977793351296,-0.18333832459779212,0.06184953689740835,-5.889847161877966,-245.94999424043743,12.227130699680249,tremor
174,9318873,1.139,-0.8591509014982412,-0.18207186807407852,0.08865547737294041,-6.555755109418012,-246.15245162662816,12.134930346563744,tremor
175,9318878,1.144,-0.8591342677080128,-0.18074607811328164,0.11583283010910506,-7.181850133717598,-246.156283710028,12.064935932333771,tremor
176,9318883,1.149,-0.8585500635958494,-0.17936465114086375,0.14333364568776447,-7.7649268573365084,-245.95717159934685,12.016913715975013,tremor
177,9318888,1.154,-0.8574011661185847,-0.17793180173466633,0.17110841257477177,-8.302094986874668,-245.55212436165417,11.990583871941212,tremor
178,9318893,1.159,-0.8556910430887905,-0.1764522190273847,0.19910632324055597,-8.790793396552619,-244.9394772618153,11.98562373016181,tremor
179,9318898,1.164,-0.8534236462503181,-0.17493101465713387,0.22727554064337654,-9.228799903488563,-244.11887107171376,12.001671019974316,tremor
180,9318903,1.169,-0.8506033025345672,-0.1733736628433545,0.25556346566417604,-9.614237037534327,-243.09121167576853,12.038326721274201,tremor
181,9318908,1.174,-0.8472346089499578,-0.17178593345015197,0.2839170058658541,-9.945574224500652,-241.8586096918268,12.095157123119305,tremor
182,9318912,1.178,-0.8433223369489717,-0.1701738191829937,0.31228284549645896,-10.221626889745728,-240.42430044151507,12.171694732741836,tremor
183,9318917,1.183,-0.8388713520230772,-0.16854345832722947,0.34060771601542267,-10.44155304542384,-238.792545321785,12.267437758595301,tremor
184,9318922,1.188,-0.8338865536609188,-0.16690105465376245,0.36883866566565177,-10.604847947910823,-236.9685164156085,12.3818479998918,tremor
185,9318927,1.193,-0.8283728396654986,-0.16525279626136266,0.39692332582491696,-10.711337400696436,-234.95816699381103,12.51434710260819,tremor
186,9318932,1.198,-0.8223350971945783,-0.16360477517120325,0.4248101711291535,-10.761170230440397,-232.7680913634678,12.664311279048073,tremor
187,9318936,1.202,-0.8157782208408056,-0.16196290941878524,0.45244876973862813,-10.75481037932991,-230.40537827886757,12.831064725779195,tremor
188,9318964,1.23,-0.8087071557279573,-0.16033286919322848,0.47979001967336476,-10.693028937284998,-227.8774628182268,13.013872104334407,tremor
189,9318973,1.239,-0.8011269611579545,-0.15872000825858365,0.5067863669312923,-10.57689628840985,-225.19198219051043,13.2119305607835,tremor
190,9318983,1.249,-0.7930428880971098,-0.15712930148075846,0.5333920011906841,-10.407774379533379,-222.35664125744805,13.42436184222745,tremor
191,9318993,1.259,-0.7844604621413626,-0.1555652888286521,0.5595630253713175,-10.18730895534528,-219.37909346320595,13.650205106831569,tremor
192,9318998,1.264,-0.7753855629329949,-0.15403202579483136,0.5852575962377426,-9.917421467587046,-216.26684222069144,13.888411006871696,tremor
193,9319002,1.268,-0.7658244915033097,-0.15253303986869257,0.6104360345324451,-9.600300269164489,-213.02716661188876,14.13783754521815,tremor
194,9319007,1.273,-0.7557840186121744,-0.15107129254786256,0.6350609046890725,-9.238390648304135,-209.66707366183667,14.397248069797131,tremor
195,9319017,1.283,-0.74527140959072,-0.1496491464019229,0.6590970658174333,-8.834383236758706,-206.1932776375043,14.665311595281448,tremor
196,9319021,1.287,-0.7342944241457037,-0.1482683368751124,0.6825116972082902,-8.391200337979598,-202.61220499011768,14.940605450660748,tremor
197,9319026,1.292,-0.7228612927232124,-0.14692994877886867,0.7052743029449279,-7.911979773949718,-198.93002187160056,15.221620067637197,tremor
198,9319031,1.297,-0.7109806740367013,-0.14563439772788447,0.7273567012248827,-7.400055955292186,-195.15267976820556,15.50676556336496,tremor
199,9319036,1.302,-0.6986616009553137,-0.1443814170720388,0.7487330046104489,-6.858938043660099,-191.2859738274554,15.794379641506248,tremor
200,9319041,1.307,-0.6859134239028315,-0.14317005114154405,0.7693795975949689,-6.292285286262479,-187.33560796266562,16.082736247401343,tremor
201,9319046,1.312,-0.6727457620876257,-0.14199865583635896,0.7892751175801062,-5.703879829208916,-183.30726078704487,16.370054380995413,tremor
202,9319050,1.316,-0.6591684731766728,-0.1408649077436403,0.8084004446166396,-5.0975975207828,-179.20664679980376,16.6545065118114,tremor
203,9319055,1.321,-0.6451916513846854,-0.13976582305144014,0.8267387040920161,-4.477377366973522,-175.03956795731008,16.93422615974719,tremor
204,9319060,1.326,-0.6308256623442584,-0.13869778753293593,0.8442752849907762,-3.847190384970426,-170.81195176077742,17.207314387960185,tremor
205,9319088,1.354,-0.6160812205678897,-0.13765659878612457,0.860997874469974,-3.211008613377542,-166.52987322580552,17.471845165074278,tremor
206,9319097,1.363,-0.6009695119121375,-0.13663752170074767,0.8768965073889391,-2.5727749812860456,-162.19955948904257,17.725869755587784,tremor
207,9319102,1.368,-0.5855023594841019,-0.13563535774575736,0.8919636273102598,-1.9363746152414134,-157.82737722265088,17.967420462026407,tremor
208,9319107,1.373,-0.5696924273675131,-0.13464452808703362,0.9061941536457322,-1.3056079894900303,-153.41980429836403,18.194514155926704,tremor
209,9319112,1.378,-0.5535534529491049,-0.1336591697552617,0.9195855483636475,-0.684166134270259,-148.98338812825935,18.405156094298313,tremor
210,9319117,1.383,-0.5371004959280639,-0.13267324315408924,0.9321378751737914,-0.07560794724137532,-144.5246937619484,18.597344529640207,tremor
211,9319122,1.388,-0.5203501904801823,-0.13168064824874298,0.9438538443468534,0.5166604722434528,-140.0502451797923,18.769076594324517,tremor
212,9319127,1.393,-0.5033209865142909,-0.13067534593821672,0.9547388371656625,1.0894046221418872,-135.5664633546327,18.91835588028455,tremor
213,9319132,1.398,-0.48603336639918876,-0.12965148050424152,0.964800905271948,1.6395787153630366,-131.07960460826877,19.043202043490037,tremor
214,9319137,1.403,-0.46851002481791915,-0.12860349872649782,0.9740507416968986,2.164341288859261,-126.59570258963869,19.14166264110937,tremor
215,9319146,1.412,-0.45077600136534257,-0.1275262612910464,0.9825016219971286,2.661069430824334,-122.12051686319641,19.21182726482404,tremor
216,9319151,1.417,-0.4328587579709196,-0.1264151424895897,0.9901693155295205,3.127371686586217,-117.65949062488075,19.2518438795995,tremor
217,9319156,1.422,-0.414788196017899,-0.1252661148675391,0.9970719683757434,3.5610996353587234,-113.21771946349855,19.25993712847636,tremor
218,9319161,1.427,-0.3965966109558976,-0.12407581635865256,1.0032299606731296,3.9603580754206607,-108.79993237126763,19.234428233719918,tremor
219,9319166,1.432,-0.3783185850876876,-0.12284159845338496,1.0086657420525353,4.323513723266935,-104.41048541597007,19.17375602171263,tremor
220,9319170,1.436,-0.35999082189494486,-0.12156155498912946,1.0134036494972443,4.649202321551367,-100.05336767974714,19.076498528105787,tremor
221,9319175,1.441,-0.3416519276182653,-0.12023453213321786,1.0174697122347098,4.936334053360587,-95.73221831840775,18.941394603799687,tremor
222,9319180,1.446,-0.32334214771584935,-0.11886012098567995,1.020891448295195,5.184097168272179,-91.45035297051864,18.767364943155055,tremor
223,9319207,1.473,-0.3051030672113141,-0.11743863491628784,1.0236976571633167,5.391959733957005,-87.21079730772955,18.55353199416199,tremor
224,9319217,1.483,-0.2869772847341731,-0.11597107424719169,1.0259182125509618,5.559669435067446,-83.01632531520656,18.29923828518028,tremor
225,9319222,1.488,-0.26900807016954575,-0.11445908118448452,1.0275838587702413,5.687251352176393,-78.86949995807406,18.00406280886371,tremor
226,9319236,1.502,-0.2512390151761876,-0.11290488797679255,1.0287260135226817,5.775003674807545,-74.77271422325933,17.667835226521575,tremor
227,9319241,1.507,-0.23371368440627474,-0.11131126113285658,1.029376579196268,5.823491340936433,-70.72823104922544,17.29064777311547,tremor
228,9319246,1.512,-0.2164752732621607,-0.10968144418306014,1.029567764042293,5.833537648734548,-66.73822122776771,16.87286483253138,tremor
229,9319255,1.521,-0.1995662758243699,-0.10801910097037452,1.0293319139659387,5.806213940747363,-62.80479885030641,16.415130201547136,tremor
230,9319270,1.536,-0.18302816458644072,-0.10632826087240876,1.028701355173074,5.7428274982807554,-58.93005421687317,15.918372068036062,tremor
231,9319280,1.546,-0.16690108213991425,-0.10461326676646483,1.0277082476015462,5.644907793803956,-55.11608433853399,15.383805704943622,tremor
232,9319285,1.551,-0.15122354411783714,-0.1028787260355052,1.0263844489155187,5.514191232817219,-51.365021276357545,14.812933843796575,tremor
233,9319290,1.556,-0.13603215253252196,-0.10112946454546991,1.0247613888053937,5.352604486837989,-47.679058599536894,14.207544657163094,tremor
234,9319294,1.56,-0.1213613190158828,-0.09937048333785359,1.0228699533397645,5.1622464960800585,-44.060476230447534,13.569707259217015,tremor
235,9319299,1.565,-0.10724299819680891,-0.09760691775792847,1.0207403790871397,4.945369220736936,-40.5116638878667,12.90176462783361,tremor
236,9319304,1.57,-0.09370643233366487,-0.09584399881880784,1.0184021566151693,4.704357247972192,-37.03514324629693,12.206323852878427,tremor
237,9319334,1.6,-0.08077790921354681,-0.09408701671065466,1.0158839427674495,4.44170641051254,-33.63358879591468,11.486243614901325,tremor
238,9319339,1.605,-0.0684805361447341,-0.0923412864375319,1.0132134808305926,4.160001627883444,-30.309847203828358,10.744618793779528,tremor
239,9319344,1.61,-0.05683403355782454,-0.09061211555863889,1.0104175273971432,3.8618942244551935,-27.066954730093766,9.984762106015625,tremor
240,9319348,1.614,-0.04585455226735177,-0.0889047739143071,1.0075217845029991,3.550078993190218,-23.90815194136667,9.210182688714104,tremor
241,9319353,1.619,-0.035554518807738175,-0.0872244650538018,1.0045508355731645,3.2272712572805102,-20.83689462691865,8.424561600765768,tremor
242,9319358,1.624,-0.025942513422234692,-0.08557629890296824,1.0015280838977492,2.8961841482195796,-17.856859525959017,7.6317242968834815,tremor
243,9319363,1.629,-0.01702318522290453,-0.08396526507519253,0.9984756927620437,2.5595062891008347,-14.971943292030597,6.835610236425961,tremor
244,9319368,1.634,-0.008797208719407644,-0.08239620618667141,0.9954145269038467,2.219880059207101,-12.186253090797699,6.040239903737319,tremor
245,9319373,1.639,-0.0012612853006340767,-0.08087379060661652,0.9923640955853137,1.8798806220311906,-9.504087363239075,5.249679630333288,tremor
246,9319378,1.644,0.005591807671299031,-0.07940248424474466,0.9893424981648192,1.541995918050664,-6.929905580072367,4.4680047136958185,tremor
247,9319387,1.653,0.011773118716502948,-0.07798652122241553,0.9863663735667663,1.2086078465861994,-4.468286244922732,3.6992614147495755,tremor
248,9319392,1.658,0.017297375071407044,-0.07662987355268062,0.9834508554187424,0.8819748774821382,-2.12387294030524,2.9474284780395315,tremor
249,9319397,1.663,0.022182788159059788,-0.07533622022882454,0.980609534817448,0.5642163341092382,0.09869119274440358,2.216378847791528,tremor
250,9319402,1.668,0.026450815028654675,-0.07410891635203819,0.9778544326793893,0.25729856940106444,2.194839544221185,1.5098422452458415,tremor
251,9319407,1.673,0.0301258806873717,-0.07295096308626312,0.9751959834386565,-0.036976783219563186,4.160167125694109,0.8313692291845118,tremor
252,9319417,1.683,0.03323506761959498,-0.07186497929937612,0.9726430315118992,-0.3169823579642312,5.9905225869047865,0.18429728911045148,tremor
253,9319426,1.692,0.0358077798272719,-0.07085317574353255,0.9702028415232358,-0.5812723446392996,7.682104655767531,-0.4282805712133356,tremor
254,9319452,1.718,0.0378753893423083,-0.06991733256989097,0.9678811228420738,-0.8285875301683568,9.231560161925893,-1.0035444023144864,tremor
255,9319462,1.728,0.03947087330575966,-0.06905878089968845,0.96568206859839,-1.057858179030029,10.63608057175741,-1.5389727677889373,tremor
256,9319472,1.738,0.040628449391863164,-0.06827838911714539,0.9636084090324123,-1.268204896461673,11.893493848896464,-2.0323649074041636,tremor
257,9319477,1.743,0.041383216681103924,-0.06757655452273655,0.9616614787853612,-1.4589376516488983,13.002348468304142,-2.481859463122799,tremor
258,9319482,1.748,0.04177080822418466,-0.06695320097159436,0.9598412974827227,-1.6295531434333792,13.961986561789056,-2.885949641282925,tremor
259,9319486,1.752,0.04182706064414515,-0.06640778308471297,0.9581466626455643,-1.7797306775928186,14.772603464571342,-3.243494685224393,tremor
260,9319491,1.757,0.04158770527803661,-0.06593929752535638,0.9565752535754345,-1.9093267057867858,15.43529136028654,-3.5537275393516596,tremor
261,9319496,1.762,0.04108808456589739,-0.06554630166254914,0.9551237444257302,-2.0183681598286904,15.952065264650903,-3.816258608494571,tremor
262,9319501,1.767,0.04036289661350016,-0.06522693969991199,0.9537879242529812,-2.107044702717532,16.325870218664267,-4.0310755565119125,tremor
263,9319506,1.772,0.039445970036256515,-0.06497897604650484,0.9525628214946652,-2.1757000093333096,16.56056925685643,-4.198539142374763,tremor
264,9319511,1.777,0.038370070294446876,-0.06479983536924785,0.9514428300949919,-2.2248221847877456,16.660912451841146,-4.319375156693917,tremor
265,9319516,1.782,0.037166737737594005,-0.06468664842064654,0.9504218344294293,-2.255033427407788,16.632488082122215,-4.394662592035661,tremor
266,9319521,1.787,0.035866156503013946,-0.06463630240952989,0.9494933302787444,-2.2670790459660943,16.481657680866874,-4.4258182496989225,tremor
267,9319525,1.791,0.034497052307232996,-0.06464549440436668,0.9486505393747333,-2.261815945738413,16.21547734629163,-4.414578046115215,tremor
268,9319530,1.796,0.03308661610138879,-0.0647107860538444,0.947886515468833,-2.2402007030100695,15.841608182318371,-4.362975327286463,tremor
269,9319540,1.806,0.03166044962207502,-0.06482865779893242,0.9471942404334335,-2.203277350341912,15.368219060083193,-4.2733165266553454,tremor
270,9319545,1.811,0.03024252815893059,-0.06499556075062868,0.9465667095516279,-2.1521649933478884,14.803885027589796,-4.148154510921584,tremor
271,9319549,1.815,0.028855175493604977,-0.06520796452754424,0.9459970058279759,-2.0880453726873864,14.15748462889451,-3.9902599523453564,tremor
272,9319575,1.841,0.027519046055496568,-0.06546239958662557,0.945478363794176,-2.012150471704847,13.438099113121655,-3.8025910491849375,tremor
273,9319580,1.846,0.02625310995863868,-0.06575549292100216,0.9450042238207684,-1.925750251083819,12.654916032701577,-3.588261893812728,tremor
274,9319585,1.851,0.02507463770352563,-0.06608399640213809,0.944568278316591,-1.8301405700908506,11.817139112652397,-3.3505097686857965,tremor
275,9319590,1.856,0.02399918280413531,-0.06644480745487091,0.944164511355154,-1.7266313354725278,10.933905616522468,-3.0926616425569504,tremor
276,9319595,1.861,0.02304056221872066,-0.06683498212357537,0.9437872331982824,-1.6165349101438187,10.014211831616564,-2.8181001486509367,tremor
277,9319600,1.866,0.022210836004478617,-0.06725174088955642,0.9434311109259851,-1.5011548174665084,9.066846799389774,-2.5302293522198256,tremor
278,9319604,1.87,0.02152028890150445,-0.06769246783439259,0.9430911959980806,-1.3817747917191534,8.10033404035882,-2.232440651486077,tremor
279,9319609,1.875,0.020977417449659884,-0.06815470392571625,0.9427629491473947,-1.2596482468813053,7.122880760713013,-1.9280791970679687,tremor
280,9319614,1.88,0.020588926672876234,-0.06863613534591793,0.9424422626026517,-1.1359882585283745,6.142333869403885,-1.6204112546268845,tremor
281,9319619,1.885,0.02035974030413887,-0.0691345779001985,0.9421254793061589,-1.011958172119582,5.166142068582078,-1.3125929676054944,tremor
282,9319624,1.89,0.020293027998436648,-0.0696479586313182,0.9418094085515548,-0.8886629612308398,4.2013232941969045,-1.0076409951848675,tremor
283,9319629,1.895,0.02039025205689277,-0.0701742958313393,0.9414913373296248,-0.7671414590360012,3.254436862535634,-0.7084054994763633,tremor
284,9319639,1.905,0.020651234956337094,-0.07071167866823745,0.94116903663449,-0.6483595748521173,2.3315598052584567,-0.41754593213049507,tremor
285,9319643,1.909,0.021074247561343774,-0.07125824762763175,0.9408407620403674,-0.5332045859586537,1.4382670306326375,-0.1375100229375036,tremor
286,9319648,1.914,0.021656116434100793,-0.07181217689692705,0.9405052479973437,-0.42248056649060245,0.5796151108569672,0.12948369788124348,tremor
287,9319653,1.919,0.022392347317076164,-0.07237165968368767,0.9401616954958156,-0.31690498427123004,-0.23987035675804735,0.3814596038352825,tremor
288,9319658,1.924,0.023277260801775973,-0.07293489726233558,0.9398097529927637,-0.2171064660112217,-1.016203751504784,0.6166947702038524,tremor
289,9319663,1.929,0.024304135524179076,-0.07350009229390383,0.9394494907570784,-0.12362370272558293,-1.7459446600952817,0.8337248474947132,tremor
290,9319668,1.934,0.02546535399159124,-0.07406544668170424,0.9390813690550507,-0.03690544181963293,-2.426199183698715,1.031346104124718,tremor
291,9319673,1.939,0.026752546345404464,-0.07462916393391085,0.9387062008427832,0.04268850808724587,-3.054617200574163,1.2086138364805408,tremor
292,9319700,1.966,0.028156727965442396,-0.07518945572400712,0.9383251098444333,0.11488534775743967,-3.6293855402769233,1.364837437548759,tremor
293,9319704,1.97,0.02966842775736151,-0.07574455209190697,0.9379394850612544,0.17949653002980007,-4.149217132987782,1.4995724935739647,tremor
294,9319714,1.98,0.03127780512137934,-0.07629271453144607,0.9375509328663705,0.2364142757090255,-4.613336315776118,1.6126103352665098,tremor
295,9319719,1.985,0.03297475481516975,-0.07683225108020422,0.9371612278879463,0.2856074657022724,-5.021460581118129,1.7039654976510032,tremor
296,9319724,1.99,0.034749000017427784,-0.07736153247340347,0.9367722638689816,0.32711701246034136,-5.373779120291174,1.773861537214995,tremor
297,9319728,1.994,0.03659017473384809,-0.07787900844100293,0.9363860056227511,0.3610508110684091,-5.670928537993945,1.8227156221749368,tremor
298,9319733,1.999,0.038487897201714055,-0.07838322330298833,0.9360044430911286,0.38757836455649336,-5.9139661016969,1.8511222620990164,tremor
299,9319743,2.009,0.040431836149131546,-0.07887283013658829,0.9356295483713599,0.4069251706832828,-6.104340853262829,1.8598364860934464,tremor
300,9319748,2.014,0.042411771697737084,-0.07934660293670263,0.9352632364157919,0.4193669508769466,-6.2438628645212715,1.849756720438388,tremor
301,9319753,2.019,0.04441765242855251,-0.07980344635504973,0.9349073299371876,0.4252237971001207,-6.334670873988272,1.821907561764504,tremor
302,9319758,2.024,0.0464396497293741,-0.0802424027731029,0.934563528877362,0.4248543083180221,-6.379198508365639,1.7774225950247342,tremor
303,9319762,2.028,0.0484682100775106,-0.08066265662790045,0.9342333846268545,0.41864978374551987,-6.38013927658394,1.7175273697371722,tremor
304,9319767,2.033,0.05049410544758942,-0.08106353605851735,0.9339182790261232,0.4070285343537154,-6.340410527959562,1.6435226236972487,tremor
305,9319772,2.038,0.05250848162518429,-0.08144451206684501,0.933619408041533,0.3904303668309429,-6.263116586972013,1.5567678285731468,tremor
306,9319777,2.043,0.054502903894320456,-0.08180519548470365,0.9333377698978934,0.36931128522360956,-6.151511310654206,1.4586651238047446,tremor
307,9319782,2.048,0.05646939937444865,-0.0821453321083151,0.9330741573672509,0.34413844513554903,-6.0089603561097,1.3506437022078446,tremor
308,9319787,2.053,0.05840049521681085,-0.0824647964009361,0.9328291538628685,0.3153853841536866,-5.838903490992463,1.2341447117320063,tremor
309,9319791,2.057,0.060289251923773934,-0.08276358417651095,0.9326031329678719,0.283527540644891,-5.6448173240842,1.1106067418101337,tremor
310,9319796,2.062,0.06212929121017267,-0.08304180466402823,0.9323962610380339,0.2490380620120996,-5.430178870550853,0.981451967801822,tremor
311,9319821,2.087,0.06391481805796025,-0.08329967231707451,0.932208502553774,0.2123838940271658,-5.198430391009444,0.8480730312792122,tremor
312,9319826,2.092,0.06564063689164194,-0.08353749867983344,0.9320396279509391,0.1740221361867427,-4.952945950063026,0.7118207361217194,tremor
313,9319831,2.097,0.06730216207889485,-0.08375568455453793,0.9318892237222122,0.13439664511641447,-4.697000124596106,0.5739926398011073,tremor
314,9319835,2.101,0.06889542318821883,-0.08395471264228008,0.9317567046358498,0.09393486926949023,-4.433739253034316,0.4358226152705345,tremor
315,9319840,2.106,0.07041706557183747,-0.08413514075520305,0.9316413279512676,0.053044903102233205,-4.1661555563445605,0.29847145163076777,tremor
316,9319845,2.111,0.0718643468720329,-0.08429759562786047,0.931542209513983,0.012112756349861023,-3.897064386774839,0.16301855239225552,tremor
317,9319850,2.116,0.07323512998544962,-0.08444276729125233,0.931458341586463,-0.028500157442189002,-3.629084779410934,0.03045478030227932,tremor
318,9319855,2.121,0.07452787289085924,-0.08457140391591784,0.9313886122229509,-0.06845930041559746,-3.3646234006233127,-0.09832351149832042,tremor
319,9319864,2.13,0.07574161558279442,-0.08468430698170577,0.9313318259337514,-0.10745903734425236,-3.1058619102232154,-0.22251923052211695,tremor
320,9319869,2.135,0.07687596418565582,-0.08478232659322317,0.9312867253163623,-0.14522438313879707,-2.854747683980467,-0.34143805447624903,tremor
321,9319874,2.14,0.07793107217634423,-0.0848663567339207,0.931252013265663,-0.18151244039239928,-2.6129877841670797,-0.45449068340260096,tremor
322,9319879,2.145,0.0789076185395789,-0.08493733024112973,0.9312263753209497,-0.21611349625739132,-2.382046022133187,-0.5611938270651391,tremor
323,9319884,2.15,0.07980678263295837,-0.08499621329144215,0.9312085016703551,-0.24885175090349032,-2.1631429301765888,-0.661169930145138,tremor
324,9319889,2.155,0.08063021555265493,-0.08504399921128794,0.9311971083172397,-0.2795856548839527,-1.9572584474493924,-0.7541456494178652,tremor
325,9319894,2.16,0.08138000785991895,-0.0850817014700142,0.9311909569201979,-0.3082078390187512,-1.7651371212939728,-0.8399491102962158,tremor
326,9319899,2.165,0.08205865364139026,-0.08511034576918837,0.9311888728480839,-0.33464462735363043,-1.5872956272243994,-0.9185059846187845,tremor
327,9319904,2.17,0.08266901101759011,-0.08513096120831115,0.9311897610419934,-0.3588551308703284,-1.4240324159467914,-0.989834446938476,tremor
328,9319908,2.174,0.0832142593681251,-0.08514457057934939,0.9311926193441799,-0.38082992653148634,-1.275439303319412,-1.0540390823380215,tremor
329,9319913,2.179,0.08369785369417404,-0.08515217991631001,0.9311965490354168,-0.4005893331200312,-1.1414148276988956,-1.1113038345279622,tremor
330,9319918,2.184,0.08412347667604562,-0.08515476749778586,0.931200762413007,-0.4181813027814849,-1.021679207382096,-1.1618840984483687,tremor
331,9319943,2.209,0.08449498909617947,-0.0851532725669501,0.9312045873372166,-0.4336789554861262,-0.9157907377139045,-1.2060980764984854,tremor
332,9319948,2.214,0.08481637937890092,-0.0851485840919797,0.9312074687701155,-0.44717779235325456,-0.8231634713743826,-1.2443175313129646,tremor
333,9319958,2.224,0.08509171304268458,-0.08514152993672247,0.9312089674230413,-0.45879263214717547,-0.7430860239095856,-1.2769580803428995,tremor
334,9319963,2.229,0.08532508286629192,-0.08513286684186351,0.9312087557121876,-0.4686543227005929,-0.6747413371787143,-1.304469188462294,tremor
335,9319968,2.234,0.08552056053916383,-0.0851232716265273,0.9312066112917964,-0.47690628532068285,-0.6172272154882632,-1.3273240243051843,tremor
336,9319973,2.239,0.08568215050716185,-0.08511333400728104,0.9312024084888323,-0.48370095537299507,-0.5695774248234066,-1.3460093532680955,tremor
