sample,t_ms,t_s,ax,ay,az,gx,gy,gz,tremor
0,9276809,0.0,-0.4412623123739623,-0.24303775216590376,-0.9153364088120206,3.1066181686310723,-3.342714256414996,-2.5538673440379456,tremor
1,9276815,0.006,-0.4416475545291904,-0.24299342945770566,-0.9147243123603841,2.8289411260860997,-1.3840275661670962,-2.653988940514906,tremor
2,9276819,0.01,-0.4421248597553112,-0.2429316653356181,-0.9139357718687928,2.554578173403105,0.5949157529260753,-2.7546346755732514,tremor
3,9276835,0.026,-0.44266716169565523,-0.24285080103669376,-0.9129923835314218,2.2847047541489287,2.582967130140614,-2.8548800221506156,tremor
4,9276839,0.03,-0.4432201502642986,-0.24275231372852227,-0.9119589752410526,2.0204994391033515,4.568364554745705,-2.953745970697185,tremor
5,9276849,0.04,-0.44372218884924436,-0.24263937553542883,-0.9109159768430074,1.7631369957688727,6.538784111127145,-3.050204017192396,tremor
6,9276854,0.045,-0.4441180882439815,-0.24251546374388624,-0.9099386629730455,1.5137812990197776,8.481396031970366,-3.1431816808751973,tremor
7,9276869,0.06,-0.44436434766533756,-0.2423835902367435,-0.9090882838176934,1.2735781214230837,10.3829249387229,-3.2315685267329752,tremor
8,9276884,0.075,-0.4444292361052302,-0.24224603703785583,-0.9084109326040772,1.0436478488722645,12.229713953787337,-3.3142226685714724,tremor
9,9276889,0.08,-0.44429089313759285,-0.24210436317549158,-0.9079396955376837,0.8250781730585681,14.007792395488462,-3.389977727810199,tremor
10,9276893,0.084,-0.4439351852497244,-0.24195951350646439,-0.907697477096634,0.6189168166852894,15.702946802426482,-3.457650222217273,tremor
11,9276898,0.089,-0.4433539670110312,-0.24181194364278014,-0.9076994296688818,0.4261643497330277,17.30079507689576,-3.5160473582556215,tremor
12,9276934,0.125,-0.44254385625177567,-0.2416617286178113,-0.9079547311956435,0.24776715558027126,18.786863584455983,-3.5639752001344562,tremor
13,9276939,0.13,-0.4415054367035292,-0.24150864867096886,-0.9084677771088828,0.08461060467494368,20.14666709183827,-3.6002471872292934,tremor
14,9276944,0.135,-0.44024276359690273,-0.24135225521869325,-0.9092389358589014,-0.06248750966507941,21.365791458753254,-3.623692968816848,tremor
15,9276959,0.15,-0.43876306511370167,-0.24119192236938095,-0.9102650086922349,-0.19278322469578582,22.42997901152029,-3.633167521009829,tremor
16,9276974,0.165,-0.4370765614702306,-0.2410268888386464,-0.9115395012844449,-0.30561231098993064,23.325216512437784,-3.6275605052935127,tremor
17,9276989,0.18,-0.4351963488040952,-0.2408562938800458,-0.9130527823165442,-0.40039579439332734,24.037825598912427,-3.605805820966384,tremor
18,9276994,0.185,-0.4331383137368374,-0.2406792096393443,-0.9147921788852634,-0.4766450759550762,24.55455550467833,-3.5668912949707248,tremor
19,9276998,0.189,-0.4309210571869045,-0.24049467138887784,-0.9167420409438894,-0.5339666346570434,24.862677797713165,-3.5098684423569235,tremor
20,9277056,0.247,-0.4285658142674226,-0.24030170641479676,-0.9188837951601113,-0.5720663004204534,24.950082783147618,-3.433862219775151,tremor
21,9277061,0.252,-0.426096362342359,-0.24009936186331934,-0.9211960009165013,-0.5907530846518373,24.805377132435613,-3.3380806839213504,tremor
22,9277065,0.256,-0.4235389125974287,-0.2398867315447145,-0.9236544162918235,-0.5899425531818853,24.4179822174318,-3.2218244573503774,tremor
23,9277097,0.288,-0.4209219825373033,-0.23966298149802945,-0.9262320787708567,-0.5696597215922834,23.778232550985283,-3.0844958955704285,tremor
24,9277101,0.292,-0.4182762481204369,-0.23942737400081573,-0.9288994034834145,-0.5300414450712123,22.877473663049265,-2.9256078419170994,tremor
25,9277115,0.306,-0.41563437508370443,-0.23917928964200177,-0.9316243005483653,-0.47133826493801084,21.70815867139935,-2.7447918508221374,tremor
26,9277131,0.322,-0.41303082957706116,-0.2389182470462187,-0.9343723123288994,-0.39391566429069497,20.263942736961447,-2.5418057564444494,tremor
27,9277136,0.327,-0.4105016686412876,-0.2386439198339618,-0.9371067709187862,-0.2982546781194514,18.53977452334078,-2.3165404629348934,tremor
28,9277141,0.332,-0.408084311391065,-0.23835615041821492,-0.9397889758574629,-0.18495179922961,16.531983706819258,-2.0690258355583224,tremor
29,9277145,0.336,-0.4058172920494513,-0.23805496027176584,-0.9423783918302029,-0.05471811966670461,14.238363507703156,-1.7994355790965377,tremor
30,9277181,0.372,-0.40373999623561224,-0.2377405563487268,-0.9448328658938473,0.09162235271327582,11.658247141007612,-1.5080910015735232,tremor
31,9277186,0.377,-0.40189238214258516,-0.2374133334066301,-0.9471088635527661,0.25313526155669874,8.792577020680497,-1.1954635769480555,tremor
32,9277191,0.382,-0.4003146884587176,-0.23707387204853406,-0.9491617227916873,0.42877940943017673,5.6439655021715325,-0.8621762393285639,tremor
33,9277195,0.386,-0.399047131085682,-0.23672293238345943,-0.9509459249634571,0.6174112569520498,2.2167459156948617,-0.5090033629879764,tremor
34,9277235,0.426,-0.39812959088815647,-0.23636144328407277,-0.9524153812425752,0.8177904583398055,-1.4829873710234456,-0.13686940670135594,tremor
35,9277240,0.431,-0.3976012948790161,-0.23599048730075592,-0.953523733189286,1.0285864684577326,-5.447351111466888,0.25315377281572443,tremor
36,9277245,0.436,-0.39750049340611276,-0.23561128137193976,-0.954224665808137,1.2483862436739215,-9.666658767590464,0.6598509067165572,tremor
37,9277254,0.445,-0.3978641360689889,-0.2352251535550384,-0.9544722313050036,1.4757030423023874,-14.129420643476081,1.0818685423299539,tremor
38,9277259,0.45,-0.3987275492570679,-0.23483351609390696,-0.954221181529156,1.7089863099749953,-18.822359543056663,1.5177214362032267,tremor
39,9277264,0.455,-0.40012411835710116,-0.2344378352388755,-0.9534273068301453,1.9466326118441182,-23.730442743530006,1.9658000182061945,tremor
40,9277274,0.465,-0.40208497781219243,-0.23403959834277463,-0.9520477787773165,2.1869975483375073,-28.836930855420896,2.4243788220383484,tremor
41,9277278,0.469,-0.4046387123116656,-0.23364027886775116,-0.9500414939037992,2.428408565348818,-34.123443896115724,2.8916257715991898,tremor
42,9277304,0.495,-0.4078110724377671,-0.2332413000486963,-0.9473694153671879,2.669178545034105,-39.57004464642126,3.365612214072421,tremor
43,9277309,0.5,-0.41162470808267726,-0.23284399806349315,-0.9439949091833859,2.9076200428615304,-45.155339100966195,3.844323602369168,tremor
44,9277314,0.505,-0.4160989228704071,-0.23244958564802742,-0.9398840715039373,3.1420600224836646,-50.85659357666001,4.325670750600919,tremor
45,9277319,0.51,-0.4212494526673965,-0.2320591171515233,-0.9350060432837207,3.3708549312713902,-56.649867820701786,4.80750160792552,tremor
46,9277323,0.514,-0.427088271041603,-0.23167345604329617,-0.9293333086329268,3.592405952561267,-62.51016326242791,5.287613508309057,tremor
47,9277328,0.519,-0.4336234242377318,-0.2312932458510247,-0.9228419731652548,3.8051742637208283,-68.41158536936355,5.763765853132853,tremor
48,9277337,0.528,-0.4408588978873285,-0.23091888543680958,-0.9155120187385284,4.007696122835559,-74.32751887918886,6.233693173698942,tremor
49,9277347,0.538,-0.44879451728210146,-0.23055050940763477,-0.9073275311287528,4.198597603398562,-80.2308144737194,6.695118506305731,tremor
50,9277352,0.543,-0.4574258826257181,-0.2301879743172265,-0.8982768973802518,4.37660879744979,-86.09398523712814,7.145766996849259,tremor
51,9277356,0.547,-0.4667443402653277,-0.22983085115025803,-0.8883529698313983,4.540577313190495,-91.88941100780906,7.583379637549594,tremor
52,9277361,0.552,-0.47673699051001883,-0.22947842439016747,-0.8775531941277768,4.689480901591952,-97.58954850699112,8.005727028409838,tremor
53,9277366,0.557,-0.487386732280596,-0.22912969776304068,-0.8658796989041648,4.822439055275407,-103.16714492132908,8.410623052646624,tremor
54,9277371,0.562,-0.49867234449915954,-0.22878340652975884,-0.8533393452468105,4.938723429307019,-108.59545243906935,8.79593835895616,tremor
55,9277386,0.577,-0.5105686037991615,-0.22843803597748574,-0.8399437345427995,5.037766935890177,-113.84844109506139,9.159613552873099,tremor
56,9277427,0.618,-0.5230464377870897,-0.22809184555218925,-0.8257091738880584,5.119171363078819,-118.90100718000865,9.499672013554566,tremor
57,9277432,0.623,-0.5360731126762162,-0.22774289789238614,-0.8106565988575173,5.182713363057219,-123.72917444488341,9.814232272314,tremor
58,9277447,0.638,-0.5496124535968694,-0.22738909189241546,-0.7948114541214709,5.228348651566594,-128.31028543953096,10.101519918748878,tremor
59,9277462,0.653,-0.563625095238462,-0.22702819886367562,-0.7782035330816501,5.256214261412329,-132.62318061903852,10.35987904101822,tremor
60,9277471,0.662,-0.5780687597161621,-0.22665790088271628,-0.7608667783490237,5.2666287045957345,-136.64836332514335,10.58778325283714,tremor
61,9277476,0.667,-0.5928985577652246,-0.2262758304979487,-0.7428390454502829,5.260089923592251,-140.3681493133226,10.783846397411038,tremor
62,9277481,0.672,-0.6080673086783616,-0.22587961107224963,-0.7241618326057618,5.237270954050936,-143.76680002781714,10.946833033258658,tremor
63,9277486,0.677,-0.6235258739396231,-0.2254668971233556,-0.7048799797610347,5.199013275049815,-146.83063924195264,11.075668790996124,tremor
64,9277495,0.686,-0.6392234993475017,-0.22503541405720454,-0.6850413402866037,5.1463178811071915,-149.54815295601583,11.169450644887258,tremor
65,9277500,0.691,-0.6551081605823466,-0.22458299665985304,-0.664696428903409,5.080334164795874,-151.91007259507379,11.227457074448656,tremor
66,9277504,0.695,-0.6711269076478509,-0.2241076256261697,-0.6438980494643466,5.0023467459323445,-153.9094415968444,11.249158006318893,tremor
67,9277519,0.71,-0.6872262043769063,-0.22360746127468328,-0.6227009062355309,4.913760422128881,-155.54166544002092,11.234224331336211,tremor
68,9277524,0.715,-0.7033522601956209,-0.223080873453048,-0.601161202283286,4.816083447571119,-156.80454505060644,11.182536693921808,tremor
69,9277556,0.747,-0.7194513525134707,-0.222526466511286,-0.5793362284901207,4.7109093755925695,-157.69829336319353,11.094193160677372,tremor
70,9277560,0.751,-0.7354701393327779,-0.22194309815222238,-0.5572839465995074,4.599897728956208,-158.2255346439943,10.969515306877181,tremor
71,9277565,0.756,-0.7513559627659676,-0.2213298910065363,-0.5350625695246461,4.484753788168724,-158.39128604260682,10.80905223277428,tremor
72,9277579,0.77,-0.7670571448949456,-0.2206862359635463,-0.5127301419475867,4.367207805113997,-158.2029207540063,10.61358205504151,tremor
73,9277584,0.775,-0.7825232776315902,-0.22001178663787285,-0.49034412398745336,4.248993949005641,-157.6701121399753,10.384110514139214,tremor
74,9277589,0.78,-0.7977055079106891,-0.21930644485795828,-0.46796098045662315,4.131829274338626,-156.80475816393076,10.12186647228941,tremor
75,9277604,0.795,-0.8125568187843226,-0.21857033769307935,-0.4456357780019778,4.0173929756011635,-155.62088552587153,9.828294214755559,tremor
76,9277613,0.804,-0.827032305979133,-0.21780378724340185,-0.42342179230794946,3.9073061726008183,-154.13453296017911,9.505042588782052,tremor
77,9277623,0.814,-0.8410894484079804,-0.21700727513688964,-0.40137012757748797,3.8031124598300483,-152.36361332312495,9.153951120795577,tremor
78,9277628,0.819,-0.8546883701345533,-0.21618140431518723,-0.3795293507392356,3.7062594523277497,-150.3277544140237,8.77703335362986,tremor
79,9277633,0.824,-0.8677920904531538,-0.2153268611367208,-0.35794514323822363,3.61808156173503,-148.0481189955625,8.376457746668665,tremor
80,9277642,0.833,-0.8803667580810004,-0.21444438097755864,-0.33665997377989154,3.539784229636498,-145.5472052038869,7.954526578477338,tremor
81,9277647,0.838,-0.8923818649404256,-0.21353472030665857,-0.31571279590362383,3.472429823334292,-142.84862940912063,7.513653373493271,tremor
82,9277673,0.864,-0.9038104346132451,-0.21259863764059073,-0.29513877465037686,3.4169253611069292,-139.9768945164006,7.056339428482789,tremor
83,9277678,0.869,-0.9146291803125244,-0.21163688488217455,-0.2749690467619491,3.3740121854731964,-136.9571475896612,6.585150025272817,tremor
84,9277687,0.878,-0.9248186272486438,-0.21065020940876783,-0.25523051872715774,3.3442576535663657,-133.81493141406472,6.102690870277157,tremor
85,9277692,0.883,-0.9343631947298494,-0.20963936604272326,-0.2359457065230057,3.32804887325697,-130.57593505390972,5.6115851961421646,tremor
86,9277702,0.893,-0.9432512343568938,-0.20860513688010526,-0.21713262009349224,3.3255884875817374,-127.26574853335532,5.114451811350427,tremor
87,9277707,0.898,-0.9514750222345176,-0.20754835603027325,-0.19880469454028182,3.3368924965614486,-123.9096264965084,4.613884218126099,tremor
88,9277722,0.913,-0.9590307050613551,-0.20646993573939026,-0.18097076878953133,3.361790098296906,-120.53226518780556,4.112430768205926,tremor
89,9277727,0.918,-0.9659182020108155,-0.20537089019504684,-0.16363511127668504,3.3999255255535656,-117.15759642714175,3.612575716345406,tremor
90,9277732,0.923,-0.9721410661862281,-0.2042523535505815,-0.14679749106949402,3.450761850863194,-113.80860150998541,3.1167209840377357,tremor
91,9277747,0.938,-0.9777063108473498,-0.20311558934065393,-0.13045329192226449,3.5135867377087866,-110.50714720858267,2.627168473174966,tremor
92,9277751,0.942,-0.9826242063464111,-0.20196198942487434,-0.11459366608857362,3.5875201292553083,-107.27384534794605,2.146102866912108,tremor
93,9277756,0.947,-0.9869080536689244,-0.2007930618056415,-0.09920572434647139,3.6715238789014277,-104.12793681858287,1.6755750009270443,tremor
94,9277766,0.957,-0.9905739396529705,-0.19961040801262644,-0.08427275860082153,3.764413317331412,-101.08720037365579,1.2174860552991587,tremor
95,9277771,0.962,-0.993640477469046,-0.19841569211871563,-0.06977449357444157,3.8648706991908783,-98.16788611911261,0.7735729868530864,tremor
96,9277797,0.988,-0.9961285339836503,-0.1972106047438401,-0.05568736439540524,3.9714603734393688,-95.38467320114697,0.3453957839577997,tremor
97,9277802,0.993,-0.9980609435087845,-0.19599682650049507,-0.04198481720920937,4.082645388839497,-92.75065078542316,-0.0656727386447773,tremor
98,9277807,0.998,-0.9994622055692785,-0.19477599610105958,-0.028637630159369425,4.196805116780154,-90.27732098194207,-0.4584538202869513,tremor
99,9277812,1.003,-1.0003581631638199,-0.19354968863284844,-0.015614252094355265,4.31225339856334,-87.97462190056044,-0.8319655749811573,tremor
100,9277817,1.008,-1.0007756579086045,-0.1923194092051382,-0.002881156159909087,4.427256736931276,-85.85096855911445,-1.185421197779407,tremor
101,9277821,1.012,-1.0007421595200983,-0.19108660627597676,0.00959679490279862,4.540052143229838,-83.91330896541912,-1.5182222774409355,tremor
102,9277826,1.017,-1.0002853691248097,-0.1898527075689959,0.021855975293416256,4.648864384287714,-82.16719241138807,-1.8299472447797631,tremor
103,9277836,1.027,-0.9994327985438973,-0.18861917973749548,0.03393361833980371,4.751922510074781,-80.61684688564796,-2.12033528110634,tremor
104,9277841,1.032,-0.9982113306288609,-0.18738761098085094,0.04586743828231873,4.847475661167466,-79.26526253915564,-2.389266265490031,tremor
105,9277846,1.037,-0.9966467685764195,-0.18615981382323843,0.05769525556684342,4.933808240011556,-78.11427831744733,-2.63673753668423,tremor
106,9277851,1.042,-0.9947633846071633,-0.18493794338448458,0.06945462938629512,5.009254574888495,-77.16466917890392,-2.8628383753530295,tremor
107,9277855,1.046,-0.9925834801969023,-0.18372462485652277,0.08118250095123197,5.072213212576621,-76.41623170994447,-3.0677231755357295,tremor
108,9277860,1.051,-0.9901269710502442,-0.18252308267055053,0.09291485068465972,5.121160955431861,-75.86786637422212,-3.251584284003709,tremor
109,9277865,1.056,-0.9874110101616919,-0.1813372630886699,0.10468637227835068,5.154666722965351,-75.51765504708467,-3.4146254593590557,tremor
110,9277870,1.061,-0.9844496616597864,-0.18017194172841686,0.11653016635277776,5.17140527478559,-75.36293285754583,-3.5570368514242046,tremor
111,9277875,1.066,-0.9812536367668503,-0.1790328078353698,0.1284774563383976,5.1701707848856895,-75.40035367188965,-3.678972330400994,tremor
112,9277880,1.071,-0.9778301012620809,-0.17792651792902658,0.1405573291239758,5.149890209666711,-75.62594880060271,-3.7805299043046605,tremor
113,9277884,1.075,-0.974182561462722,-0.17686071271042683,0.1527965029583833,5.10963634810588,-76.0351786970379,-3.861735849590758,tremor
114,9277894,1.085,-0.9703108330902807,-0.17584399277500837,0.16521912499185257,5.048640458395347,-76.62297755502186,-3.9225330404750696,tremor
115,9277921,1.112,-0.9662110946037491,-0.17488585064765025,0.17784660063633262,4.96630427742513,-77.38379082557657,-3.962773796693444,tremor
116,9277926,1.117,-0.961876023779481,-0.17399655885092416,0.19069745653892742,4.862211289291454,-78.31160578323455,-3.9822173821243307,tremor
117,9277931,1.122,-0.9572950136086538,-0.17318701598596328,0.20378723832869947,4.736137100419549,-79.39997538943489,-3.980532087699954,tremor
118,9277936,1.127,-0.9524544610745997,-0.17246855494969573,0.21712844338813464,4.588058790123956,-80.64203581232219,-3.957301634693554,tremor
119,9277941,1.132,-0.9473381201586086,-0.17185271923246415,0.23073048777127367,4.418163106067503,-82.03051804825917,-3.912035453622654,tremor
120,9277945,1.136,-0.9419275085785555,-0.1713510146070082,0.2445997051783717,4.226853361283316,-83.55775413989213,-3.844182243458842,tremor
121,9277961,1.152,-0.936202356347871,-0.1709746443975485,0.2587393747747544,4.014754868317253,-85.21567850262747,-3.7531461062810108,tremor
122,9277966,1.157,-0.9301410833112495,-0.17073423692489317,0.2731497737689403,3.782718726142591,-86.99582486917551,-3.6383044924637704,tremor
123,9277970,1.161,-0.9237212924446361,-0.1706395736860919,0.28782825017089453,3.5318237682712432,-88.88931936363537,-3.4990271897959397,tremor
124,9277986,1.177,-0.9169202659879594,-0.17069932636536003,0.3027693111227698,3.2633764967206935,-90.88687025630114,-3.334695652906772,tremor
125,9277991,1.182,-0.909715452454916,-0.1709208099224532,0.3179647226440003,2.978908869544072,-92.97875505944603,-3.144722091201455,tremor
126,9277996,1.187,-0.902084934169737,-0.1713097578456527,0.33340361746614844,2.6801738699163535,-95.15480581266078,-2.928567891699817,tremor
127,9278000,1.191,-0.8940078670260732,-0.17187012431923285,0.3490726086711068,2.369138844476965,-97.40439365526419,-2.6857611188948054,tremor
128,9278005,1.196,-0.8854648863895789,-0.17260391669422132,0.36495590789549315,2.0479766437322615,-99.71641405536784,-2.4159129873062355,tremor
129,9278076,1.267,-0.8764384752239845,-0.17351106041161246,0.3810354477785643,1.7190546247655654,-102.07927431953914,-2.1187333372652746,tremor
130,9278080,1.271,-0.8669132924076728,-0.17458929752791913,0.39729100902188563,1.384921591511449,-104.48088520510954,-1.7940452543250718,tremor
131,9278085,1.276,-0.8568764606592758,-0.17583411932418733,0.41370035283731404,1.048292757544917,-106.90865855426159,-1.4417990349893879,tremor
132,9278090,1.281,-0.8463178143791528,-0.17723873318588976,0.43023935964554444,0.7120328257252121,-109.34951281736221,-1.0620856844447943,tremor
133,9278094,1.285,-0.8352301080019668,-0.17879406398238093,0.4468821746584692,0.3791372894467968,-111.78988811389807,-0.6551500290103793,tremor
134,9278104,1.295,-0.8236091852550114,-0.180488790410277,0.4636013605205658,0.05271206917299105,-114.21577212544878,-0.22140337386208078,tremor
135,9278119,1.31,-0.8114541092649613,-0.1823094169969368,0.4803680566466851,-0.2640483993461737,-116.61273768881077,0.2385645104328822,tremor
136,9278134,1.325,-0.7987672530321516,-0.18424038249458244,0.4971521444446641,-0.5678845157798335,-118.96599252236186,0.7239743943244006,tremor
137,9278139,1.33,-0.7855543496418156,-0.1862642050771669,0.5139224173997641,-0.8554962104445517,-121.26044114402258,1.2338479632634538,tremor
138,9278165,1.356,-0.7718245018569254,-0.18836166398486107,0.5306467551145561,-1.1235689034457146,-123.48075880144093,1.7669999419853268,tremor
139,9278170,1.361,-0.7575901514338008,-0.1905120160480229,0.5472923008338572,-1.3688006469397396,-125.61147717159413,2.3220323330549966,tremor
140,9278175,1.366,-0.7428670094424722,-0.1926932440018748,0.563825642620405,-1.5879303474278925,-127.63708163361004,2.8973311037938636,tremor
141,9278180,1.371,-0.727673949785008,-0.19488233192656876,0.5802129989982853,-1.7777669217048173,-129.54211992562455,3.491065617486988,tremor
142,9278190,1.381,-0.7120328687604494,-0.1970555617876917,0.5964204103738454,-1.9352191836664816,-131.31132183540598,4.101191052689905,tremor
143,9278194,1.385,-0.6959685138507292,-0.19918882410450184,0.6124139377682147,-2.05732619958958,-132.92972922177466,4.725453988265486,tremor
144,9278199,1.39,-0.6795082849651266,-0.2012579353270382,0.6281598703051332,-2.1412877965544097,-134.38283518254664,5.361401259714165,tremor
145,9278204,1.395,-0.662682011301853,-0.2032389545807247,0.6436249424764136,-2.184494871298395,-135.65673065959075,6.006392122858743,tremor
146,9278213,1.404,-0.6455217068623023,-0.2051084930264851,0.6587765614455678,-2.184559130775858,-136.73825627414874,6.657613696388467,tremor
147,9278252,1.443,-0.6280613075303174,-0.20684401013999265,0.6735830435462183,-2.139341899301239,-137.61515677096804,7.3120995949139,tremor
148,9278290,1.481,-0.6103363924918218,-0.20842409262852646,0.6880138577231357,-2.0469816376364984,-138.2762351590051,7.9667516117121435,tremor
149,9278294,1.485,-0.5923838925828944,-0.20982871326468122,0.7020398720983135,-1.9059198186400985,-138.71150348735014,8.618364265732989,tremor
150,9278304,1.495,-0.5742417879521343,-0.21103946829960635,0.7156335984345766,-1.714924784256658,-138.91232716523652,9.263651979444914,tremor
151,9278309,1.5,-0.555948797378408,-0.21203979300979817,0.728769428398875,-1.473113181513569,-138.87155977095526,9.899278587181277,tremor
152,9278314,1.505,-0.5375440619035493,-0.21281515520117256,0.7414238554290382,-1.1799685616011764,-138.58366535856305,10.521888787900558,tremor
153,9278319,1.51,-0.5190668261605785,-0.21335322625058203,0.7535756766264985,-0.8353567380513337,-138.04482537230095,11.128141069683489,tremor
154,9278323,1.514,-0.500556121720185,-0.21364402873923605,0.7652061701774945,-0.4395375365441204,-137.25302744779253,11.71474156271991,tremor
155,9278333,1.524,-0.4820504576725318,-0.21368005913751478,0.7762992450688396,0.006827376937438623,-136.2081336335202,12.27847822680416,tremor
156,9278342,1.533,-0.4635875242853462,-0.21345638347755863,0.7868415611101436,0.5026708388878977,-134.91192590554442,12.81625474624544,tremor
157,9278347,1.538,-0.4452039157892079,-0.21297070358485748,0.7968226183787195,1.046520884556254,-133.36812726938263,13.325123491621108,tremor
158,9278352,1.543,-0.42693487806013036,-0.21222339128985912,0.8062348160967217,1.6365059142330354,-131.58239724111178,13.802316920154723,tremor
159,9278357,1.548,-0.4088140861921078,-0.2112174881394236,0.8150734816077703,2.2703643785256564,-129.56230106248512,14.245276827722789,tremor
160,9278367,1.558,-0.39087345575468524,-0.20995866848074685,0.8233368705607574,2.9454589577465566,-127.31725260873938,14.6516809311399,tremor
161,9278371,1.562,-0.37314299005741947,-0.20845516437422265,0.8310261396823738,3.658795127763257,-124.8584315641785,15.019466340800292,tremor
162,9278376,1.567,-0.3556506641670999,-0.20671765156908956,0.8381452936921251,4.407043914362079,-122.1986760401852,15.346849573876174,tremor
163,9278381,1.572,-0.33842234490555606,-0.20475909670769157,0.8447011080477416,5.186568544805909,-119.35235236435558,15.632342853377068,tremor
164,9278386,1.577,-0.3214817447192878,-0.2025945669741832,0.8507030293563397,5.99345461568717,-116.3352042553849,15.874766536030693,tremor
165,9278413,1.604,-0.30485040623408427,-0.20024100453374527,0.8561630554791212,6.823543319525716,-113.16418400552557,16.073257608503916,tremor
166,9278423,1.614,-0.28854771352833936,-0.19771696927116517,0.8610955975982169,7.672467219950202,-109.85726861718022,16.2272742809624,tremor
167,9278427,1.618,-0.27259092570169297,-0.1950423544630244,0.8655173267651625,8.535688048496361,-106.43326407500204,16.336596781945897,tremor
168,9278432,1.623,-0.25699522819623516,-0.19223808101287249,0.8694470076260573,9.408536021394035,-102.91160107164139,16.401324514096142,tremor
169,9278437,1.628,-0.24177379753500425,-0.18932577665603806,0.8729053220150086,10.286250234086753,-99.3121255518517,16.421869769201418,tremor
170,9278447,1.638,-0.2269378756203761,-0.18632744705637072,0.875914684859236,11.164019761957306,-95.65488742298875,16.398948233676077,tremor
171,9278452,1.643,-0.21249685038789068,-0.1832651459794818,0.8784990543562695,12.037025152404825,-91.95993072547341,16.33356655180329,tremor
172,9278456,1.647,-0.19845834033107806,-0.18016065176803328,0.8806837377468103,12.90048001881802,-88.24708846999951,16.227007254635677,tremor
173,9278471,1.662,-0.18482828110189276,-0.17703515718934754,0.8824951933376989,13.749672435418544,-84.53578521843728,16.080811399136415,tremor
174,9278480,1.671,-0.17161101297605394,-0.17390897938055272,0.8839608288612618,14.580005789677324,-80.844850300189,15.896759285227471,tremor
175,9278485,1.676,-0.15880936841253837,-0.17080129607021813,0.8851087959152572,15.387038691819216,-77.1923443080367,15.67684962321163,tremor
176,9278490,1.681,-0.1464247592236415,-0.16772991348519745,0.8859677802119821,16.166523485462655,-73.59540120472865,15.423277511345265,tremor
177,9278495,1.686,-0.1344572630245868,-0.16471107034142826,0.8865667877248391,16.914442857435937,-70.0700879982115,15.138411556786474,tremor
178,9278504,1.695,-0.12290570868677325,-0.16175928108225632,0.8869349275300266,17.627044005420803,-66.63128352392476,14.824770437583839,tremor
179,9278509,1.7,-0.11176776052154301,-0.15888722011963902,0.8871011931069224,18.30086978325899,-63.29257742436706,14.484999164199651,tremor
180,9278535,1.726,-0.10104000091138239,-0.15610564733154333,0.8870942449542353,18.93278620565354,-60.06618994923767,14.121845261298555,tremor
181,9278540,1.731,-0.09071801110788058,-0.15342337357149607,0.8869421984541801,19.520005669040145,-56.962912717197646,13.738135057902026,tremor
182,9278545,1.736,-0.08079644994022228,-0.15084726357427702,0.88667242180644,20.060105259061746,-53.99207009093215,13.336750248385128,tremor
183,9278550,1.741,-0.07126913022402405,-0.1483822725272685,0.8863113493778477,20.551039595420246,-51.1615003411808,12.920604867852264,tremor
184,9278555,1.746,-0.0621290927263856,-0.1460315118203842,0.8858843158336144,20.99114782247778,-48.47755534010814,12.492622810157533,tremor
185,9278559,1.75,-0.05336867763310288,-0.1437963391150462,0.8854154158916975,21.379154571522307,-45.94511715530044,12.055715999354431,tremor
186,9278565,1.756,-0.044979593586055716,-0.141676467841656,0.8849273935323969,21.71416496411863,-43.56762963500401,11.612763298720463,tremor
187,9278570,1.761,-0.03695298451698499,-0.13967009147603857,0.884441563106327,21.995653962700555,-41.34714290352723,11.166590202393676,tremor
188,9278579,1.77,-0.029279494689904383,-0.13777401839526837,0.8839777631261927,22.223450581771434,-39.28436863736672,10.71994930905505,tremor
189,9278584,1.775,-0.021949332549597113,-0.13598381372229465,0.883554341712518,22.39771763911649,-37.37874406920427,10.275501542124534,tremor
190,9278589,1.78,-0.01495233410450904,-0.13429394529514554,0.8831881708173882,22.51892784816259,-35.62850285850585,9.835798079106057,tremor
191,9278598,1.789,-0.008278026577552711,-0.13269793169966712,0.8828946846216109,22.587837130280658,-34.03075125865661,9.403262999258212,tremor
192,9278618,1.809,-0.001915692869508854,-0.1311884911367935,0.882687936047001,22.605456059371914,-32.581548380956775,8.980176749322519,tremor
193,9278623,1.814,0.004145563043563189,-0.12975769068450838,0.8825806643011925,22.57302034049653,-31.275989770344726,8.568660635616569,tremor
194,9278627,1.818,0.009916750305378235,-0.12839709614523812,0.8825843659270417,22.491961172064954,-30.108293906506663,8.170662641630829,tremor
195,9278657,1.848,0.01540892628968056,-0.1270979229906103,0.8827093620827565,22.363876254314377,-29.071891551489422,7.787944915596165,tremor
196,9278662,1.853,0.020633134748460763,-0.12585118880637972,0.8829648557549324,22.19050209568596,-28.15951802032075,7.422073263244067,tremor
197,9278667,1.858,0.025600349729454724,-0.12464786709147865,0.883358974169543,21.973688141581185,-27.363308428889635,7.07440892395135,tremor
198,9278672,1.863,0.030321428212201025,-0.12347904139971444,0.8838987935489152,21.71537311115596,-26.674895780185224,6.746102817104037,tremor
199,9278677,1.868,0.03480707411508438,-0.12233605782713282,0.8845903452764219,21.417563782636183,-26.085511424074678,6.438092335366903,tremor
200,9278687,1.878,0.039067815529050115,-0.12121067293111457,0.8854386042656465,21.082316327076807,-25.58608703719554,6.151100649123832,tremor
201,9278692,1.883,0.04311399588030119,-0.12009519345751149,0.8864474617797339,20.711720168553043,-25.16735689923471,5.885638385746838,tremor
202,9278697,1.888,0.04695577841971701,-0.11898260384116935,0.8876196860609445,20.30788425611886,-24.819958954558963,5.642007467585542,tremor
203,9278701,1.892,0.05060316218885109,-0.11786667738987175,0.888956874880237,19.872925573511232,-24.53453298386029,5.420306838878677,tremor
204,9278706,1.897,0.0540660065927449,-0.11674206738029355,0.8904594044884747,19.40895968493806,-24.301814185945037,5.220439786789302,tremor
205,9278711,1.902,0.05735406102823083,-0.11560437495815132,0.8921263794612906,18.91809311472442,-24.112720580329576,5.04212256509707,tremor
206,9278721,1.912,0.06047699571933383,-0.11445019167560719,0.8939555876259511,18.40241737911317,-23.958432868725815,4.8848940580003966,tremor
207,9278731,1.922,0.06344443000273724,-0.11327711563042,0.8959434637051704,17.864004522360485,-23.830465715734768,4.748126271226906,tremor
208,9278740,1.931,0.0662659547665016,-0.11208374139903528,0.8980850645837003,17.304904044837038,-23.72072980080456,4.631035499813197,tremor
209,9278745,1.936,0.06895114653180383,-0.11086962517649449,0.900374058285868,16.727141132244842,-23.621584420624096,4.532694084361696,tremor
210,9278750,1.941,0.07150957170218813,-0.1096352276403018,0.9028027279485695,16.132716086617453,-23.52588083923953,4.452042719097079,tremor
211,9278755,1.946,0.07395078066937683,-0.1083818379470444,0.9053619913891734,15.52360481397547,-23.426996945348375,4.387903310354722,tremor
212,9278785,1.976,0.07628429261881046,-0.10711148289020259,0.9080414363827561,14.901760146060909,-23.31886404401573,4.338992403214762,tremor
213,9278790,1.981,0.07851957288177591,-0.10582682557530229,0.9108293715129229,14.269113682895611,-23.19598675602774,4.303935196818648,tremor
214,9278795,1.986,0.08066600539736055,-0.10453105800364841,0.9137128924205159,13.627577766452905,-23.053457000228246,4.281280152076656,tremor
215,9278800,1.991,0.08273286314942012,-0.10322779170295474,0.916677963361617,12.979047160959226,-22.88696288234167,4.269514155124507,tremor
216,9278805,1.996,0.0847292792587682,-0.1019209500263398,0.9197095140832341,12.325400034476612,-22.692793032422262,4.267078138463761,tremor
217,9278814,2.005,0.08666422077029981,-0.10061466502478812,0.9227915520245419,11.668497898864752,-22.467836587765742,4.272382990830663,tremor
218,9278819,2.01,0.08854646620680806,-0.09931318098236815,0.9259072896904071,11.010184248448473,-22.2095786894337,4.283825522903434,tremor
219,9278824,2.015,0.0903845868377706,-0.09802076589885536,0.9290392867088005,10.352281723480193,-21.91609111618202,4.29980421449533,tremor
220,9278829,2.02,0.09218693050372076,-0.09674163151008369,0.9321696055983117,9.696587704538821,-21.58601756522896,4.318734460741806,tremor
221,9278834,2.025,0.09396160589354652,-0.09547986192601268,0.9352799796834701,9.044868317469236,-21.218553122676628,4.3390630621769475,tremor
222,9278843,2.034,0.09571646450751921,-0.09423935067872041,0.9383519909642906,8.398850898042763,-20.813417633188937,4.35928175837837,tremor
223,9278848,2.039,0.09745907723359627,-0.0930237459093957,0.9413672551379829,7.760215033708604,-20.370822943916675,4.377939673141087,tremor
224,9278858,2.049,0.09919670257262124,-0.09183640355597783,0.9443076104497581,7.130582365678797,-19.891434323343443,4.393654607813658,tremor
225,9278863,2.054,0.10093624409112659,-0.09068034867592847,0.9471553066753943,6.51150539271869,-19.376326703450708,4.405123179148121,tremor
226,9278872,2.063,0.1026841956256454,-0.08955824537337537,0.9498931903601738,5.904455559763968,-18.826936720193252,4.411129843605769,tremor
227,9278877,2.068,0.10444657400763499,-0.08847237610483016,0.952504882492494,5.3108109313826946,-18.245011787843833,4.410554880531887,tremor
228,9278901,2.092,0.10622884046290203,-0.08742463132456436,0.9549749450926968,4.731843739021393,-17.632557603637494,4.4023814238004,tremor
229,9278906,2.097,0.10803581317245964,-0.08641651043309505,0.9572890337367618,4.16870805902076,-16.991785526020326,4.3857016372931525,tremor
230,9278911,2.102,0.10987157456981157,-0.08544913477985847,0.9594340337537667,3.6224278432975696,-16.325061203468426,4.359722123564998,tremor
231,9278916,2.107,0.1117393776333725,-0.08452327305643512,0.9613981786280765,3.0938855073029616,-15.634855661802142,4.323768634563534,tremor
232,9278920,2.111,0.11364155563271011,-0.08363937884970864,0.9631711498712384,2.583811292402434,-14.923699809311147,4.277290115899581,tremor
233,9278925,2.116,0.11557943953007427,-0.08279763947703771,0.9647441581971425,2.092773658913851,-14.194143027578887,4.219862063820458,tremor
234,9278930,2.121,0.11755328663037469,-0.08199803457297797,0.9661100061803707,1.62117101799278,-13.448716221520108,4.151189114604023,tremor
235,9278935,2.126,0.11956222324238375,-0.08124040230558745,0.9672631326913573,1.169225159855859,-12.689899435346689,4.071106730863767,tremor
236,9278940,2.131,0.12160420317547921,-0.08052451062467567,0.968199639305978,0.7369767693165158,-11.92009392033095,3.979581809232786,tremor
237,9278945,2.136,0.12367598294327062,-0.0798501306283906,0.9689172986308003,0.3242834274337993,-11.141598375761587,3.876712017416624,tremor
238,9278949,2.14,0.12577311365778968,-0.07921710900864204,0.9694155441391357,-0.06917952505130995,-10.356588982993648,3.7627236799269617,tremor
239,9278954,2.145,0.1278899488437594,-0.07862543661225577,0.969695440760204,-0.4439149408832307,-9.567102818671351,3.6379680702975037,tremor
240,9278959,2.15,0.13001966683547125,-0.07807531042619142,0.9697596351884814,-0.800596395011936,-8.775024268810094,3.502916028189306,tremor
241,9278964,2.155,0.13215430607609355,-0.07756718673752343,0.9696122847582612,-1.1400571475958459,-7.9820741653503,3.358150894924731,tremor
242,9278968,2.159,0.1342848115414494,-0.07710182379432101,0.9692589638191181,-1.4632755103140396,-7.189801515482546,3.2043598427837754,tremor
243,9278974,2.165,0.13640109066103964,-0.076680312952498,0.9687065468891002,-1.7713566973189647,-6.399577866508808,3.0423237547287316,tremor
244,9278979,2.17,0.1384920774925474,-0.0763040979763443,0.9679630684664713,-2.0655113505404796,-5.612594516363094,2.8729058850374147,tremor
245,9278988,2.179,0.14054580448367582,-0.07597498279833118,0.9670375602323633,-2.3470310319426835,-4.829862914774177,2.697039589883078,tremor
246,9278993,2.184,0.14254948186057761,-0.0756951285630303,0.9659398674306608,-2.6172610746878524,-4.052218677777458,2.5157154525137213,tremor
247,9278997,2.188,0.1444895854168345,-0.07546704110914419,0.9646804473919902,-2.877571283363285,-3.2803296357000216,2.3299681349484516,tremor
248,9279023,2.214,0.14635195411577334,-0.07529355012801599,0.9632701543745698,-3.12932507084152,-2.5147082329574375,2.1408632664680782,tremor
249,9279033,2.224,0.1481218993271973,-0.07517778106002769,0.9617200160111827,-3.3738477130922244,-1.7557283914038482,1.9494846333795866,tremor
250,9279038,2.229,0.14978432757106871,-0.07512312039569083,0.960041007559504,-3.612394484974089,-1.003646652595263,1.7569218715539676,tremor
251,9279048,2.239,0.15132387824142376,-0.07513317454340328,0.9582438307385319,-3.8461194945114276,-0.25862706393526,1.564258789495082,tremor
252,9279053,2.244,0.15272507691907655,-0.07521172195053043,0.9563387041162997,-4.076046043988766,0.4792310785512996,1.3725623728592982,tremor
253,9279058,2.249,0.1539725036555623,-0.07536265783931574,0.9543351717789808,-4.303039305987392,1.20986381244023,1.182872453113092,tremor
254,9279063,2.254,0.15505097422272132,-0.0755899308111068,0.952241936408515,-4.527782016690187,1.9332127824183798,0.9961919768229625,tremor
255,9279067,2.258,0.1559457309898033,-0.07589747069346739,0.9500667220010742,-4.750753770119106,2.649196617207801,0.8134777969528291,tremor
256,9279072,2.263,0.15664263898491815,-0.07628910732979956,0.9478161703438455,-4.972214358776543,3.357684727614549,0.6356319240246359,tremor
257,9279077,2.268,0.15712838193140716,-0.07676848049689479,0.9454957740955067,-5.19219145993236,4.0584746300275105,0.4634932158180906,tremor
258,9279082,2.273,0.15739065268508357,-0.07733894173314046,0.9431098479480816,-5.410472822254852,4.751273602183958,0.29782953831774545,tremor
259,9279087,2.278,0.15741833256075752,-0.07800344951774785,0.940661537950054,-5.626602973142756,5.43568513583946,0.13933048675244378,tremor
260,9279092,2.283,0.1572016545169106,-0.0787644599062322,0.9381528677100976,-5.839884350727855,6.111200301412093,-0.011399195201581407,tremor
261,9279096,2.287,0.15673234602075709,-0.07962381534591655,0.9355848189434058,-6.049382672745071,6.777193814624273,-0.15384532402625387,tremor
262,9279106,2.297,0.1560037485599304,-0.08058263491696989,0.9329574427327586,-6.253936291856356,7.432924320957027,-0.2875889200450901,tremor
263,9279111,2.302,0.15501091208334036,-0.08164120962340664,0.9302699970187225,-6.45216925508236,8.077538212372515,-0.4123095942902232,tremor
264,9279116,2.307,0.15375066399362428,-0.08279890655113406,0.9275211052709438,-6.642507781641697,8.710076180697357,-0.5277875078002355,tremor
265,9279121,2.312,0.15222165351444433,-0.0840540856767379,0.9247089310779043,-6.823199892571799,9.329481703422617,-0.633903772469446,tremor
266,9279146,2.337,0.15042437317398713,-0.08540403282475423,0.9218313635478351,-6.992337957203973,9.934610742250282,-0.7306392165324315,tremor
267,9279151,2.342,0.14836115969399075,-0.08684491173362192,0.9188862089046506,-7.147883954349418,10.524242083167644,-0.8180714988535726,tremor
268,9279156,2.347,0.1460361767406711,-0.08837173743937146,0.9158713843829616,-7.287697269236325,11.097087921010692,-0.8963706171015164,tremor
269,9279161,2.352,0.14345538184131557,-0.08997837229513525,0.9127851113102767,-7.409564853197364,11.651804461022515,-0.9657929101135356,tremor
270,9279166,2.357,0.14062647940645107,-0.0916575450068785,0.9096261049448711,-7.511233558402971,12.187002459840796,-1.0266737020795274,tremor
271,9279171,2.362,0.1375588613408873,-0.09340089216862647,0.906393759107765,-7.590444424137282,12.701257756026084,-1.0794187765401475,tremor
272,9279176,2.367,0.13426353627330848,-0.09519902098841994,0.9030883238784138,-7.644968634519726,13.19312194719136,-1.1244949034360934,tremor
273,9279180,2.371,0.13075304804228205,-0.09704159125030443,0.8997110746361484,-7.672644791065892,13.661133455946072,-1.1624196728517577,tremor
274,9279185,2.376,0.12704138377227586,-0.09891741408230294,0.8962644705582956,-7.6714170497357195,14.103829284720478,-1.1937509128939034,tremor
275,9279195,2.386,0.12314387166030911,-0.10081456480880525,0.8927523003686895,-7.639373565686226,14.519757781568726,-1.2190759832746814,tremor
276,9279200,2.391,0.11907706846602954,-0.10272050706209696,0.8891798127073376,-7.574784576883344,14.907492715907388,-1.2390012366693959,tremor
277,9279205,2.396,0.11485863664966088,-0.10462222540525237,0.8855538280100134,-7.476139352035,15.26564888748322,-1.2541419223959602,tremor
278,9279210,2.401,0.11050721113487778,-0.10650636395756813,0.8818828283009696,-7.342181146046089,15.592899363086095,-1.2651127687472314,tremor
279,9279215,2.406,0.10604225579590969,-0.10835936888032291,0.8781770208767573,-7.171939263916343,15.887994265068516,-1.2725194234925667,tremor
280,9279220,2.411,0.10148390999036806,-0.11016763302914154,0.8744483715643254,-6.964757340319834,16.14978084700047,-1.2769508639310736,tremor
281,9279225,2.416,0.09685282578658211,-0.11191764155547514,0.8707106031440132,-6.720316995169712,16.377224411785775,-1.278972817766417,tremor
282,9279239,2.43,0.09216999696084936,-0.11359611768471783,0.8669791547037051,-6.438656117126174,16.569429477218716,-1.2791221722360615,tremor
283,9279244,2.435,0.08745658134309126,-0.11519016824997888,0.8632710981887148,-6.120181149704171,16.725660486066694,-1.2779022979593375,tremor
284,9279271,2.462,0.08273371862224793,-0.11668742875225993,0.8596050092770379,-5.765672905708836,16.8453613014153,-1.2757791811098813,tremor
285,9279275,2.466,0.0780223462141597,-0.11807620768688805,0.8560007909694242,-5.3762856148253295,16.928172729825555,-1.27317824570731,tremor
286,9279280,2.471,0.0733430161624422,-0.11934562958985889,0.8524794499193908,-4.953539110176522,16.973947373911017,-1.2704817564355748,tremor
287,9279285,2.476,0.06871571622017354,-0.12048577574366864,0.8490628274432597,-4.4993042665808245,16.982761221622667,-1.2680267175367599,tremor
288,9279290,2.481,0.06415969822200818,-0.1214878208266764,0.8457732891842308,-4.015781997441842,16.95492151739753,-1.266103219084775,tremor
289,9279295,2.486,0.059693316627236474,-0.12234416310420694,0.8426333793860867,-3.5054762875628827,16.8909706175546,-1.2649532212696057,tremor
290,9279300,2.491,0.05533387975120381,-0.1230485451451803,0.8396654475196567,-2.9711618840188554,16.791685696949223,-1.2647698031726158,tremor
291,9279305,2.496,0.051097515766730814,-0.1235961615846962,0.8368912564915064,-2.4158473893510863,16.658074334098135,-1.2656969294407745,tremor
292,9279310,2.501,0.04699905509721972,-0.12398375019875248,0.8343315827688826,-1.8427346036643302,16.49136614905046,-1.2678298032511286,tremor
293,9279315,2.506,0.043051930371675866,-0.12420966254786345,0.832005819424751,-1.255175045609335,16.293000798631436,-1.2712158762731067,tremor
294,9279319,2.51,0.03926809468859416,-0.12427391069273022,0.8299315933221212,-0.6566246449159825,16.064612747010248,-1.2758565772267727,tremor
295,9279324,2.515,0.035657958550275815,-0.12417818697554894,0.8281244074281211,-0.05059763663381159,15.808013325174878,-1.2817098025119478,tremor
296,9279329,2.52,0.032230345484409686,-0.12392585456712099,0.8265973186041238,0.5593793074484992,15.525170667328517,-1.288693187518968,tremor
297,9279334,2.525,0.02899246606440884,-0.12352190736450115,0.8253606601951033,1.1698117105218617,15.218188159782743,-1.2966881473067418,tremor
298,9279339,2.53,0.02594990977097707,-0.12297289884126725,0.8244218173790748,1.7772797703629302,14.889282054252199,-1.3055446424837296,tremor
299,9279344,2.535,0.0231066539013299,-0.12228684055221696,0.8237850615785415,2.3784779049380096,14.54075888172669,-1.3150865937046086,tremor
300,9279348,2.539,0.020465088527103638,-0.12147307212221307,0.8234514483275396,2.9702507540262193,14.174993256591145,-1.3251178395896868,tremor
301,9279353,2.544,0.018026056327679115,-0.12054210564804267,0.8234187808855042,3.5496252185777384,13.79440658423054,-1.3354285094990817,tremor
302,9279358,2.549,0.015788905987158597,-0.11950544845538622,0.823681639660578,4.113838308691211,13.401447077970019,-1.3458016629131455,tremor
303,9279368,2.559,0.01375155775033568,-0.1183754090289484,0.8242314752335427,4.660360735645389,12.998571349501532,-1.356020027064988,tremor
304,9279394,2.585,0.011910579700413877,-0.11716489163076817,0.8250567605643688,5.186916305126789,12.58822765839804,-1.36587263925069,tremor
305,9279399,2.59,0.010261273366880298,-0.11588718559851714,0.8261431959608759,5.691497239468199,12.17284070047028,-1.3751611697827653,tremor
306,9279403,2.594,0.008797767409013309,-0.11455575551304259,0.8274739587915695,6.172375584551376,11.754797616014619,-1.3837056761227071,tremor
307,9279408,2.599,0.007513118342035951,-0.11318403826682558,0.8290299889457126,6.628110863443822,11.33643475964026,-1.391349536277116,tremor
308,9279423,2.614,0.006399417540336249,-0.11178525250065827,0.8307903008071428,7.057554142305197,10.920024731427382,-1.3979633420299822,tremor
309,9279428,2.619,0.005447904000336857,-0.11037222492458079,0.8327323129671964,7.459848676960313,10.507763225735259,-1.4034475963784296,tremor
310,9279433,2.624,0.004649082500256479,-0.10895723680141083,0.834832187863744,7.834427302221554,10.101755385390929,-1.4077341411173176,tremor
311,9279438,2.629,0.003992846791293398,-0.10755189249689634,0.8370651747567789,8.181006705548102,9.704001529877653,-1.4107863267550753,tremor
312,9279443,2.634,0.0034686072611950468,-0.10616701064726321,0.8394059507272671,8.499578696892026,9.316382333209356,-1.4125980177522104,tremor
313,9279447,2.638,0.0030654221384180825,-0.10481253729751609,0.8418289555695171,8.790398558702176,8.940643733716763,-1.413191593137849,tremor
314,9279457,2.648,0.0027721308072622955,-0.10349747942078827,0.844308717452718,9.05397054517626,8.578382037240488,-1.4126151502459414,tremor
315,9279462,2.653,0.0025774872612651266,-0.10222985660094608,0.8468201670096992,9.291030606045455,8.231029806040562,-1.4109391456959757,tremor
316,9279472,2.663,0.0024702912247398573,-0.10101666837210142,0.8493389380446521,9.502526442578068,7.899843190685564,-1.4082527130218054,tremor
317,9279477,2.668,0.002439514114862763,-0.09986387475021714,0.8518416533180793,9.689595064026781,7.585891346691082,-1.404659881001924,tremor
318,9279482,2.673,0.002474416886141465,-0.09877638782110118,0.8543061938585439,9.85353809738183,7.290048478005431,-1.4002758822905774,tremor
319,9279487,2.678,0.0025646569586251756,-0.09775807279238347,0.8567119499813215,9.995795200538463,7.012988880594049,-1.3952236927022863,tremor
320,9279491,2.682,0.0027003819042437324,-0.09681175758120658,0.8590400517087191,10.117916023546304,6.755185151420306,-1.3896308840699239,tremor
321,9279520,2.711,0.002872308326214141,-0.09593925069942352,0.861273575660015,10.221531241300552,6.516909515329821,-1.383626815011355,tremor
322,9279525,2.716,0.0030717853322924918,-0.09514136782758473,0.8633977248156496,10.308323235772358,6.2982380372014415,-1.377340131714309,tremor
323,9279530,2.721,0.003290843026753574,-0.0944179679535089,0.8653999770053673,10.37999703340417,6.099057360118957,-1.3708965143710585,tremor
324,9279535,2.726,0.0035222273305968704,-0.09376800020658363,0.8672701976965063,10.438252104631365,5.919073565361405,-1.364416592941062,tremor
325,9279539,2.73,0.0037594230037357066,-0.09318956248618271,0.8690007128049471,10.48475561235995,5.75782278618659,-1.3580139698046545,tremor
326,9279544,2.735,0.003996666906432955,-0.09267997265990043,0.8705863378516739,10.521117660518344,5.614683296065282,-1.3517933179790291,tremor
327,9279549,2.74,0.004228953338511778,-0.09223585254931858,0.8720243607717325,10.548869045992328,5.488888895754002,-1.3458485598683345,tremor
328,9279559,2.75,0.0044520328378573615,-0.09185322420770205,0.8733144769337389,10.569441957465536,5.379543517073902,-1.3402611647958176,tremor
329,9279564,2.755,0.004662405217629385,-0.09152761720456666,0.8744586763375345,10.584153991737239,5.285637033053386,-1.3350986299188192,tremor
330,9279569,2.76,0.0048573069772590224,-0.09125418483926771,0.8754610844353564,10.594195771824818,5.206062307727928,-1.330413226209101,tremor
331,9279573,2.764,0.005034692626956147,-0.09102782647788427,0.8763277594936992,10.600622353832803,5.139633529327818,-1.3262410975423182,tremor
