sample,t_ms,t_s,ax,ay,az,gx,gy,gz,tremor
0,4752376,0.0,-0.24586294426877134,-0.2455709912944375,0.8708189037768511,0.922667367191682,4.727554495503977,-0.2769881585521731,no_tremor
1,4752381,0.005,-0.2458674956384006,-0.24550894257768274,0.8708848133113494,0.9753162209887056,4.8483820933859425,-0.7296143611277934,no_tremor
2,4752386,0.01,-0.24582349941129322,-0.2454257778187777,0.8709749405375071,1.0266154271261512,4.956714335450185,-1.1641471766782598,no_tremor
3,4752391,0.015,-0.245695185793813,-0.2453219305896085,0.8710905277823418,1.076184838747662,5.050183646106216,-1.57609127755109,no_tremor
4,4752395,0.019,-0.2454459659679598,-0.24520268900116893,0.8712280359602866,1.1236345532189798,5.126351670577723,-1.9608442074915682,no_tremor
5,4752400,0.024,-0.2450451026277537,-0.24507580073804752,0.8713814175376294,1.1685670423581027,5.18272566561186,-2.313728541450324,no_tremor
6,4752405,0.029,-0.24446962006481363,-0.2449493986065423,0.871544168274631,1.2105795079329438,5.216776769432646,-2.6300269397876432,no_tremor
7,4752410,0.034,-0.24370341808419288,-0.24483095444760855,0.8717103905668255,1.24926646312016,5.225960131035512,-2.9050200048720103,no_tremor
8,4752425,0.049,-0.24273559803318712,-0.24472699343009274,0.8718750995739104,1.2842225360912993,5.20773685639141,-3.134026818069385,no_tremor
9,4752429,0.053,-0.24155900938796918,-0.24464317788358417,0.8720341483382726,1.3150454880751665,5.159597705665008,-3.3124480024783627,no_tremor
10,4752434,0.058,-0.240169283192318,-0.24458450260373812,0.8721840284247555,1.3413394346062388,5.079088451274552,-3.435811121491742,no_tremor
11,4752444,0.068,-0.23856429582541663,-0.24455548071781547,0.8723216700878539,1.362718255286981,4.963836781547494,-3.499818185945077,no_tremor
12,4752449,0.073,-0.23674392923635645,-0.24456028048497166,0.8724442851044834,1.3788091748350417,4.811580609088985,-3.5003950043873364,no_tremor
13,4752454,0.078,-0.23471001009360629,-0.24460280987733493,0.8725492580549682,1.3892564966746308,4.6201976173402395,-3.433742073335195,no_tremor
14,4752459,0.083,-0.23246634640763555,-0.2446867580989942,0.8726340785680549,1.393725469723906,4.387735853945975,-3.296386668673018,no_tremor
15,4752463,0.087,-0.23001881098019578,-0.24481560510882125,0.8726963044442341,1.3919062694226054,4.112445156177329,-3.085235766621418,no_tremor
16,4752488,0.112,-0.2273754419548485,-0.24499260858790456,0.8727335467703645,1.3835180756047274,3.792809172160282,-2.797629393147133,no_tremor
17,4752493,0.117,-0.2245465435451318,-0.24522077549238472,0.8727434702035616,1.36831323199866,3.4275777221945045,-2.431393973851295,no_tremor
18,4752498,0.122,-0.22154477739389422,-0.24550282333143114,0.8727238034910934,1.3460814735472164,3.0157992271099663,-1.9848952315386952,no_tremor
19,4752507,0.131,-0.2183852391012295,-0.24584113481664713,0.872672356751281,1.3166542069933704,2.5568529154123056,-1.4570901554273665,no_tremor
20,4752512,0.136,-0.21508551665136125,-0.24623770849055282,0.872587043093369,1.27990882680436,2.050480507471129,-0.8475775445050484,no_tremor
21,4752517,0.141,-0.21166572861805932,-0.24669410724470786,0.8724659028974084,1.2357730432376852,1.4968170619808139,-0.15664660875775666,no_tremor
22,4752522,0.146,-0.2081485406219527,-0.2472114061775544,0.8723071295996858,1.1842291935359994,0.8964206560149193,0.614676902787907,no_tremor
23,4752527,0.151,-0.20455915882456854,-0.24779014093818225,0.8721090962040191,1.125318501904472,0.25030055515819405,1.4645875881291295,no_tremor
24,4752531,0.155,-0.20092529942274567,-0.2484302574988544,0.8718703820114654,1.05914524947608,-0.4400564839791497,2.39046083867999,no_tremor
25,4752536,0.16,-0.1972771332336415,-0.24913106415878639,0.871589799261063,0.9858808120390001,-1.1726621483533823,3.388817394108176,no_tremor
26,4752541,0.165,-0.19364720457681775,-0.24989118648009598,0.871266419520956,0.9057675207878149,-1.9450051185567607,4.455292552486248,no_tremor
27,4752546,0.17,-0.1900703237866875,-0.25070852577880653,0.8708995997740909,0.8191222991407637,-2.754032618927781,5.584610577025981,no_tremor
28,4752556,0.18,-0.186583432835403,-0.2515802217300314,0.8704890082126666,0.7263400259631704,-3.596135355355443,6.770564829329874,no_tremor
29,4752561,0.185,-0.18322544371650695,-0.25250261959166714,0.870034649794906,0.6278965722832942,-4.4671362270263515,8.006004141772515,no_tremor
30,4752565,0.189,-0.18003704943354043,-0.2534712425024834,0.8695368916287723,0.5243514554511853,-5.362283191148448,9.282825918673884,no_tremor
31,4752570,0.194,-0.17706050765370296,-0.25448076926772367,0.8689964882309587,0.41635005230614186,-6.276246646382483,10.591976427180816,no_tremor
32,4752575,0.199,-0.17433939732222528,-0.2555250180085511,0.8684146066666827,0.30462531150852706,-7.20312168178993,11.923458703481552,no_tremor
33,4752585,0.209,-0.17191834878588563,-0.2565969360213333,0.8677928515083935,0.18999890476214631,-8.136435513895652,13.266348457592729,no_tremor
34,4752610,0.234,-0.16984274824174392,-0.2576885961688227,0.8671332894629245,0.0733817570253414,-9.069160404699922,14.608818310701047,no_tremor
35,4752615,0.239,-0.1681584176072924,-0.25879120010702733,0.866438473412275,-0.04422610332998532,-9.993732317426874,15.93817064399088,no_tremor
36,4752620,0.244,-0.16691127119811833,-0.25989508863746325,0.8657114655007978,-0.16173643203954566,-10.902075524024431,17.24087927867624,no_tremor
37,4752625,0.249,-0.1661469508958847,-0.2609897594620403,0.8649558587910098,-0.2779744489901178,-11.785633329577596,18.502640144961113,no_tremor
38,4752629,0.253,-0.1659104417902349,-0.26206389260372764,0.8641757969113135,-0.3916813603066783,-12.635405025216373,19.708431032969138,no_tremor
39,4752634,0.258,-0.1662456705810301,-0.26310538373688186,0.8633759910383453,-0.5015177634499077,-13.441989123791828,20.84258044989162,no_tremor
40,4752639,0.263,-0.16719508933038857,-0.2641013856437592,0.8625617334972362,-0.6060679646441908,-14.195632872031243,21.888845532880428,no_tremor
41,4752649,0.273,-0.16879924745515396,-0.26503835797627123,0.8617389072252835,-0.7038452240786226,-14.886287969512948,22.830498885750334,no_tremor
42,4752654,0.278,-0.17109635514642477,-0.2659021254533617,0.8609139903283604,-0.7932979295143857,-15.503672359197667,23.650424119845344,no_tremor
43,4752658,0.282,-0.17412184168906994,-0.26667794456426264,0.8600940549651125,-0.872816684531894,-16.037337887007325,24.331219786542686,no_tremor
44,4752663,0.287,-0.1779079124251506,-0.26735057877700813,0.8592867598221369,-0.9407422845206372,-16.47674355961434,24.85531129214716,no_tremor
45,4752668,0.292,-0.182483108355034,-0.26790438217149265,0.8585003354942545,-0.9953745418085255,-16.81133406061097,25.20507028721714,no_tremor
46,4752678,0.302,-0.18787187259337865,-0.26832339132917327,0.857743562157458,-1.034981910880355,-17.030623115537033,25.362940923613102,no_tremor
47,4752683,0.307,-0.19409412808937468,-0.2685914252194778,0.8570257390172868,-1.0578118554852574,-17.124281225264646,25.311572274752304,no_tremor
48,4752688,0.312,-0.20116487117715806,-0.2686921927280224,0.8563566451310632,-1.0621018918212894,-17.082227214510667,25.033956117625547,no_tremor
49,4752693,0.317,-0.20909378563867934,-0.2686094073752158,0.8557464913370677,-1.0460912359886287,-16.894722968387104,24.513569179002648,no_tremor
50,4752702,0.326,-0.2178848820331619,-0.26832690867638526,0.8552058631750749,-1.0080329793080423,-16.55247065641847,23.73451885346038,no_tremor
51,4752707,0.331,-0.22753616707093705,-0.2678287894962756,0.8547456548472643,-0.9462067115548577,-16.046711671500066,22.681691308561668,no_tremor
52,4752752,0.376,-0.23803934778211772,-0.26709952865162473,0.8543769944417212,-0.8589315093321869,-15.369326440773932,21.34090080449666,no_tremor
53,4752757,0.381,-0.24937957515063516,-0.2661241279164292,0.8541111608161538,-0.7445792046002309,-14.51293419572896,19.6990389741071,no_tremor
54,4752762,0.386,-0.2615352317514552,-0.2648882524889482,0.8539594927078513,-0.6015878470402345,-13.470991720622738,17.744222736876022,no_tremor
55,4752767,0.391,-0.2744777677442272,-0.2633783738938392,0.8539332907857723,-0.4284752738655429,-12.237890034513105,15.46593945935452,no_tremor
56,4752771,0.395,-0.2881715893401307,-0.26158191422387406,0.8540437134827495,-0.22385270219679748,-10.809047906791196,12.855187926604229,no_tremor
57,4752781,0.405,-0.30257400356705794,-0.2594873905770847,0.8543016675382237,0.013561737743083438,-9.181001062414207,9.904613656362011,no_tremor
58,4752791,0.415,-0.3176352228054033,-0.25708455851624545,0.8547176942501642,0.2849296060854313,-7.351485903650683,6.608637070977615,no_tremor
59,4752796,0.42,-0.33329843214623334,-0.2543645533646581,0.8553018524873689,0.5912789669145134,-5.3195165630755445,2.9635730417500628,no_tremor
60,4752801,0.425,-0.3494999221311747,-0.2513200281500159,0.8560635995574616,0.9334914837810168,-3.0854541110671887,-1.032259664731212,no_tremor
61,4752806,0.43,-0.3661692888673466,-0.24794528701072488,0.8570116710662379,1.3122898708016937,-0.6510667723173493,-5.3784404784272555,no_tremor
62,4752810,0.434,-0.3832297028710182,-0.24423641288137654,0.8581539609422018,1.7282257783909005,1.980419940338715,-10.072362049176329,no_tremor
63,4752815,0.439,-0.40059824728070326,-0.2401913882735577,0.8594974028355814,2.1816682001404053,4.8042841929416635,-15.109159528926115,no_tremor
64,4752820,0.444,-0.41818632529464983,-0.23581020796511235,0.861047854131935,2.6727924952409765,7.8142808279157965,-20.481655353440434,no_tremor
65,4752825,0.449,-0.43590013583066256,-0.23109498240750814,0.8628099838445369,3.2015701275856814,11.00262722313503,-26.18032065476144,no_tremor
66,4752830,0.454,-0.4536412154813405,-0.2260500306602486,0.8647871656651523,3.7677592268005067,14.360002738256794,-32.19325430249977,no_tremor
67,4752855,0.479,-0.47130704385223826,-0.22068196166688198,0.8669813774580089,4.370896076576895,17.875562362616908,-38.506180413640514,no_tremor
68,4752860,0.484,-0.48879170834064645,-0.214999742702314,0.8693931084757639,5.010287631540257,21.53696506067045,-45.102464987832654,no_tremor
69,4752869,0.493,-0.5059866233735755,-0.2090147538472978,0.8720212755589271,5.685005157263347,25.330417184659904,-51.963152123682164,no_tremor
70,4752879,0.503,-0.5227812981291253,-0.2027408273817359,0.8748631495521388,6.393879082610793,29.240731188846368,-59.06702006140747,no_tremor
71,4752884,0.508,-0.5390641458712719,-0.19619427102993636,0.8779142931321645,7.135495152969563,33.25139973385433,-66.39065708755817,no_tremor
72,4752894,0.518,-0.5547233272698855,-0.189393874033847,0.8811685111917159,7.9081919784327175,37.34468511182555,-73.90855713232007,no_tremor
73,4752898,0.522,-0.5696476194671035,-0.18236089507185244,0.8846178148564766,8.710060081273154,41.501723752239364,-81.59323468893074,no_tremor
74,4752903,0.527,-0.583727302184733,-0.17511903108172752,0.8882524001255804,9.538942558665333,45.702645384533525,-89.41535848635444,no_tremor
75,4752908,0.532,-0.5968550518346165,-0.16769436609198296,0.892060642015305,10.392437485520807,49.92670623699247,-97.34390314889971,no_tremor
76,4752913,0.537,-0.608926834380352,-0.1601152992251917,0.8960291049514465,11.267902185666642,54.15243544062671,-105.34631787758718,no_tremor
77,4752923,0.547,-0.6198427875886678,-0.15241245112115703,0.9001425699999032,12.162459496883198,58.35779358096954,-113.38871098473305,no_tremor
78,4752927,0.551,-0.629508083288687,-0.14461854814824085,0.9043840793516291,13.073006147332713,62.52034210163618,-121.43604890386302,no_tremor
79,4752932,0.556,-0.6378337603201113,-0.13676828393747045,0.9087349982929228,13.996223348073855,66.61742201677829,-129.45236808540707,no_tremor
80,4752942,0.566,-0.6447375189982917,-0.12889815799297938,0.9131750947009922,14.928589688303997,70.62634014241198,-137.40099798300074,no_tremor
81,4752947,0.571,-0.6501444681633556,-0.12104629140653429,0.9176826359128095,15.86639639650358,74.52456081410479,-145.24479314248927,no_tremor
82,4752952,0.576,-0.6539878162244354,-0.1132522200305856,0.9222345026249021,16.805765002277013,78.28990082397343,-152.94637222773954,no_tremor
83,4752979,0.603,-0.6562094980744098,-0.10555666583494874,0.9268063192930566,17.742667400899734,81.90072508931829,-160.4683616545727,no_tremor
84,4752993,0.617,-0.6567607303506738,-0.09800128757328619,0.9313726003130967,18.672948285230003,85.33614037245698,-167.77364136224242,no_tremor
85,4753003,0.627,-0.6556024882597404,-0.09062841229875981,0.9359069110776622,19.592349867284412,88.57618423353546,-174.8255901486512,no_tremor
86,4753008,0.632,-0.6527058980620222,-0.08348074967154176,0.9403820428236992,20.49653876468587,91.60200635233983,-181.58832796039644,no_tremor
87,4753013,0.637,-0.6480525403142993,-0.07660109137306177,0.944770200018059,21.381134877080694,94.39603942729724,-188.02695258515837,no_tremor
88,4753022,0.646,-0.641634660074808,-0.07003199826929346,0.9490431988788518,22.24174202738229,96.94215704364862,-194.10776833814631,no_tremor
89,4753027,0.651,-0.633455281471559,-0.0638154782441797,0.9531726754968689,23.073980095309835,99.22581616603023,-199.79850453829135,no_tremor
90,4753032,0.656,-0.6235282252985079,-0.0579926578548417,0.9571303018989943,23.87351832825353,101.23418221996572,-205.06852180348093,no_tremor
91,4753037,0.661,-0.6118780296148737,-0.05260345114010726,0.9608880082781756,24.63610947786456,102.95623506131878,-209.88900443938007,no_tremor
92,4753041,0.665,-0.5985397746570418,-0.0476862290368878,0.964418209498856,25.357624379338326,104.38285448234474,-214.2331374452306,no_tremor
93,4753046,0.67,-0.5835588147067843,-0.04327749291944232,0.9676940338724882,26.034086562461557,105.50688426189973,-218.07626690725974,no_tremor
94,4753056,0.68,-0.5669904208727163,-0.03941155577334757,0.970689552087525,26.661706457741662,106.32317413171369,-221.3960427909143,no_tremor
95,4753071,0.695,-0.5488993400144611,-0.03612023445135396,0.9733800040780662,27.23691473728792,106.82859939782084,-224.1725433735087,no_tremor
96,4753075,0.699,-0.5293592762462733,-0.0334325563349146,0.9757420215360375,27.75639430972137,107.02205832439033,-226.38838077828615,no_tremor
97,4753104,0.728,-0.5084523025583635,-0.031374483544451305,0.9777538437309639,28.217110473410127,106.90444775298046,-228.0287872804672,no_tremor
98,4753109,0.733,-0.48626821102938733,-0.029968657605756257,0.9793955243207983,28.616338726444916,106.47861778520435,-229.08168225563526,no_tremor
99,4753114,0.738,-0.4629038108015282,-0.029234167197139727,0.9806491269340818,28.95168974018504,105.74930668498261,-229.53771982702636,no_tremor
100,4753118,0.742,-0.43846218339073834,-0.029186341286818445,0.9814989074809647,29.221131030649392,104.72305743870893,-229.3903174346349,no_tremor
101,4753123,0.747,-0.4130519049884863,-0.02983656963998732,0.9819314813939096,29.423004909622435,103.40811763610593,-228.63566569160412,no_tremor
102,4753128,0.752,-0.38678624521101523,-0.031192152343686906,0.98193597428088,29.556042361427394,101.81432450395309,-227.2727200136515,no_tremor
103,4753133,0.757,-0.35978235133941905,-0.033256179672372856,0.981504154762298,29.61937256580555,99.95297705025538,-225.30317461002963,no_tremor
104,4753138,0.762,-0.33216042654600725,-0.03602744330097154,0.9806305485285367,29.612527867028213,97.83669736655243,-222.73141951414,no_tremor
105,4753143,0.767,-0.3040429099793824,-0.03950037956631596,0.9793125328756191,29.535444071220645,95.47928319376746,-219.56448141136323,no_tremor
106,4753147,0.771,-0.2755536659219566,-0.04366504518277581,0.9775504111416995,29.388456036495576,92.89555388230181,-215.81194909290227,no_tremor
107,4753152,0.776,-0.2468171885650743,-0.04850712553382782,0.9753474665739559,29.17228860318014,90.10119187083846,-211.48588442842436,no_tremor
108,4753157,0.781,-0.21795782828731658,-0.05400797538823152,0.9727099952101164,28.888042993523918,87.1125817728349,-206.6007198069999,no_tremor
109,4753167,0.791,-0.1890990446858081,-0.06014469162756185,0.9696473173712997,28.537178890623228,83.94664909696537,-201.17314304550945,no_tremor
110,4753172,0.796,-0.16036269100843728,-0.06689021732226227,0.9661717673473894,28.121492482459804,80.62070053792354,-195.22197080819112,no_tremor
111,4753177,0.801,-0.13186833406940515,-0.07421347625936892,0.9622986608307103,27.643090825528162,77.15226765595202,-188.76801162261893,no_tremor
112,4753182,0.806,-0.10373261319583887,-0.08207953681235676,0.9580462396393646,27.10436294114698,73.55895561771558,-181.83391961659325,no_tremor
113,4753186,0.81,-0.0760686412400518,-0.09044980385832266,0.9534355932895294,26.507948106239116,69.85829850243553,-174.4440401365623,no_tremor
114,4753191,0.815,-0.04898545019487224,-0.09928223729272509,0.9484905570440313,25.856701840374313,66.06762249424297,-166.62424844215224,no_tremor
115,4753196,0.82,-0.022587483470199274,-0.10853159556456916,0.9432375861945561,25.153660123216664,62.203918093006386,-158.40178270562305,no_tremor
116,4753201,0.825,0.0030258635658479763,-0.1181497025486215,0.9377056065332336,24.40200240220959,58.28372228623556,-149.80507258198136,no_tremor
117,4753228,0.852,0.02776065360183339,-0.1280857359777862,0.9319258412372529,23.605013970547084,54.32301143588157,-140.8635646566821,no_tremor
118,4753233,0.857,0.051528767166281776,-0.1382865355704446,0.92593161472185,22.766048309919938,50.33710544730918,-131.6075461218051,no_tremor
119,4753238,0.862,0.07424821175823482,-0.14869692889861147,0.9197581343958361,21.888489997405266,46.340583604843964,-122.06796806819433,no_tremor
120,4753247,0.871,0.09584338026067221,-0.1592600729498931,0.9134422516516604,20.97571876517038,42.34721228048952,-112.27626979310561,no_tremor
121,4753253,0.877,0.11624525893200585,-0.1699178092371822,0.9070222038074217,20.031075272089026,38.36988455290469,-102.26420550012864,no_tremor
122,4753257,0.881,0.1353915856330607,-0.18061103020228667,0.9005373390679189,19.057829100698616,34.42057161891905,-92.06367471679609,no_tremor
123,4753267,0.891,0.1532269592996301,-0.19128005454148583,0.8940278268745909,18.059149437668776,30.510285746659076,-81.70655769045243,no_tremor
124,4753281,0.905,0.16970290200055377,-0.20186500895309728,0.887534356267556,17.03807883652089,26.64905441105284,-71.22455695645532,no_tremor
125,4753286,0.91,0.18477787522140685,-0.21230621367429117,0.8810978250884884,15.997510399691828,22.845905167509503,-60.64904620819593,no_tremor
126,4753291,0.915,0.19841725228496368,-0.22254456904703676,0.8747590230125527,14.940168652238837,19.108860753214188,-50.01092752955085,no_tremor
127,4753305,0.929,0.21059324906711602,-0.2325219402465066,0.8685583115111203,13.868594309847376,15.444943852487334,-39.34049796561394,no_tremor
128,4753310,0.934,0.22128481539643607,-0.24218153723469493,0.8625353039142792,12.78513306936638,11.86019091957717,-28.667326301185014,no_tremor
129,4753315,0.939,0.23047748973920096,-0.2514682869783783,0.8567285487644163,11.691928473457992,8.359674418030684,-18.020140792810864,no_tremor
130,4753320,0.944,0.23816321996866205,-0.26032919500075624,0.8511752196315415,10.59091882573515,4.9475328103468765,-7.426728466352932,no_tremor
131,4753325,0.949,0.24434015319603988,-0.26871369342266055,0.8459108145001819,9.483838061610243,1.6270076146240546,3.0861535459243052,no_tremor
132,4753350,0.974,0.24901239779934614,-0.276573972787557,0.8409688677406723,8.372220413969625,-1.5995131641270304,13.49285429032138,no_tremor
133,4753360,0.984,0.25218976092249396,-0.2838652951440807,0.8363806775492172,7.257408651582502,-4.730445922433706,23.768892690337143,no_tremor
134,4753365,0.989,0.25388746482814767,-0.29054628606978583,0.8321750515832596,6.140565611713329,-7.764957359120782,33.89100858359989,no_tremor
135,4753370,0.994,0.25412584556823703,-0.2965792035530495,0.8283780733294646,5.022688697696437,-10.702906079564553,43.8372011749643,no_tremor
136,4753375,0.999,0.25293003747871,-0.301930181900925,0.8250128915186634,3.9046269693199385,-13.544780596117086,53.58675516607556,no_tremor
137,4753379,1.003,0.2503296470028199,-0.3065694491009126,0.8220995346476416,2.7871004204951317,-16.291634419277678,63.12025502242844,no_tremor
138,4753384,1.008,0.24635841929627172,-0.31047151632328684,0.8196547523892004,1.6707210149713148,-18.945018932200803,72.41958803545734,no_tremor
139,4753389,1.013,0.241053900968522,-0.31361533849779466,0.817691885378406,0.556015035705501,-21.506914733809584,81.46793701166484,no_tremor
140,4753394,1.018,0.2344571021711756,-0.31598444512763374,0.816220764561259,-0.5565537040268322,-23.979662125224383,90.2497635663232,no_tremor
141,4753399,1.023,0.22661216106181972,-0.3175670407117182,0.8152476409862761,-1.6665602398464452,-26.365891402769474,98.75078311578781,no_tremor
142,4753404,1.028,0.21756601345518556,-0.3183560743332461,0.8147751466117956,-2.7735948707813796,-28.668453608043347,106.9579327509917,no_tremor
143,4753408,1.032,0.2073680702287486,-0.318349278140388,0.8148022863931832,-3.8772400402741494,-30.890352368704175,114.85933323471303,no_tremor
144,4753413,1.037,0.19606990478233668,-0.3175491745967306,0.81532446160513,-4.977048095258367,-33.03467744084902,122.44424639543655,no_tremor
145,4753418,1.042,0.1837249525663459,-0.3159630525190015,0.8163335240455433,-6.072520309826051,-35.10454053570218,129.7030291909923,no_tremor
146,4753423,1.047,0.17038822439526585,-0.31360291205213986,0.8178178604601012,-7.163087529453515,-37.1030139815093,136.62708568710485,no_tremor
147,4753428,1.052,0.15611603495587392,-0.3104853788618033,0.8197625062217211,-8.248092755639487,-39.03307273736146,143.20881814136507,no_tremor
148,4753432,1.056,0.14096574760610672,-0.30663158795679896,0.8221492869987388,-9.326775949473989,-40.89754023943298,149.44157830375028,no_tremor
149,4753437,1.061,0.12499553624598152,-0.30206703769340126,0.824956986851599,-10.398261286691161,-42.69903852128228,155.31961994308082,no_tremor
150,4753442,1.066,0.10826416473223009,-0.2968214146643857,0.8281615409126009,-11.461547046730388,-44.43994300785094,160.83805348754638,no_tremor
151,4753447,1.071,0.09083078401028181,-0.2909283903416941,0.8317362505292998,-12.515498264754457,-46.12234233747242,165.992803528311,no_tremor
152,4753479,1.103,0.07275474685700345,-0.2844253905260024,0.8356520184938322,-13.558842219120907,-47.7480035174609,170.78056977885947,no_tremor
153,4753483,1.107,0.05409543986840569,-0.2773533388602184,0.8398776017472459,-14.590166769039964,-49.31834266628806,175.19879191340158,no_tremor
154,4753488,1.112,0.03491213208513233,-0.26975637588398543,0.8443798787563578,-15.607921501671168,-50.83440153903253,179.2456185382014,no_tremor
155,4753493,1.117,0.015263839415585435,-0.26168155533474796,0.8491241286286907,-16.610421599589262,-52.296829973591,182.9198803983669,no_tremor
156,4753508,1.132,-0.004790796214422466,-0.2531785196290122,0.8540743189681654,-17.59585430105183,-53.70587433359056,186.221067800356,no_tremor
157,4753513,1.137,-0.025193614278912112,-0.24429915667989863,0.8591933994778977,-18.56228779526669,-55.0613719596592,189.14931213381726,no_tremor
158,4753518,1.142,-0.045887031124301765,-0.2350972404215546,0.8644435983779151,-19.507682369695253,-56.3627515742497,191.70537129635167,no_tremor
159,4753523,1.147,-0.06681412513273473,-0.2256280576141737,0.8697867188164552,-20.429903604728455,-57.60903951950115,193.89061875807153,no_tremor
160,4753528,1.152,-0.08791871329503696,-0.2159480236910609,0.8751844326060647,-21.326737392674445,-58.798871646237856,195.70703595081014,no_tremor
161,4753533,1.157,-0.10914542092189272,-0.20611429057969977,0.8805985688003586,-22.19590654268063,-59.93051061667038,197.1572076282713,no_tremor
162,4753537,1.161,-0.13043974615234652,-0.19618434958375366,0.8859913948324579,-23.03508872039187,-61.0018683329567,198.24431981340084,no_tremor
163,4753552,1.176,-0.1517481207699913,-0.18621563255444798,0.8913258881506151,-23.841935460312435,-62.010533157340014,198.97215992317842,no_tremor
164,4753562,1.186,-0.17301796861659713,-0.1762651147071171,0.896565996501335,-24.614091980130976,-62.953801547210226,199.34511863660182,no_tremor
165,4753567,1.191,-0.19419776261767638,-0.16638892254654722,0.9016768852188294,-25.34921752105701,-63.828713692742674,199.36819304854566,no_tremor
166,4753600,1.224,-0.21523708113167722,-0.15664195044295248,0.9066251700775957,-26.045005938515782,-64.63209272041041,199.04699063163517,no_tremor
167,4753605,1.229,-0.2360866640372759,-0.1470774894345153,0.9113791344500801,-26.699206274030185,-65.36058701579478,198.38773351305102,no_tremor
168,4753614,1.238,-0.2566984687163204,-0.1377468718034712,0.9159089296831492,-27.309643050338426,-66.01071522180082,197.39726256677346,no_tremor
169,4753619,1.243,-0.27702572590603813,-0.12869913485934129,0.9201867577656628,-27.874236045924974,-66.57891347702228,196.08304082614666,no_tremor
170,4753624,1.248,-0.29702299530533915,-0.11998070715080489,0.9241870355048624,-28.391019321634932,-67.06158446535264,194.45315573513145,no_tremor
171,4753629,1.253,-0.3166462208273952,-0.11163512002101993,0.9278865395609163,-28.858159291360675,-67.45514784491877,192.51631977493957,no_tremor
172,4753634,1.258,-0.3358527854737666,-0.1037027470426291,0.9312645318062207,-29.273971651485258,-67.75609160838196,190.28186902279114,no_tremor
173,4753639,1.263,-0.3546015659340241,-0.09622057344833691,0.9343028645796104,-29.636937010022592,-67.9610238985919,187.7597592214332,no_tremor
174,4753643,1.267,-0.3728529871602613,-0.08922199723794438,0.9369860654979825,-29.945715085703767,-68.06672476837392,184.96055896347946,no_tremor
175,4753648,1.272,-0.39056907730431534,-0.08273666321349081,0.9393014015729928,-30.199157378158233,-68.07019733792912,181.8954396244034,no_tremor
176,4753653,1.277,-0.4077135235175057,-0.07679033078440184,0.9412389224635165,-30.39631824063519,-67.96871777508802,178.5761617115097,no_tremor
177,4753658,1.282,-0.42425172918265,-0.0714047760022877,0.9427914827809387,-30.536464314321048,-67.75988350747396,175.01505733256295,no_tremor
178,4753663,1.287,-0.4401508731646286,-0.0665977279336063,0.9439547434592778,-30.619082307023827,-67.44165907321704,171.22500852764261,no_tremor
179,4753668,1.292,-0.45537997162230204,-0.06238283915743866,0.9447271523099068,-30.643885118313538,-67.01241902768423,167.2194212534175,no_tremor
180,4753673,1.297,-0.46990994281957893,-0.058769689881847845,0.9451099040040059,-30.61081632752777,-66.4709873469088,163.01219486206261,no_tremor
181,4753677,1.301,-0.48371367521033415,-0.05576382490023192,0.9451068798656708,-30.520053069445712,-65.81667280348752,158.617686977596,no_tremor
182,4753687,1.311,-0.4967660988591885,-0.05336682235189162,0.9447245680132066,-30.372007324426438,-65.04929983642468,154.05067374008064,no_tremor
183,4753692,1.316,-0.5090442600112619,-0.05157639300170082,0.9439719645512322,-30.167325646326372,-64.16923448973624,149.32630546300763,no_tremor
184,4753697,1.321,-0.520527398355814,-0.05038650850645152,0.9428604566850486,-29.906887345068636,-63.17740505136861,144.46005783166163,no_tremor
185,4753723,1.347,-0.5311970262584689,-0.04978755688686804,0.941403688793208,-29.591801134760793,-62.07531708062634,139.4676788602953,no_tremor
186,4753728,1.352,-0.5410370089780119,-0.04976652317624808,0.9396174126475666,-29.223400256490326,-60.86506256838722,134.36513192128118,no_tremor
187,4753738,1.362,-0.550033644643919,-0.05030719297963734,0.9375193231099566,-28.803236091296792,-59.549323033889166,129.1685352534442,no_tremor
188,4753743,1.367,-0.558175742552482,-0.05139037647039416,0.9351288807648378,-28.333070296160663,-58.13136643120173,123.89409843936632,no_tremor
189,4753752,1.376,-0.5654546981438812,-0.05299415019331704,0.9324671230763034,-27.81486552278564,-56.61503782095229,118.55805640493347,no_tremor
190,4753757,1.381,-0.5718645628533523,-0.055094113943656806,0.9295564657937153,-27.250774808636155,-55.004743855003994,113.17660153808741,no_tremor
191,4753762,1.386,-0.5774021068954892,-0.057663659942920116,0.926420496474935,-26.643129753458574,-53.30543121588567,107.76581455138225,no_tremor
192,4753772,1.396,-0.582066872956634,-0.06067425151920449,0.9230837621422834,-25.994427607015197,-51.52255924234189,102.34159472837489,no_tremor
193,4753777,1.401,-0.5858612187540242,-0.0640957085035544,0.9195715532192623,-25.307317394655488,-49.66206705475674,96.91959020049815,no_tremor
194,4753787,1.411,-0.5887903464871979,-0.06789649655966587,0.9159096859976766,-24.58458519973245,-47.73033556959633,91.51512890187352,no_tremor
195,4753796,1.42,-0.5908623173650334,-0.07204401766435,0.9121242859370599,-23.82913871024182,-45.73414486123183,86.14315084525039,no_tremor
196,4753801,1.425,-0.59208804963742,-0.07650489895181971,0.9082415740860448,-23.043991126047434,-43.68062739305472,80.81814235086055,no_tremor
197,4753806,1.43,-0.5924812988777046,-0.08124527713739006,0.9042876588298335,-22.232244516575825,-41.5772176982832,75.55407283924403,no_tremor
198,4753816,1.44,-0.5920586196246366,-0.08623107576453104,0.9002883350107543,-21.3970727192514,-39.43159914504532,70.36433476990896,no_tremor
199,4753821,1.445,-0.5908393078716009,-0.09142827259391817,0.8962688922534594,-20.54170387621759,-37.25164847019558,65.26168727459141,no_tremor
200,4753847,1.471,-0.5888453242618699,-0.09680315458977541,0.8922539340757623,-19.66940271886191,-35.0453788097747,60.25820400161215,no_tremor
201,4753852,1.476,-0.5861011981944586,-0.10232255816467532,0.8882672091075124,-18.783452722655475,-32.8208819854394,55.365225655888494,no_tremor
202,4753857,1.481,-0.5826339133561853,-0.10795409261707385,0.8843314554971287,-17.88713826425768,-30.586270816043275,50.59331767991567,no_tremor
203,4753867,1.491,-0.5784727754675827,-0.11366634502471805,0.8804682593735647,-16.983726914854717,-28.349622202172867,45.952233464950716,no_tremor
204,4753872,1.496,-0.5736492632642486,-0.11942906522223198,0.8766979280543116,-16.07645199805358,-26.118921676421213,41.450883405749956,no_tremor
205,4753882,1.506,-0.5681968639360014,-0.12521332986985814,0.8730393785410566,-15.16849553129694,-23.90201003127436,37.097310022692135,no_tremor
206,4753887,1.511,-0.5621508944199625,-0.13099168499212618,0.8695100417114069,-14.26297166122628,-21.70653254190696,32.89866928141057,no_tremor
207,4753891,1.515,-0.5555483100941363,-0.13673826671619263,0.866125782484862,-13.362910697415515,-19.539891202975962,28.861218148773062,no_tremor
208,4753896,1.52,-0.5484275025453046,-0.14242890026292657,0.8629008361052445,-12.471243844721716,-17.409200303464818,24.990308338360038,no_tremor
209,4753901,1.525,-0.5408280881876014,-0.1480411775376566,0.8598477605370871,-11.590788730978502,-15.321245576551615,21.29038612028565,no_tremor
210,4753906,1.53,-0.5327906895855363,-0.15355451393194744,0.8569774048220246,-10.72423582293303,-13.282447085398779,17.764998000681338,no_tremor
211,4753911,1.535,-0.5243567113887618,-0.15895018518281911,0.8542988930877258,-9.87413581821717,-11.298825942106209,14.416802016424562,no_tremor
212,4753916,1.54,-0.5155681128173258,-0.16421134534065396,0.8518196237518405,-9.042888093946278,-9.375974906005673,11.247584341472713,no_tremor
213,4753921,1.545,-0.5064671786468702,-0.16932302707008778,0.8495452833220144,-8.23273028330914,-7.519032868186396,8.258280863043085,no_tremor
214,4753926,1.55,-0.49709629063405664,-0.17427212564733485,0.8474798740648206,-7.445729041296281,-5.732663200168031,5.449003359070971,no_tremor
215,4753931,1.555,-0.4874977012940031,-0.17904736812030758,0.8456257547050223,-6.683772050825376,-4.021035924516003,2.8190698923297854,no_tremor
216,4753940,1.564,-0.4777133118944736,-0.18363926916259965,0.843983693224077,-5.9485613117878,-2.3878136531314373,0.3670390298756589,no_tremor
217,4753970,1.594,-0.46778445646765093,-0.1880400751780735,0.8425529307538341,-5.24160774810635,-0.8361412347430147,-1.9092525032402032,no_tremor
218,4753975,1.599,-0.4577516935610923,-0.19224369820089943,0.8413312555071547,-4.56422716129349,0.6313609442004018,-4.012649123025335,no_tremor
219,4753980,1.604,-0.44765460735308077,-0.19624564109176434,0.8403150856499173,-3.9175375522439624,2.0126000549322263,-5.946633021532957,no_tremor
220,4753985,1.609,-0.43753161963775944,-0.20004291546417524,0.8394995599963836,-3.302457825046797,3.306010363635023,-7.715278520206314,no_tremor
221,4753989,1.613,-0.427419814036864,-0.2036339536962117,0.8388786354000656,-2.719707877087808,4.5105492581753825,-9.323204526187443,no_tremor
222,4754004,1.628,-0.4173547736199063,-0.20701851630057413,0.8384451897132932,-2.1698100690151056,5.625689820752402,-10.775525477980347,no_tremor
223,4754009,1.633,-0.4073704329227178,-0.21019759584268233,0.8381911291989652,-1.6530920566825835,6.651410017304807,-12.077801164966443,no_tremor
224,4754014,1.638,-0.39749894515545453,-0.21317331851386115,0.8381074992956716,-1.1696909549354424,7.588178594495127,-13.235985799203673,no_tremor
225,4754019,1.643,-0.38777056519242015,-0.2159488443849733,0.8381845976605135,-0.7195587899318312,8.43693780214569,-14.256376709347514,no_tremor
226,4754023,1.647,-0.37821354874260926,-0.2185282672857179,0.8384120884406803,-0.30246918304202264,9.199083093197444,-15.145563016795496,no_tremor
227,4754033,1.657,-0.3688540679177667,-0.22091651517589728,0.838779116753969,0.08197480382484694,9.876439991161934,-15.910374643201424,no_tremor
228,4754038,1.662,-0.35971614325043433,-0.22311925179646463,0.8392744223897003,0.4343317436394644,10.471238351257186,-16.557831985410505,no_tremor
229,4754043,1.667,-0.3508215920720811,-0.22514278030984805,0.8398864517757167,0.7553119333676834,10.98608427169851,-17.095096577897408,no_tremor
230,4754053,1.677,-0.3421899930412449,-0.22699394956171678,0.840603467295877,1.045766599391666,11.423929934035982,-17.52942304386913,no_tremor
231,4754057,1.681,-0.3338386665108065,-0.22868006352127193,0.8414136530874888,1.3066763302326576,11.788041665525386,-17.868112614793688,no_tremor
232,4754062,1.686,-0.32578267033776354,-0.23020879438506028,0.8423052165011242,1.5391388544536415,12.081966522290784,-18.11846847480509,no_tremor
233,4754067,1.691,-0.31803481066338457,-0.23158809976013295,0.843266484467726,1.744356287006978,12.30949768995527,-18.287753161465982,no_tremor
234,4754093,1.717,-0.3106056671218309,-0.23282614427536874,0.8442859940910022,1.9236219711016198,12.474638989816306,-18.38314822757572,no_tremor
235,4754117,1.741,-0.30350363186743234,-0.233931225903883,0.8453525768669896,2.0783070443493283,12.581568765923242,-18.411716339877565,no_tremor
236,4754127,1.751,-0.29673496174098446,-0.23491170721370508,0.8464554360258395,2.209846857038378,12.63460341518869,-18.380365960104648,no_tremor
237,4754132,1.756,-0.29030384281967075,-0.23577595169838056,0.8475842165895443,2.319727367205202,12.638160813407373,-18.295818723350642,no_tremor
238,4754137,1.761,-0.28421246651204457,-0.23653226527546353,0.848729067837731,2.4094716325548404,12.596723888199842,-18.164579600263576,no_tremor
239,4754142,1.766,-0.2784611162731323,-0.23718884298166013,0.849880697966122,2.4806265137204306,12.514804595404192,-17.99290990428141,no_tremor
240,4754146,1.77,-0.2730482639336395,-0.23775372084088744,0.8510304208056362,2.53474969689137,12.396908564869584,-17.78680318290056,no_tremor
241,4754151,1.775,-0.26797067456967183,-0.23823473283653535,0.8521701945444019,2.5733971365935147,12.24750069084832,-17.551964011847865,no_tremor
242,4754156,1.78,-0.26322351879029926,-0.23863947288142773,0.8532926524620841,2.5981110119140105,12.070971948328532,-17.293789692450638,no_tremor
243,4754161,1.785,-0.2588004912913643,-0.23897526164767338,0.8543911257481133,2.6104082824273624,11.871607717648777,-17.0173548357877,no_tremor
244,4754166,1.79,-0.2546939345145459,-0.2392491180931748,0.8554596585344917,2.6117699237684056,11.65355789397547,-16.7273988029753,no_tremor
245,4754171,1.795,-0.25089496625875607,-0.2394677355015563,0.856493015331199,2.603630916884307,11.420809045097613,-16.428315959209673,no_tremor
246,4754176,1.8,-0.2473936101133757,-0.23963746183725382,0.857486681108785,2.587371059040681,11.177158861132694,-16.12414868904291,no_tremor
247,4754180,1.804,-0.24417892761578722,-0.23976428420700074,0.8584368543290909,2.5643066584836482,10.926193114343134,-15.818583110457457,no_tremor
248,4754185,1.809,-0.24123915107482188,-0.23985381721236576,0.8593404332813502,2.535683168111548,10.671265317701161,-15.514947414688463,no_tremor
249,4754190,1.814,-0.23856181604297094,-0.2399112949746734,0.8601949961369647,2.502668806150745,10.415479238769493,-15.216212747363215,no_tremor
250,4754215,1.839,-0.23613389246027924,-0.2399415666128705,0.8609987751914858,2.466349203199019,10.161674392414298,-14.924996534951745,no_tremor
251,4754220,1.844,-0.23394191352986954,-0.23994909495607192,0.8617506258157945,2.4277231049913075,9.912414602647099,-14.64356814958313,no_tremor
252,4754225,1.849,-0.23197210141862332,-0.23993795827514813,0.8624499906884991,2.3876991490252024,9.669979691058373,-14.373856795988896,no_tremor
253,4754230,1.854,-0.2302104889080421,-0.23991185482144045,0.8630968599256833,2.3470937209433926,9.436360317720624,-14.117461497541548,no_tremor
254,4754235,1.859,-0.22864303615304074,-0.2398741099651802,0.8636917277595846,2.306629883649923,9.21325597067659,-13.875663054029248,no_tremor
255,4754240,1.864,-0.22725574174502824,-0.2398276857310611,0.8642355464424967,2.266937359269594,9.00207607201847,-13.649437840926737,no_tremor
256,4754245,1.869,-0.22603474732459095,-0.23977519253318572,0.8647296780651359,2.2285535320467433,8.803944141779917,-13.43947331734762,no_tremor
257,4754249,1.873,-0.224966435051294,-0.23971890291571413,0.8651758449796544,2.191925429505997,8.61970493512767,-13.24618510698499,no_tremor
258,4754254,1.878,-0.22403751731422547,-0.23966076710839795,0.8655760795066798,2.157412629685509,8.449934442945024,-13.069735512805185,no_tremor
259,4754259,1.883,-0.2232351181554703,-0.2396024302072618,0.8659326735839528,2.125291033885327,8.294952619874978,-12.910053321572958,no_tremor
260,4754264,1.888,-0.22254684597665816,-0.23954525078966635,0.8662481289824747,2.0957574368195537,8.154838676722202,-12.766854748056936,no_tremor
261,4754269,1.893,-0.22196085720212086,-0.23949032076975502,0.8665251086759466,2.068934818882839,8.029448745899666,-12.639665360902354,no_tremor
262,4754274,1.898,-0.22146591067689342,-0.2394384862949744,0.866766389902099,2.044878278341834,7.918435699685462,-12.527842822806297,no_tremor
263,4754278,1.902,-0.22105141268008194,-0.2393903694772816,0.866974819401626,2.023581514985057,7.821270871698628,-12.430600267189769,no_tremor
264,4754288,1.912,-0.22070745253108612,-0.23934639074427475,0.8671532712631121,2.00498377142186,7.737267402356022,-12.347030122693262,no_tremor
265,4754293,1.917,-0.2204248288559351,-0.2393067915864456,0.8673046077418466,1.9889771335921995,7.665604899322578,-12.276128185874985,no_tremor
266,4754298,1.922,-0.22019506666288474,-0.23927165746787205,0.8674316433581741,1.975414087376686,7.605355074655351,-12.216817730857294,no_tremor
267,4754308,1.932,-0.22001042545097826,-0.23924094065991447,0.8675371125187122,1.9641152228204508,7.555507992481287,-12.167973431189711,no_tremor
