sample,t_ms,t_s,ax,ay,az,gx,gy,gz,tremor
0,4593940,0.0,-0.008458948614721306,-0.40885148510131414,0.830224252652295,2.424008631882695,-0.8788864033829837,1.2676291903746095,no_tremor
1,4593945,0.005,-0.008397287256727564,-0.4088416179439869,0.8302601422463427,2.470578075433667,-0.8992264912510266,1.5747932256296042,no_tremor
2,4593950,0.01,-0.008327076646205838,-0.40882367248184764,0.8303110602432611,2.519627587128084,-0.923785323465113,1.8904995508421842,no_tremor
3,4593959,0.019,-0.008259240822141084,-0.40879396157778963,0.8303795509445735,2.5706998277710356,-0.9520682122729495,2.2121727754985305,no_tremor
4,4593964,0.024,-0.008211063391499362,-0.40874919002681476,0.8304660721559426,2.623285690899073,-0.9834948977845253,2.5369659721697366,no_tremor
5,4593969,0.029,-0.008202106126417578,-0.4086867109258784,0.8305699760938465,2.676825252770154,-1.017398649551997,2.8617627788597333,no_tremor
6,4593974,0.034,-0.008251430320998667,-0.40860443232147003,0.8306904752284163,2.730709083816854,-1.0530259302071494,3.1831815097864298,no_tremor
7,4593978,0.038,-0.00837653431251662,-0.40850062590772246,0.8308271720319098,2.7842799248163494,-1.0895366406126517,3.497581352361903,no_tremor
8,4593983,0.043,-0.008593316315609239,-0.40837376611983106,0.8309802298924643,2.8368347337448165,-1.126004964608981,3.80107072227207,no_tremor
9,4593988,0.048,-0.00891641940184562,-0.40822243276131776,0.8311503510659577,2.887627111770451,-1.161420831339207,4.089517841429829,no_tremor
10,4593993,0.053,-0.009359609646270615,-0.4080452670054242,0.8313386821801172,2.9358701188538183,-1.1946920140359754,4.358563594876928,no_tremor
11,4594017,0.077,-0.00993605859334239,-0.4078409613830381,0.8315467089086819,2.98073949082404,-1.2246468855666615,4.6036367125493465,no_tremor
12,4594022,0.082,-0.010658510004879775,-0.40760826805381106,0.8317761633950852,3.0213772704294444,-1.2500378521786515,4.819971310364546,no_tremor
13,4594027,0.087,-0.011539349862561693,-0.40734601543622595,0.8320289495006102,3.0568958646527316,-1.2695454865724467,5.002626812022457,no_tremor
14,4594032,0.092,-0.012590605821287444,-0.40705312771124325,0.8323070838339023,3.086382539567102,-1.2817833783716706,5.146510257698808,no_tremor
15,4594037,0.097,-0.013823898517294346,-0.40672864445224555,0.8326126487043468,3.108904362132702,-1.285303713820984,5.246400988287821,no_tremor
16,4594041,0.101,-0.015250361173855089,-0.40637173913393215,0.8329477533701253,3.1235135953187267,-1.278603587919987,5.296977674053163,no_tremor
17,4594046,0.106,-0.01688053879679394,-0.4059817360243246,0.8333145007578973,3.1292535484284354,-1.2601320423043316,5.2928476341304505,no_tremor
18,4594051,0.111,-0.018724274520575727,-0.4055581253060861,0.8337149576521157,3.1251648782850467,-1.2282978116031293,5.228578367892367,no_tremor
19,4594055,0.115,-0.020790588183097366,-0.4051005764069438,0.8341511270188443,3.1102923290195443,-1.1814777501592413,5.098731191187165,no_tremor
20,4594060,0.12,-0.023087550640930293,-0.4046089495541906,0.834624921623431,3.083691888724678,-1.118025900604149,4.897896841217838,no_tremor
21,4594065,0.125,-0.025622156389798784,-0.4040833055623777,0.8351381384525187,3.044438330457629,-1.0362831564975294,4.620732884503261,no_tremor
22,4594070,0.13,-0.02840019650799846,-0.4035239138451306,0.8356924336951818,2.9916330936890514,-0.9345874634630801,4.262002733186404,no_tremor
23,4594075,0.135,-0.031426133643071036,-0.40293125862528895,0.8362892982066704,2.9244124515405825,-0.811284497284225,3.816616045663419,no_tremor
24,4594085,0.145,-0.034702980615233275,-0.402306043308277,0.8369300334946745,2.841955900055752,-0.6647387533565037,3.2796702582653237,no_tremor
25,4594090,0.15,-0.03823218415030373,-0.4016491929836404,0.837615728348532,2.7434946983781607,-0.4933449791477423,2.6464929662446615,no_tremor
26,4594099,0.159,-0.04201351523822684,-0.4009618550286779,0.8383472362874531,2.6283204823768425,-0.2955398786395078,1.912684845141926,no_tremor
27,4594104,0.164,-0.04604496761335016,-0.40024539780440294,0.8391251540419571,2.4957938682752063,-0.06981401380151098,1.0741627777216882,no_tremor
28,4594109,0.169,-0.050322665851529655,-0.39950140745542523,0.8399498013082082,2.3453529569575675,0.18527617767964247,0.1272028270038148,no_tremor
29,4594114,0.174,-0.05484078456564153,-0.3987316828494626,0.8408212020310847,2.1765216439928947,0.4710963366875667,-0.931517327110474,no_tremor
30,4594139,0.199,-0.059591480148581615,-0.39793822871719137,0.8417390674808479,1.9889176352957132,0.788922205521204,-2.1048768906520623,no_tremor
31,4594144,0.204,-0.06456483645840774,-0.3971232470777162,0.8427027813916039,1.782260063963048,1.1399278237694381,-3.3952718181567474,no_tremor
32,4594148,0.208,-0.0697488257641712,-0.3962891270578455,0.8437113874279601,1.5563766005612012,1.5251740080787959,-4.8045764692195,no_tremor
33,4594153,0.213,-0.07512928617570674,-0.39543843323298705,0.8447635792390776,1.3112099476906085,1.945597230496777,-6.334107504208673,no_tremor
34,4594158,0.218,-0.0806899166688561,-0.3945738926321109,0.8458576933457561,1.0468236107194087,2.4019990109493694,-7.984590472457935,no_tremor
35,4594163,0.223,-0.0864122906898601,-0.3936983805578663,0.8469917050850782,0.7634068403199469,2.8950359378697095,-9.756129550470764,no_tremor
36,4594168,0.228,-0.09227588917715591,-0.3928149053755194,0.848163227807599,0.46127864853470085,3.4252104279296467,-11.648180885779817,no_tremor
37,4594173,0.233,-0.09825815367277421,-0.391926592421371,0.8493695154838068,0.14089080810442509,3.9928623317642082,-13.659529991945666,no_tremor
38,4594177,0.237,-0.10433456000657808,-0.39103666717324653,0.8506074688298991,-0.19717024561784804,4.5981614875927885,-15.788273620468207,no_tremor
39,4594182,0.242,-0.11047871282323557,-0.39014843781310754,0.8518736450087488,-0.5521826799516567,5.241101318806135,-18.03180650560089,no_tremor
40,4594187,0.247,-0.1166624609834902,-0.3892652772955978,0.8531642709017324,-0.9232897551697068,5.92149356509836,-20.38681333806261,no_tremor
41,4594211,0.271,-0.12285603360837022,-0.3883906050173941,0.8544752598828615,-1.3095015844894746,6.638964229374901,-22.849266273664004,no_tremor
42,4594216,0.276,-0.12902819624951986,-0.3875278681617794,0.8558022319609465,-1.7096981941763643,7.392950813413665,-25.41442822383116,no_tremor
43,4594221,0.281,-0.13514642636581234,-0.3866805227721344,0.8571405370917382,-2.122633898528083,8.18270090236612,-28.07686210895023,no_tremor
44,4594226,0.286,-0.14117710697358435,-0.3858520145882377,0.8584852814042402,-2.5469429876482783,9.007272139859182,-30.83044618519805,no_tremor
45,4594236,0.296,-0.14708573702299543,-0.385045759661467,0.859831356037029,-2.9811467081005514,9.865533610548175,-33.66839548305518,no_tremor
46,4594262,0.322,-0.15283715674163187,-0.38426512475036306,0.8611734682426169,-3.4236614982998796,10.756168615510658,-36.583289321132874,no_tremor
47,4594267,0.327,-0.15839578588482575,-0.38351340748834045,0.8625061743900585,-3.872808422869396,11.677678789639215,-39.56710478269484,no_tremor
48,4594271,0.331,-0.16372587255425997,-0.38279381631367676,0.8638239144780637,-4.32682373473145,12.628389473472007,-42.611255968366535,no_tremor
49,4594276,0.336,-0.1687917500149409,-0.382109450162436,0.8651210477644456,-4.783870481750597,13.606456220841867,-45.70663877354411,no_tremor
50,4594281,0.341,-0.17355809877643083,-0.3814632779509535,0.8663918891243613,-5.242051066247668,14.609872302970771,-48.843680885937054,no_tremor
51,4594286,0.346,-0.17799021111426086,-0.38085811791613383,0.8676307457685708,-5.699420659314678,15.63647705926565,-52.01239665364009,no_tremor
52,4594291,0.351,-0.18205425518376755,-0.3802966169357756,0.8688319539800512,-6.154001366316586,16.683964941696313,-55.20244643036489,no_tremor
53,4594296,0.356,-0.18571753590737772,-0.3797812300119507,0.8699899155577893,-6.603797034694866,17.74989510009084,-58.40319995772321,no_tremor
54,4594301,0.361,-0.18894874988548305,-0.3793142001621225,0.8710991336859863,-7.046808589742186,18.83170135911592,-61.603803293708495,no_tremor
55,4594310,0.37,-0.19171823168174204,-0.3788975390196435,0.8721542479719284,-7.48104977783582,19.926702445032657,-64.79324874176672,no_tremor
56,4594320,0.38,-0.1939981889595614,-0.3785330084927634,0.8731500684144201,-7.9045631893822526,21.03211233288625,-67.96044717626567,no_tremor
57,4594325,0.385,-0.19576292409328583,-0.37822210386503197,0.8740816080763025,-8.315436425404823,22.14505060395966,-71.09430209912706,no_tremor
58,4594334,0.394,-0.1969890400429949,-0.37796603873602136,0.8749441142399753,-8.711818262297855,23.262552730341095,-74.1837847018275,no_tremor
59,4594349,0.409,-0.19765562846490695,-0.3777657321965769,0.8757330978262633,-9.091934658889329,24.381580238205174,-77.21800915027775,no_tremor
60,4594354,0.414,-0.19774443822945525,-0.3776217986064878,0.8764443608578946,-9.454104439213541,25.499030740915842,-80.18630726066607,no_tremor
61,4594359,0.419,-0.19724002273473093,-0.3775345402963537,0.8770740217537408,-9.796754474363551,26.61174787198994,-83.0783016970703,no_tremor
62,4594385,0.445,-0.19612986463239962,-0.37750394345308697,0.8776185382531246,-10.118434178227147,27.716531181070362,-85.88397680212859,no_tremor
63,4594390,0.45,-0.19440447682389614,-0.37752967737397675,0.8780747277927125,-10.417829124716619,28.810146080885573,-88.59374617294375,no_tremor
64,4594395,0.455,-0.19205747883171206,-0.37761109719130875,0.8784397851880587,-10.693773587951743,29.889333951352153,-91.19851611478121,no_tremor
65,4594404,0.464,-0.18908564789526264,-0.37774725008165577,0.8787112974982945,-10.945261802109618,30.950822522787032,-93.68974414417644,no_tremor
66,4594409,0.469,-0.18548894437295763,-0.3779368848845847,0.878887255964695,-11.17145773535003,31.991336676529254,-96.05949177055668,no_tremor
67,4594414,0.474,-0.1812705112442072,-0.3781784649686604,0.8789660649051168,-11.371703173604782,33.00760981616913,-98.30047085907087,no_tremor
68,4594419,0.479,-0.17643664769484044,-0.3784701841030771,0.8789465474168222,-11.545523916593707,33.99639596970223,-100.40608296301265,no_tremor
69,4594424,0.484,-0.1709967569396521,-0.37880998502624574,0.8788279476962322,-11.692633901972401,34.95448277557727,-102.3704511088074,no_tremor
70,4594429,0.489,-0.1649632685936722,-0.37919558035279594,0.8786099297354751,-11.812937095261603,35.87870548061227,-104.1884436180871,no_tremor
71,4594434,0.494,-0.1583515360594416,-0.3796244754305283,0.8782925721134583,-11.906527013128716,36.76596203591594,-105.85568965916588,no_tremor
72,4594439,0.499,-0.15117970956244733,-0.3800939927493013,0.8778763585747605,-11.973683784627363,37.61322932051659,-107.36858633513756,no_tremor
73,4594444,0.504,-0.1434685856519393,-0.380601297512643,0.8773621640930358,-12.014868697544934,38.41758045286257,-108.72429723937518,no_tremor
74,4594449,0.509,-0.13524143419940426,-0.38114342400600776,0.87675123615523,-12.030716223143004,39.17620306918788,-109.92074254155135,no_tremor
75,4594453,0.513,-0.12652380418016348,-0.3817173024273432,0.8760451710849663,-12.022023560673926,39.88641835886432,-110.9565808062708,no_tremor
76,4594463,0.523,-0.11734330982102138,-0.3823197858789684,0.8752458853511783,-11.989737792589272,40.54570055755274,-111.8311828884144,no_tremor
77,4594473,0.533,-0.10772939904180812,-0.3829476772467765,0.8743555819800951,-11.934940792580324,41.15169651808456,-112.5445983905459,no_tremor
78,4594478,0.538,-0.09771310650904431,-0.3835977557056359,0.8733767123971252,-11.858832081088726,41.702244914935186,-113.0975153045766,no_tremor
79,4594483,0.543,-0.08732679404591442,-0.384266802582321,0.8723119342546354,-11.762709874815982,42.19539459738706,-113.49121358815653,no_tremor
80,4594515,0.575,-0.07660388158490476,-0.38495162627663243,0.8711640660310793,-11.64795062564525,42.62942159187118,-113.7275135407516,no_tremor
81,4594520,0.58,-0.06557857227624024,-0.3856490858912222,0.8699360393942782,-11.515987388447734,43.002844264175685,-113.80871993898683,no_tremor
82,4594525,0.585,-0.05428557572601773,-0.3863561131644828,0.8686308504879384,-11.368287394698743,43.31443618464636,-113.73756295881326,no_tremor
83,4594530,0.59,-0.042759833565499915,-0.38706973226199637,0.8672515114128193,-11.20632923715725,43.563236293090675,-113.51713694745523,no_tremor
84,4594539,0.599,-0.03103625159138423,-0.38778707698372755,0.865801003228245,-11.031580087935074,43.748556033087375,-113.15083810985516,no_tremor
85,4594544,0.604,-0.019149442554604455,-0.38850540499466935,0.8642822318011276,-10.845473377713713,43.86998321237967,-112.64230214818629,no_tremor
86,4594554,0.614,-0.007133483347422014,-0.38922210877528757,0.8626979877882363,-10.64938735821138,43.92738243964528,-111.9953428469429,no_tremor
87,4594559,0.619,0.004978310101349999,-0.38993472309613825,0.8610509119608846,-10.44462495343836,43.92089208253348,-111.21389253479198,no_tremor
88,4594564,0.624,0.017153587418233217,-0.390640928933336,0.8593434669724757,-10.23239527807072,43.85091778393277,-110.30194527894088,no_tremor
89,4594569,0.629,0.02936114559590377,-0.3913385538488284,0.8575779165288628,-10.013797164758502,43.71812265998202,-109.26350357922257,no_tremor
90,4594573,0.633,0.041571086299667964,-0.3920255689559882,0.8557563127506105,-9.789804998542955,43.52341438162544,-108.10252923001642,no_tremor
91,4594578,0.638,0.053754947483081336,-0.39270008267385165,0.8538804923192658,-9.561257107834452,43.26792941030839,-106.82289891223424,no_tremor
92,4594583,0.643,0.06588580864237181,-0.39336033154195055,0.851952081783665,-9.328846908871673,42.95301471809372,-105.42836496882485,no_tremor
93,4594588,0.648,0.07793836952490067,-0.3940046684234765,0.8499725121751175,-9.09311694486597,42.58020737272394,-103.92252170930736,no_tremor
94,4594592,0.652,0.08988900255373235,-0.3946315484695728,0.8479430428493737,-8.854455902793593,42.151212405639406,-102.3087774850555,no_tremor
95,4594602,0.662,0.10171577963215248,-0.3952395132540607,0.8458647942446532,-8.613098631206922,41.66787940065769,-100.59033267977644,no_tremor
96,4594607,0.667,0.11339847434425192,-0.3958271735177578,0.8437387890235667,-8.369129123048856,41.13217824031075,-98.77016366963838,no_tremor
97,4594633,0.693,0.12491854086833343,-0.3963931909861568,0.8415660008571233,-8.122486369973497,40.546174427406854,-96.85101272392097,no_tremor
98,4594638,0.698,0.1362590711699967,-0.3969362597440934,0.8393474099165081,-7.872972940881059,39.91200436561702,-94.83538373807453,no_tremor
99,4594647,0.707,0.14740473224705208,-0.3974550876650424,0.837084063969925,-7.620266088903668,39.231850940693015,-92.72554361524988,no_tremor
100,4594652,0.712,0.1583416853688665,-0.39794837839777786,0.8347771438452559,-7.363931149015027,38.507919700285484,-90.52352903955858,no_tremor
101,4594657,0.717,0.16905748939853926,-0.3984148144053244,0.8324280319201155,-7.103436953018892,37.74241589083197,-88.23115831535064,no_tremor
102,4594661,0.721,0.17954099041276486,-0.3988530415272823,0.8300383822395396,-6.838172959509453,36.937522576680344,-85.85004788268849,no_tremor
103,4594671,0.731,0.18978219994045095,-0.39926165549580517,0.8276101908338791,-6.567467773282403,36.09538003949572,-83.38163306111068,no_tremor
104,4594676,0.736,0.19977216422268393,-0.3996391907790849,0.8251458648096798,-6.290608712242759,35.218066635142016,-80.82719252305148,no_tremor
105,4594680,0.74,0.20950282694884537,-0.3999841120572931,0.8226482888097176,-6.006862071173541,34.307581270078295,-78.1878759561209,no_tremor
106,4594686,0.746,0.21896688794332345,-0.40029480855892174,0.8201208874820115,-5.7154937311375935,33.365827647194045,-75.46473434093387,no_tremor
107,4594690,0.75,0.22815766026226153,-0.4005695914053469,0.8175676826599858,-5.415789769850565,32.394600418032,-72.65875224960827,no_tremor
108,4594695,0.755,0.23706892810855426,-0.40080669403318425,0.814993344035928,-5.107076740667828,31.3955733617319,-69.77088156071983,no_tremor
109,4594700,0.76,0.24569480788464576,-0.4010042756919573,0.8124032322062998,-4.788741305090704,30.370289690310017,-66.80207598995615,no_tremor
110,4594705,0.765,0.25402961457624085,-0.40116042795192414,0.8098034330787701,-4.460248925841437,29.320154556391156,-63.75332585151702,no_tremor
111,4594710,0.77,0.2620677354967205,-0.40127318410511525,0.8072007827552261,-4.12116135431334,28.24642981498095,-60.62569249234238,no_tremor
112,4594714,0.774,0.26980351322426266,-0.40134053130152414,0.8046028821405655,-3.771152676458015,27.150231066367773,-57.420341878079824,no_tremor
113,4594719,0.779,0.27723113933542,-0.40136042523034865,0.8020181006719969,-3.4100237131150712,26.03252698328333,-54.1385768550706,no_tremor
114,4594724,0.784,0.2843445602856719,-0.4013308071306582,0.7994555687161954,-3.0377146024844626,24.89414090314448,-50.78186766586546,no_tremor
115,4594729,0.789,0.29113739651571174,-0.4012496228937393,0.7969251583403045,-2.6543154224677754,23.735754647818844,-47.35188035668509,no_tremor
116,4594755,0.815,0.29760287557906917,-0.40111484399745967,0.7944374523253436,-2.2600747385531474,22.557914521235283,-43.85050278341061,no_tremor
117,4594759,0.819,0.303733779800694,-0.4009244899888184,0.7920037014536463,-1.8554059893000276,21.361039429649956,-40.279867995723464,no_tremor
118,4594764,0.824,0.3095224086996061,-0.4006766522040781,0.7896357702596057,-1.4408916469825626,20.145431067385786,-36.64237485022566,no_tremor
119,4594769,0.829,0.3149605561572223,-0.40036951838942514,0.7873460715773704,-1.0172851157812315,18.911286106593124,-32.9407057633525,no_tremor
120,4594774,0.834,0.3200395020990726,-0.4000013978644349,0.7851474903439144,-0.5855103539452707,17.658710317758224,-29.17784155835446,no_tremor
121,4594779,0.839,0.32475001828361094,-0.39957074686139665,0.7830532972202946,-0.14665922969926196,16.387734526345984,-25.357073390382176,no_tremor
122,4594783,0.843,0.3290823876501146,-0.39907619367957525,0.7810770526827072,0.2980133562789066,15.098332280926625,-21.482011756291357,no_tremor
123,4594788,0.848,0.33302643655769526,-0.39851656331620905,0.7792325023151275,0.747096526155439,13.790439070850338,-17.55659261593341,no_tremor
124,4594793,0.853,0.33657157914138225,-0.39789090127488885,0.777533464112878,1.1990325803064432,12.46397288854024,-13.58508067212802,no_tremor
125,4594798,0.858,0.3397068729154319,-0.39719849630458337,0.7759937086854701,1.6521281544590527,11.118855885295424,-9.572069879363761,no_tremor
126,4594803,0.863,0.34242108466834337,-0.39643890188500286,0.7746268333296489,2.104567261331846,9.75503682377066,-5.522481277803984,no_tremor
127,4594813,0.873,0.34470276562087276,-0.39561195634089796,0.773446131030381,2.5544260814959086,8.372513988984375,-1.4415582793175963,no_tremor
128,4594822,0.882,0.34654033476110047,-0.39471780153311986,0.772464455537922,2.999689350307527,6.971358186821543,2.6651404352744605,no_tremor
129,4594827,0.887,0.3479221692326485,-0.39375690013131653,0.7716940837613104,3.438268169719221,5.551735438960215,6.791750216747708,no_tremor
130,4594836,0.896,0.34883670063592465,-0.39273005151568274,0.7711465768097612,3.868019055911809,4.1139289799737835,10.93211172872852,no_tremor
131,4594842,0.902,0.34927251610848026,-0.39163840637826197,0.7708326411000291,4.286764016345401,2.658360177620569,15.079783977334362,no_tremor
132,4594846,0.906,0.34921846307724386,-0.39048348009587713,0.7707619910268466,4.692311432980105,1.1856080293311564,19.228058854972492,no_tremor
133,4594851,0.911,0.34866375661806687,-0.38926716492824637,0.7709432147629982,5.0824775122434405,-0.3035730670373143,23.369976974278764,no_tremor
134,4594876,0.936,0.3475980884115371,-0.38799174105999307,0.7713836448143194,5.455108047640898,-1.808237516341287,27.498344586824302,no_tremor
135,4594881,0.941,0.34601173634460886,-0.3866598864585789,0.7720892350016028,5.808100229065867,-3.3272348941230034,31.60575140502655,no_tremor
136,4594885,0.945,0.34389567387388326,-0.38527468546578414,0.7730644455732225,6.139424225686237,-4.859198616498419,35.684589175644845,no_tremor
137,4594890,0.95,0.3412416783388527,-0.38383963598161713,0.7743121381640371,6.447144268667613,-6.402537005577445,39.72707089423347,no_tremor
138,4594895,0.955,0.338042437492929,-0.38235865503953614,0.7758334823016664,6.729438966595239,-7.955426814439335,43.725250603787046,no_tremor
139,4594900,0.96,0.33429165360625446,-0.3808360825139933,0.7776278751159985,6.984620598840268,-9.515809257695555,47.67104378129652,no_tremor
140,4594905,0.965,0.3299841445851049,-0.3792766826492674,0.7796928758296182,7.211153147813563,-11.081388581573874,51.556248373279395,no_tremor
141,4594910,0.97,0.3251159416448979,-0.37768564305593805,0.7820241564949177,7.407668848540393,-12.649633196125023,55.372566589350406,no_tremor
142,4594914,0.974,0.3196843831637787,-0.37606857079123757,0.7846154702972323,7.572983053479581,-14.21777937854022,59.11162759964759,no_tremor
143,4594919,0.979,0.3136882044280933,-0.3744314851242132,0.7874586385615625,7.706107232936124,-15.78283753868153,62.76501130667293,no_tremor
144,4594923,0.983,0.3071276230572067,-0.3727808065876801,0.7905435573825271,7.80625995715982,-17.341601013798233,66.32427337387868,no_tremor
145,4594954,1.014,0.30000441996145627,-0.37112334193702967,0.7938582245428115,7.872875735176477,-18.890657327438593,69.78097169164403,no_tremor
146,4594969,1.029,0.2923220157416321,-0.36946626467079374,0.7973887870958173,7.905611617764731,-20.42640180834934,73.12669444757283,no_tremor
147,4594974,1.034,0.28408554247621026,-0.36781709081786007,0.8011196096688742,7.904351508123015,-21.94505342357526,76.35308994723789,no_tremor
148,4595000,1.06,0.27530191085446715,-0.3661836497584966,0.805033363206059,7.869208163143477,-23.44267264469181,79.45189831100832,no_tremor
149,4595005,1.065,0.2659798725904172,-0.36457404991742864,0.8091111335313036,7.800522908832993,-24.915181145080812,82.41498515659015,no_tremor
150,4595010,1.07,0.25613007799029175,-0.362996639244346,0.813332548789663,7.6988631320821925,-26.358383122680817,85.23437736123216,no_tremor
151,4595014,1.074,0.24576512844638826,-0.36145996047905155,0.8176759245280718,7.5650176442330554,-27.767988055439375,87.90230097239737,no_tremor
152,4595040,1.1,0.23489962349666133,-0.35997270128531705,0.8221184249092336,7.399990037677263,-29.1396347211833,90.41122129322763,no_tremor
153,4595044,1.104,0.22355020192812136,-0.35854363943119044,0.8266362383100497,7.20499017529229,-30.468916342356284,92.75388510723634,no_tremor
154,4595049,1.109,0.2117355762189696,-0.3571815832964263,0.831204765335943,6.981423965452856,-31.751406740436767,94.92336492711694,no_tremor
155,4595054,1.114,0.19947655941448075,-0.35589530810145176,0.8357988170866261,6.730881583903194,-32.98268739779179,96.91310505837541,no_tremor
156,4595079,1.139,0.18679608332227554,-0.35469348837612347,0.8403928213432452,6.455124308709879,-34.15837532250383,98.71696916371134,no_tremor
157,4595084,1.144,0.17371920670920973,-0.3535846273164197,0.8449610342166722,6.156070136892598,-35.274151594575386,100.32928890504668,no_tremor
158,4595089,1.149,0.1602731120095019,-0.35257698380499103,0.8494777547070366,5.835778352538357,-36.32579044395767,101.74491313638418,no_tremor
159,4595094,1.154,0.1464870889411784,-0.35167849798577494,0.8539175395831643,5.496433216902829,-37.30918867844439,102.95925703260217,no_tremor
160,4595098,1.158,0.13239250340090947,-0.3508967163729691,0.8582554160048681,5.140326950399277,-38.22039524846114,103.96835047238586,no_tremor
161,4595125,1.185,0.11802275008104914,-0.35023871753511665,0.8624670893809389,4.769842173131329,-39.05564070936319,104.76888494587764,no_tremor
162,4595130,1.19,0.10341318742958708,-0.3497110394264343,0.8665291440724352,4.387433964237899,-39.81136632163902,105.35825822467527,no_tremor
163,4595134,1.194,0.08860105384335484,-0.3493196094435234,0.8704192347027274,3.995611691076178,-40.48425251876685,105.73461601236025,no_tremor
164,4595170,1.23,0.07362536432547372,-0.3490696782704639,0.87411626601318,3.5969207475590785,-41.07124647750277,105.8968897903213,no_tremor
165,4595176,1.236,0.05852678722028111,-0.34896575854251355,0.8776005594001315,3.1939243276572995,-41.56958855063668,105.84483008844346,no_tremor
166,4595181,1.241,0.04334750102864598,-0.34901156930973354,0.8808540044819879,2.789185347143152,-41.976837364722435,105.57903444394749,no_tremor
167,4595186,1.246,0.0281310316678204,-0.3492099872153788,0.8838601942749442,2.38524861629651,-42.290893433173316,105.10096936552092,no_tremor
168,4595190,1.25,0.012922070846055771,-0.3495630052171237,0.8866045428025111,1.984623359417173,-42.510021172995444,104.41298569505071,no_tremor
169,4595195,1.255,-0.0022337235310627597,-0.3500716995714802,0.8890743842241715,1.5897661729667025,-42.63286922959985,103.51832685368795,no_tremor
170,4595200,1.26,-0.017289943800818764,-0.35073620567588965,0.8912590528337885,1.203064511756742,-42.65848900474796,102.4211295674061,no_tremor
171,4595205,1.265,-0.03219966452123045,-0.351555703223634,0.8931499435388729,0.8268207906301208,-42.58635125101944,101.12641678442209,no_tremor
172,4595210,1.27,-0.04691568848907628,-0.3525284109786704,0.8947405526791018,0.46323718674565395,-42.41636054950582,99.64008261950184,no_tremor
173,4595215,1.275,-0.06139080509858907,-0.35365159132464935,0.8960264992708743,0.11440122483789208,-42.14886743435022,97.9688692865217,no_tremor
174,4595246,1.306,-0.07557805912026985,-0.3549215645877159,0.8970055269711636,-0.21772777456943107,-41.784677877258474,96.12033610941087,no_tremor
175,4595251,1.311,-0.08943102774154242,-0.3563337329787097,0.8976774872382702,-0.531331305164239,-41.32505980820662,94.10282083019236,no_tremor
176,4595256,1.316,-0.10290410347216908,-0.3578826138501798,0.8980443043327632,-0.8247432639094741,-40.77174634034164,91.9253935559892,no_tremor
177,4595270,1.33,-0.11595278030547895,-0.3595618818215851,0.8981099229558207,-1.096460438980701,-40.12693540119641,89.59780379821906,no_tremor
178,4595290,1.35,-0.12853394036765453,-0.3613644191971607,0.8978802394712917,-1.3451518159165854,-39.39328554715971,87.13042115427098,no_tremor
179,4595299,1.359,-0.14060613818953926,-0.3632823739900278,0.8973630178030652,-1.5696666226148523,-38.573907830003165,84.53417026807166,no_tremor
180,4595304,1.364,-0.15212987968875102,-0.3653072247782357,0.8965677912317015,-1.7690410377434882,-37.672353660667646,81.82046078515184,no_tremor
181,4595319,1.379,-0.16306789294060298,-0.3674298515580056,0.8955057514177638,-1.9425034941483186,-36.69259865699237,79.00111308902311,no_tremor
182,4595324,1.384,-0.17338538783757518,-0.3696406117271007,0.8941896260409958,-2.0894785187028684,-35.6390224732343,76.08828066318917,no_tremor
183,4595328,1.388,-0.18305030179044723,-0.37192942032124376,0.892633546464176,-2.209589061846498,-34.51638461326676,73.09436996153059,no_tremor
184,4595334,1.394,-0.19203352871714696,-0.37428583362859896,0.8908529068212382,-2.302657282441751,-33.32979625304946,70.0319586876715,no_tremor
185,4595338,1.398,-0.20030912870587694,-0.3766991353112149,0.8888642159100151,-2.3687037652422593,-32.08468815728083,66.9137133844227,no_tremor
186,4595343,1.403,-0.20785451592923304,-0.3791584241607715,0.8866849432572314,-2.407945158496239,-30.786774870426395,63.752307223173354,no_tremor
187,4595370,1.43,-0.21465062261991932,-0.38165270260565937,0.8843333607274608,-2.420790228407336,-29.442015484060857,60.56033886466049,no_tremor
188,4595375,1.435,-0.22068203718632337,-0.38417096506818327,0.8818283810716703,-2.4078343368796937,-28.056571417068565,57.35025323696709,no_tremor
189,4595380,1.44,-0.22593711483865206,-0.38670228525058964,0.8791893948489929,-2.3698523611573665,-26.636761773643357,54.13426503873058,no_tremor
190,4595385,1.445,-0.23040805940707074,-0.389235901417551,0.8764361071932149,-2.3077900896658154,-25.189016942350822,50.92428571850546,no_tremor
191,4595390,1.45,-0.23409097535649828,-0.3917612987517041,0.8735883759161133,-2.2227541468196677,-23.719831150342234,47.7318546034272,no_tremor
192,4595394,1.454,-0.23698588933133125,-0.3942682878928721,0.8706660524316823,-2.116000518918759,-22.235714689082894,44.56807475861852,no_tremor
193,4595399,1.459,-0.23909674088993818,-0.39674707882842847,0.867688826944452,-1.9889217720805838,-20.74314649252074,41.443554063355336,no_tremor
194,4595404,1.464,-0.24043134240783312,-0.39918834937588366,0.8646760792708051,-1.843033071104176,-19.24852768780432,38.36835189785069,no_tremor
195,4595409,1.469,-0.24100130843795517,-0.40158330758322364,0.8616467365553747,-1.6799571255011392,-17.7581366623707,35.351931748325775,no_tremor
196,4595414,1.474,-0.240821955117509,-0.40392374746333454,0.8586191390123973,-1.5014082059799108,-16.27808610763502,32.40311995836476,no_tremor
197,4595423,1.483,-0.23991217050648841,-0.40620209757313436,0.8556109146790404,-1.3091753915062387,-14.814282415322433,29.53007078102794,no_tremor
198,4595433,1.493,-0.23829425703723522,-0.40841146204434076,0.8526388640297201,-1.1051052233063645,-13.372387723408675,26.74023781781949,no_tremor
199,4595438,1.498,-0.2359937475501311,-0.41054565377087304,0.8497188551762654,-0.8910839568422907,-11.95778484059446,24.040351865789766,no_tremor
200,4595443,1.503,-0.23303919668774775,-0.4125992195583678,0.846865730270434,-0.6690196144058146,-10.575545227201292,21.4364051308007,no_tremor
201,4595448,1.508,-0.22946194971442005,-0.4145674571449402,0.8440932236303907,-0.44082404819755383,-9.230400180020576,18.933641701833075,no_tremor
202,4595458,1.518,-0.22529589111281664,-0.4164464241088485,0.8414138920266883,-0.2083952261265881,-7.926715357934973,16.536554118571722,no_tremor
203,4595462,1.522,-0.2205771755738977,-0.41823293878615975,0.8388390574802166,0.026400049398898277,-6.668468788311225,14.248885804602438,no_tremor
204,4595467,1.527,-0.21534394422980632,-0.419924573426691,0.8363787628384844,0.26174278513443056,-5.45923250298109,12.07363908382726,no_tremor
205,4595492,1.552,-0.2096360291678517,-0.421519639916072,0.8340417403017564,0.49587760795578467,-4.302157958597622,10.013088449600293,no_tremor
206,4595497,1.557,-0.20349464939641104,-0.4230171684830566,0.8318353929624738,0.7271275610011623,-3.1999653913367814,8.068798715426539,no_tremor
207,4595501,1.561,-0.19696210150145232,-0.42441687989276733,0.8297657892974613,0.9539077192262411,-2.154937232638126,6.2416476436569015,no_tremor
208,4595506,1.566,-0.1900814482288971,-0.42571915169813623,0.8278376704125338,1.1747374778601714,-1.1689156652668602,4.531852624984182,no_tremor
209,4595511,1.571,-0.18289620815205762,-0.42692497918382843,0.8260544696860569,1.3882513891740984,-0.2433043282781433,2.939000966474369,no_tremor
210,4595516,1.576,-0.17545004944372322,-0.42803593168976795,0.824418344297646,1.5932084468504792,0.6209259054535504,1.4620833383474419,no_tremor
211,4595521,1.581,-0.16778649058646378,-0.42905410504499825,0.8229302179683932,1.7884997417842439,1.423227242208047,0.09952992840633053,no_tremor
212,4595526,1.586,-0.15994861064102348,-0.4299820708766711,0.8215898340877575,1.973154437116036,2.16346161306264,-1.1507511430489963,no_tremor
213,4595530,1.59,-0.15197877146581687,-0.43082282358295393,0.8203958182663631,2.146344033128329,2.841883961146812,-2.2913335862439688,no_tremor
214,4595535,1.595,-0.1439183540499439,-0.43157972577188736,0.8193457492390022,2.3073849144841914,3.459122532163616,-3.3252313085379894,no_tremor
215,4595540,1.6,-0.13580751089304627,-0.4322564529697857,0.8184362369524923,2.4557391936126987,4.016156567681659,-4.255855794800741,no_tremor
216,4595545,1.605,-0.1276849361398417,-0.43285693839167616,0.8176630066114134,2.591013885131878,4.514291823010955,-5.086972894518269,no_tremor
217,4595550,1.61,-0.11958765495549951,-0.43338531854173695,0.8170209874218239,2.712958466942457,4.955134337921812,-5.82265938952573,no_tremor
218,4595560,1.62,-0.11155083340956334,-0.43384588037326016,0.8165044047674701,2.821460903659933,5.3405628796410545,-6.467259694729766,no_tremor
219,4595565,1.625,-0.10360760991949382,-0.434243010685067,0.8161068745720073,2.916542227073338,5.672700455377882,-7.025343019819589,no_tremor
220,4595570,1.63,-0.09578894908692076,-0.43458114836431777,0.815821498640829,2.998349786104548,5.953885259472007,-7.501661292944943,no_tremor
221,4595574,1.634,-0.08812351853520041,-0.434864740004225,0.8156409598333653,3.067149294936978,6.186641382641482,-7.901108118257077,no_tremor
222,4595579,1.639,-0.08063758912076842,-0.43509819932990246,0.8155576159872049,3.1233158221487143,6.373649572365782,-8.228679008971055,no_tremor
223,4595584,1.644,-0.07335495864111168,-0.43528587075828695,0.8155635915954462,3.167323875502528,6.517718297705669,-8.489433107347674,no_tremor
224,4595589,1.649,-0.06629689890178796,-0.4354319973018368,0.8156508663251846,3.199736746239624,6.621755340968622,-8.688456573800323,no_tremor
225,4595614,1.674,-0.05948212574092268,-0.4355406929046038,0.8158113595556933,3.2211952829735764,6.688740113945046,-8.830827799819145,no_tremor
226,4595618,1.678,-0.05292679135214338,-0.4356159191784706,0.8160370102082574,3.232406268400474,6.721696878795335,-8.921584573658304,no_tremor
227,4595623,1.683,-0.046644498008148405,-0.435661466394026,0.8163198512353464,3.2341305720551627,6.723669042323308,-8.965693303887488,no_tremor
228,4595628,1.688,-0.04064633207956879,-0.4356809384837531,0.816652078235243,3.227171249313462,6.6976946839540625,-8.968020384537937,no_tremor
229,4595633,1.693,-0.03494091707687565,-0.4356777417427886,0.8170261117597886,3.2123617508804347,6.646783467157973,-8.933305767245315,no_tremor
230,4595638,1.698,-0.029534484319682183,-0.43565507686747806,0.8174346529872651,3.1905543984198106,6.573895067668558,-8.866138790477217,no_tremor
231,4595643,1.703,-0.024430959754096326,-0.43561593395195614,0.8178707325382635,3.1626092712101164,6.481919229948184,-8.770936303005865,no_tremor
232,4595647,1.707,-0.01963206538724518,-0.43556309006299126,0.8183277523177107,3.129383636274074,6.373657539032894,-8.651923107505365,no_tremor
233,4595652,1.712,-0.015137433780369448,-0.43549910902812194,0.8187995203686477,3.0917220408018937,6.251806970350194,-8.513114740192226,no_tremor
234,4595657,1.717,-0.010944734030297847,-0.43542634309712713,0.8192802788203218,3.05044717094487,6.1189452554632195,-8.358302593879657,no_tremor
235,4595662,1.722,-0.007049807667121971,-0.43534693616827685,0.8197647251022667,3.0063515647836656,5.977518076933218,-8.191041384449683,no_tremor
236,4595667,1.727,-0.003446812898441689,-0.4352628283054863,0.8202480266753802,2.9601902493159344,5.82982808195032,-8.014638953532085,no_tremor
237,4595677,1.737,-0.00012837563461873345,-0.435175761308107,0.8207258295993812,2.9126743523820915,5.678025683933702,-7.832148391985687,no_tremor
238,4595681,1.741,0.002914254265516411,-0.4350872851300255,0.8211942613128741,2.8644657217982545,5.524101605092956,-7.646362459337594,no_tremor
239,4595686,1.746,0.005691043081544417,-0.43499876497801415,0.82164992804745,2.816172566527996,5.369881101453907,-7.459810264091981,no_tremor
240,4595691,1.751,0.008213011191085466,-0.4349113889503168,0.8220899073309662,2.768346118726964,5.217019805539804,-7.274756159079892,no_tremor
241,4595696,1.756,0.010492070420806495,-0.4348261761050348,0.8225117360578926,2.7214783005688568,5.067001120950972,-7.093200794724627,no_tremor
242,4595701,1.761,0.012540862274168674,-0.4347439848740089,0.8229133946173398,2.6760003653914093,4.921135106690451,-6.9168842611875005,no_tremor
243,4595706,1.766,0.014372598473895628,-0.43466552176168327,0.823293287573388,2.6322824688273956,4.7805587955927615,-6.747291237966407,no_tremor
244,4595711,1.771,0.016000905194399152,-0.43459135028995505,0.8236502213889894,2.5906341128382255,4.646237899049199,-6.585658056915597,no_tremor
245,4595736,1.796,0.017439672281449103,-0.4345219001691335,0.8239833796752614,2.551305394768452,4.518969858181016,-6.432981572226508,no_tremor
246,4595740,1.8,0.0187029086651458,-0.43445747669135043,0.8242922964333852,2.514488985085627,4.399388208163327,-6.290029718928292,no_tremor
247,4595745,1.805,0.01980460507188485,-0.43439827035474515,0.8245768277371288,2.4803227513886825,4.287968224995048,-6.157353629805058,no_tremor
248,4595760,1.82,0.02075860503748638,-0.43434436673237115,0.8248371222805881,2.4488929425662613,4.18503381976721,-6.035301169076714,no_tremor
249,4595769,1.829,0.021578485122821733,-0.4342957565969947,0.8250735911885093,2.4202378455430513,4.090765633325153,-5.924031730024532,no_tremor
250,4595779,1.839,0.022277445138203945,-0.43425234630112153,0.8252868774565649,2.394351827459574,4.005210266176496,-5.823532133455557,no_tremor
251,4595784,1.844,0.022868209092817535,-0.4342139683918121,0.8254778253577933,2.371189678042079,3.9282905584029466,-5.733633454484458,no_tremor
252,4595789,1.849,0.023362937496861906,-0.43418039241453127,0.8256474501207847,2.3506711703280123,3.859816815267903,-5.654028596097698,no_tremor
253,4595794,1.854,0.023773151551810753,-0.43415133583232035,0.8257969081562405,2.332685762830552,3.799498857243139,-5.584290419075545,no_tremor
254,4595798,1.858,0.024109669663546312,-0.43412647495875595,0.825927468081683,2.3170973721645867,3.7469587582093955,-5.5238902293087415,no_tremor
255,4595803,1.863,0.024382556601027356,-0.43410545577769766,0.8260404827693615,2.3037491511331574,3.7017441227432006,-5.4722164159699185,no_tremor
256,4595808,1.868,0.02460108549835471,-0.4340879045013814,0.8261373626197538,2.2924682124997346,3.6633417431327504,-5.428593028070568,no_tremor
257,4595813,1.873,0.024773712760693754,-0.4340734377022463,0.8262195502425744,2.2830702431025505,3.6311914688222164,-5.392298072872242,no_tremor
258,4595818,1.878,0.024908065785374,-0.43406167184400046,0.8262884967090033,2.2753639569714887,3.604700114018202,-5.362581316982464,no_tremor
