sample,t_ms,t_s,ax,ay,az,gx,gy,gz,tremor
0,4886730,0.0,-0.10049226528319853,-0.2752596229855486,0.890173259018789,-0.3406836666619831,-9.789784304555086,3.438759230190799,tremor
1,4886755,0.025,-0.10111986113892785,-0.27540123354975793,0.8897152631262809,-0.2893644282436341,-9.43893239974971,4.057607201110622,tremor
2,4886759,0.029,-0.10207638471125824,-0.27558183321157037,0.8890979864497729,-0.2421831318031387,-9.144619722918682,4.628620024127846,tremor
3,4886764,0.034,-0.10344268548871541,-0.27579454375574214,0.8883184035996403,-0.19995397180534358,-8.901521661710989,5.147652864065407,tremor
4,4886769,0.039,-0.1052544484427974,-0.2760219830335915,0.8874058888740727,-0.1635105569667665,-8.703430179590216,5.610708356935263,tremor
5,4886774,0.044,-0.10751156334217463,-0.276242943520235,0.8864051290495168,-0.13369998096763602,-8.543289447675926,6.01396328177938,tremor
6,4886779,0.049,-0.11019476456685087,-0.2764373734653989,0.8853615573654169,-0.11137632687930114,-8.413241925042472,6.353795247141925,tremor
7,4886783,0.053,-0.11327809851825488,-0.27658849803426544,0.8843141865403067,-0.09739361631682891,-8.304684901161348,6.6268092293812,tremor
8,4886788,0.058,-0.11673549015490987,-0.27668308994495666,0.8832938318666392,-0.09259822057069954,-8.208337459701237,6.8298637627811605,tremor
9,4886798,0.068,-0.12054310278202968,-0.27671096114253924,0.8823239275365137,-0.09782075877944423,-8.114317770440486,6.960096542144234,tremor
10,4886803,0.073,-0.1246794854701,-0.2766642993480164,0.8814221177420642,-0.11386751680106308,-8.012230565578044,7.014949157399022,tremor
11,4886808,0.078,-0.12912484001534455,-0.27653710386524133,0.8806017825276243,-0.1415114290646645,-7.891264606974221,6.992190637468694,tremor
12,4886813,0.083,-0.13386009710510685,-0.27632478005084904,0.8798732299645986,-0.181482673923232,-7.7402998989662235,6.889939438659586,tremor
13,4886817,0.087,-0.13886609153192217,-0.2760238751701251,0.8792445389945436,-0.23445894053759656,-7.548024343499205,6.706683473260854,tremor
14,4886827,0.097,-0.14412292442305413,-0.2756319190144918,0.8787221203443084,-0.3010554315586982,-7.303059465646265,6.441297739796543,tremor
15,4886832,0.102,-0.1496095141322306,-0.27514733508838213,0.8783110738345017,-0.3818146703384676,-6.994094749898659,6.093059091595423,tremor
16,4886837,0.107,-0.15530330805579942,-0.27456939630531135,0.878015407339711,-0.47719618416894294,-6.610030005193397,5.6616576711351785,tremor
17,4886846,0.116,-0.16118012276295454,-0.2738982070331256,0.8778381654257896,-0.5875661371672161,-6.140124998164907,5.147204551701734,tremor
18,4886851,0.121,-0.16721408381069,-0.2731346994098289,0.8777815009060687,-0.713186989842895,-5.574155340829962,4.5502351725986,tremor
19,4886882,0.152,-0.17337764266266226,-0.27228063609222114,0.8778467115577429,-0.8542072699339396,-4.902573278689108,3.871708234075319,tremor
20,4886896,0.166,-0.17964165367851992,-0.2713386144024525,0.8780342565840721,-1.01065155519566,-4.116671588276029,3.1129998337918736,tremor
21,4886901,0.171,-0.18597549846701367,-0.27031206862770324,0.8783437622722554,-1.1824107997621658,-3.208748255479374,2.275892772389485,tremor
22,4886911,0.181,-0.19234724802610728,-0.26920526834423986,0.8787740229338625,-1.3692331860342224,-2.172268992436536,1.3625611178592487,tremor
23,4886916,0.186,-0.19872385529506387,-0.26802331132145896,0.8793230010600217,-1.5707157494863582,-1.002024037265756,0.37555027660761037,tremor
24,4886925,0.195,-0.20507137230599998,-0.26677210997617606,0.8799878292764036,-1.7862970884687892,0.3057248209652536,-0.6822470464586746,tremor
25,4886930,0.2,-0.21135518726654337,-0.2654583705939362,0.8807648158625011,-2.0152515148829058,1.7531113395491507,-1.807618517408591,tremor
26,4886935,0.205,-0.2175402777700803,-0.2640895646733731,0.8816494551093474,-2.2566850107971947,3.340550413029752,-2.997062927370223,tremor
27,4886939,0.209,-0.2235914769893194,-0.2626738918186313,0.8826364434940895,-2.509533327815631,5.066646278885902,-4.246823450348693,tremor
28,4886954,0.224,-0.22947375019094626,-0.26122023362927094,0.8837197024582536,-2.7725625063881574,6.9281269583255956,-5.552922805719382,tremor
29,4886959,0.229,-0.23515247921137022,-0.259738098040595,0.8848924084327259,-3.0443720121570457,8.919807837877626,-6.911199720314636,tremor
30,4886964,0.234,-0.24059375262951943,-0.25823755357918954,0.8861470306259605,-3.3234005975561547,11.034586401777503,-8.31734609380551,tremor
31,4886973,0.243,-0.2457646592234517,-0.2567291530559745,0.8874753769710535,-3.6079349085161128,13.263469068797615,-9.766944304415812,tremor
32,4887001,0.271,-0.2506335818827596,-0.25522384636123,0.8888686485118626,-3.8961207737701473,15.595629895876959,-11.255504160492222,tremor
33,4887006,0.276,-0.25517048851342417,-0.25373288228223334,0.8903175023998868,-4.185977040516643,18.018499650220463,-12.778499111010543,tremor
34,4887011,0.281,-0.2593472157608017,-0.25226769964579854,0.8918121235640887,-4.475411756953841,20.517882551008334,-14.331401465166945,tremor
35,4887016,0.286,-0.26313774081081004,-0.2508398085846778,0.8933423049809873,-4.762240451076721,23.078097010232284,-15.909716510892345,tremor
36,4887035,0.305,-0.26651843630830485,-0.2494606633049977,0.8948975362791547,-5.044206215760185,25.68213608796851,-17.509015527564156,tremor
37,4887039,0.309,-0.26946830362640445,-0.24814152833764594,0.896467100135855,-5.319001280370483,28.31184315694549,-19.12496773112736,tremor
38,4887044,0.314,-0.2719691802520517,-0.24689334081914616,0.8980401755587624,-5.584289728754232,30.948098428649008,-20.753371164449874,tremor
39,4887049,0.319,-0.27400591775925276,-0.24572657178876273,0.8996059467070118,-5.8377310166283145,33.571012508986655,-22.390182467095137,tremor
40,4887054,0.324,-0.27556652756764904,-0.24465108974404884,0.9011537154227497,-6.077003953226725,36.160123971732254,-24.031545351775375,tremor
41,4887064,0.334,-0.27664229234119614,-0.24367602973912783,0.9026730151568337,-6.299830842693273,38.69459893250694,-25.673817502801416,tremor
42,4887069,0.339,-0.27722784145329465,-0.24280967114834018,0.90415372352948,-6.504001523167533,41.15343160209526,-27.31359550892326,tremor
43,4887074,0.344,-0.2773211894594867,-0.24205932687992465,0.9055861704290202,-6.687397084150871,43.51564564356753,-28.94773735225938,tremor
44,4887084,0.354,-0.27692373701624035,-0.24143124633904592,0.9069612383892733,-6.848013073538249,45.760496751252106,-30.573381891490996,tremor
45,4887088,0.358,-0.27604023418469537,-0.24093053383555207,0.908270452062437,-6.983982016196504,47.86767716095002,-32.187964692936184,tremor
46,4887093,0.363,-0.2746787065387074,-0.24056108344385393,0.9095060539607858,-7.0935950532294205,49.81752277984828,-33.789229472315,tremor
47,4887098,0.368,-0.2728503448835798,-0.24032553059321868,0.9106610642896563,-7.1753224774492494,51.59122329955001,-35.37523431434722,tremor
48,4887126,0.396,-0.2705693595813693,-0.24022521994540544,0.9117293236222153,-7.227832892779765,53.17103504256404,-36.944351745889726,tremor
49,4887131,0.401,-0.2678528003779389,-0.24026018845738023,0.9127055183235961,-7.250010673042208,54.54049542387294,-38.49526167706358,tremor
50,4887145,0.415,-0.2647203422078587,-0.24042916199686357,0.9135851899130716,-7.240971349158521,55.68463684043964,-40.026936252769026,tremor
51,4887155,0.425,-0.2611940368126093,-0.24072956355584454,0.9143647307906647,-7.2000745236013906,56.59019661653046,-41.53861585617106,tremor
52,4887165,0.435,-0.2572980294110504,-0.2411575310536291,0.915041369750225,-7.126933910205411,57.24581846054237,-43.02977592549469,tremor
53,4887169,0.439,-0.2530582395023091,-0.24170794294724268,0.9156131512847429,-7.021424141173522,57.642239911669805,-44.500084849192774,tremor
54,4887174,0.444,-0.24850200551729618,-0.2423744503286418,0.9160789127718554,-6.8836840751458395,57.77245966668189,-45.9493538780316,tremor
55,4887179,0.449,-0.2436576945969784,-0.24314951481129515,0.9164382632140415,-6.714116461889561,57.63187860581868,-47.3774806060758,tremor
56,4887189,0.459,-0.23855428110752006,-0.2440244522148675,0.9166915663834327,-6.513383938590039,57.21840879232907,-48.784388042506755,tremor
57,4887194,0.464,-0.23322090025313083,-0.24498948277146354,0.9168399301153544,-6.282401427687363,56.53254562078966,-50.169961603930226,tremor
58,4887199,0.469,-0.22768638590309856,-0.2460337892280556,0.9168852022512753,-6.02232507606364,55.57739952850602,-51.53398651965,tremor
59,4887204,0.474,-0.221978804131537,-0.247145584737838,0.9168299724864131,-5.734537934174723,54.35868516543222,-52.87608817677732,tremor
60,4887209,0.479,-0.21612499569962668,-0.24831219275896674,0.9166775782424067,-5.420632636997224,52.8846675420254,-54.195677843740334,tremor
61,4887213,0.483,-0.2101501416507191,-0.24952014127249986,0.9164321117431118,-5.082391424544832,51.1660663257929,-55.49190600529104,tremor
62,4887218,0.488,-0.20407736632402665,-0.2507552734726919,0.9160984247775363,-4.721763925850295,49.215921018239236,-56.76362523148077,tremor
63,4887223,0.493,-0.1979273914853874,-0.25200287666508403,0.9156821272288038,-4.340843215337685,47.04942111688718,-58.00936410234845,tremor
64,4887248,0.518,-0.191718254016839,-0.25324783043087945,0.9151895753607115,-3.941840717766428,44.68370648077401,-59.227313233020816,tremor
65,4887253,0.523,-0.18546509779287695,-0.25447477419054887,0.9146278460984254,-3.527060569249911,42.13764391614661,-60.41532390513941,tremor
66,4887257,0.527,-0.17918004806955287,-0.25566829315952905,0.9140046941156149,-3.0988740220303588,39.431586429519996,-61.57091923266803,tremor
67,4887267,0.537,-0.17287217396104626,-0.2568131204042884,0.9133284894259527,-2.659694406327047,36.58712162666017,-62.69131720648188,tremor
68,4887272,0.542,-0.16654754140704456,-0.25789435138644384,0.9126081343213241,-2.21195305143563,33.626815399336984,-63.77346440787761,tremor
69,4887277,0.547,-0.16020935550907336,-0.2588976661613197,0.9118529598156574,-1.7580764545872083,30.57395642940996,-64.81407868457431,tremor
70,4887282,0.552,-0.15385818736321968,-0.25980955341403184,0.911072603133521,-1.300464898791412,27.452306247948815,-65.80969866831026,tremor
71,4887287,0.557,-0.14749227672317358,-0.26061752988361697,0.9102768691208387,-0.841472665649323,24.2858586780535,-66.75673770707108,tremor
72,4887292,0.562,-0.14110789820676597,-0.26131034850847507,0.9094755796626928,-0.3833899525069713,21.098611512607743,-67.6515396129919,tremor
73,4887306,0.576,-0.1346997755510274,-0.261878188838531,0.908678416197077,0.07157342984455166,17.914352288750997,-68.49043360888976,tremor
74,4887311,0.581,-0.12826152589602788,-0.26231282387564847,0.9078947611465601,0.5213025386822915,14.756459078782193,-69.2697860060125,tremor
75,4887316,0.586,-0.12178611453896386,-0.26260775846543355,0.9071335444828128,0.9637899566352567,11.647716382357656,-69.98604647190912,tremor
76,4887321,0.591,-0.11526630033737752,-0.26275833558102973,0.9064031016230724,1.3971466529964995,8.610145538572597,-70.63578724572528,tremor
77,4887326,0.596,-0.10869505313056883,-0.26276180820370204,0.9057110483883314,1.819611097751225,5.664848626049988,-71.21573429296734,tremor
78,4887330,0.6,-0.10206592716562585,-0.2626173759088749,0.9050641778380389,2.229556683030592,2.831864601553993,-71.722790093589,tremor
79,4887335,0.605,-0.09537337834244566,-0.2623261866217752,0.9044683824969753,2.625497498971451,0.1300364417071988,-72.15404844800646,tremor
80,4887373,0.643,-0.088613017802461,-0.2618913052477163,0.9039286039016107,3.0060924912544555,-2.423111700403741,-72.50680230357717,tremor
81,4887378,0.648,-0.08178179955973013,-0.26131765195352946,0.9034488096371442,3.3701479967008225,-4.811487841161609,-72.77854610016304,tremor
82,4887383,0.653,-0.07487814493110687,-0.26061191371974046,0.903031996278788,3.7166186136164656,-7.020535903657769,-72.96697445034285,tremor
83,4887387,0.657,-0.06790201073953035,-0.2597824333338849,0.9026802151008342,4.044606324034331,-9.037329083674955,-73.06997904867059,tremor
84,4887392,0.662,-0.06085491102884084,-0.25883908021093555,0.9023946162633395,4.3533577612614485,-10.850651552654709,-73.08564553133587,tremor
85,4887402,0.672,-0.05373990314548699,-0.25779310731328786,0.9021755065192683,4.642259523172746,-12.451066876509728,-73.0122516409267,tremor
86,4887407,0.677,-0.04656154875099525,-0.25665699805192116,0.9020224152882623,4.9108314759743,-13.830971399451807,-72.84826758310652,tremor
87,4887412,0.682,-0.039325859051239996,-0.25544430645342225,0.9019341641507016,5.158718071116941,-14.984630880031942,-72.5923589660491,tremor
88,4887417,0.687,-0.03204023164700141,-0.2541694931469498,0.9019089353596444,5.385677798752473,-15.908198845357738,-72.2433922306057,tremor
89,4887431,0.701,-0.024713384201079897,-0.25284775893254446,0.9019443357868819,5.5915710084347365,-16.59971543295474,-71.8004420328932,tremor
90,4887436,0.706,-0.017355287771094245,-0.2514948769125051,0.9020374537464264,5.776346423041606,-17.059085908010406,-71.26279965178938,tremor
91,4887441,0.711,-0.009977100325277342,-0.2501270234838967,0.9021849072943122,5.940026740077986,-17.288038568482015,-70.62998119141102,tremor
92,4887446,0.716,-0.0025910987938363075,-0.24876060799001876,0.9023828837909155,6.082693750430731,-17.29006236771635,-69.9017341725846,tremor
93,4887455,0.725,0.004789393822148606,-0.24741210058283078,0.902627171625739,6.204473413399443,-17.07032526588014,-69.0780410885858,tremor
94,4887465,0.735,0.012150091083216512,-0.24609785788594155,0.9029131859465457,6.3055213175233575,-16.635575025525522,-68.1591186453167,tremor
95,4887470,0.74,0.019475840910902393,-0.24483394634901692,0.9032359909217967,6.386008935305019,-15.994024842544563,-67.14541170175471,tremor
96,4887497,0.767,0.026750743730981574,-0.24363596369417473,0.9035903214272952,6.446111046656483,-15.155226795172204,-66.03758135028852,tremor
97,4887501,0.771,0.033958294913110115,-0.24251885949840474,0.9039706070360304,6.485994657296308,-14.129936532795362,-64.83648708649513,tremor
98,4887506,0.776,0.0410815533565585,-0.24149675664777437,0.9043710008046509,6.505809671043512,-12.929972829084962,-63.543163539719394,tremor
99,4887511,0.781,0.048103335428807445,-0.24058277605203005,0.9047854146584564,6.505681489950221,-11.568075514327166,-62.15879268071261,tremor
100,4887516,0.786,0.05500643074099024,-0.23978886755090148,0.9052075622972061,6.485705621324956,-10.057764870927803,-60.68467273385268,tremor
101,4887526,0.796,0.061773833833114924,-0.23912565033618147,0.9056310096035779,6.445944278465291,-8.413204910843357,-59.12218519966056,tremor
102,4887531,0.801,0.06838898397039875,-0.23860226644450652,0.9060492316400885,6.386424883660873,-6.6490721879554044,-57.472761470612205,tremor
103,4887536,0.806,0.07483600401760464,-0.23822625094076705,0.9064556745461692,6.307140324092137,-4.780431047865049,-55.73785052347661,tremor
104,4887540,0.81,0.08109992878994407,-0.2380034223018528,0.90684382004995,6.208050775889908,-2.822615563163711,-53.91888910008,tremor
105,4887545,0.815,0.08716691335532689,-0.23793779621487302,0.9072072499226085,6.089086898609842,-0.791117898029682,-52.017275646785436,tremor
106,4887550,0.82,0.09302441240917335,-0.23803152552433354,0.907539707536224,5.950154209210059,1.2985174803870887,-50.03434907880049,tremor
107,4887555,0.825,0.09866132295010832,-0.2382848684159661,0.9078351537291288,5.791138467072572,3.4307944728127926,-47.97137318179966,tremor
108,4887560,0.83,0.10406808394121086,-0.23869618613921254,0.9080878144178685,5.6119119347443664,5.590361613467482,-45.82952717525762,tremor
109,4887570,0.84,0.10923672835630516,-0.23926197068127103,0.9082922178042874,5.412340417403347,7.7621044936411,-43.60990265648724,tremor
110,4887574,0.844,0.11416088491700058,-0.239976901857551,0.9084432195936578,5.192291021347063,9.931234658937871,-41.31350684227107,tremor
111,4887584,0.854,0.11883572887219238,-0.24083393233389128,0.9085360153474503,4.951640601765851,12.083374977589623,-38.94127174904311,tremor
112,4887589,0.859,0.12325788330639909,-0.24182439821501908,0.9085661399169597,4.690284887772117,14.204641103449935,-36.49406872564283,tremor
113,4887594,0.864,0.12742527461725556,-0.24293815209438618,0.9085294548016803,4.408148275664765,16.28171823912045,-33.97272759635932,tremor
114,4887620,0.89,0.13133694787289826,-0.24416371492344127,0.9084221251916998,4.105194269712725,18.301931959846225,-31.378059605460088,tremor
115,4887625,0.895,0.13499284959825228,-0.24548844275901047,0.9082405893109139,3.7814365249967516,20.253311421637964,-28.710883388707067,tremor
116,4887635,0.905,0.13839358693896736,-0.24689870439011635,0.907981523380207,3.436950411815849,22.124642909834897,-25.972053326040747,tremor
117,4887640,0.91,0.1415401728780325,-0.24838006600494214,0.9076418059552184,3.071884979894812,23.90551147537028,-23.16248982306763,tremor
118,4887645,0.915,0.14443376708046696,-0.2499174793845694,0.9072184854745975,2.686475158809574,25.58632843759227,-20.283211279678966,tremor
119,4887649,0.919,0.1470754210596879,-0.2514954705360874,0.906708754564248,2.281053995304385,27.158342841068176,-17.335367683311418,tremor
120,4887659,0.929,0.1494658349233398,-0.25309832613551086,0.9061099340377156,1.8560647039851248,28.613635521135578,-14.320275881609572,tremor
121,4887664,0.934,0.1516051312616683,-0.25471027558523346,0.9054194687078045,1.4120722975537223,29.945095209711067,-11.23945663814713,tremor
122,4887674,0.944,0.15349265005477433,-0.2563156668634538,0.9046349361792085,0.949774565038551,31.146377045244975,-8.094673560444702,tremor
123,4887679,0.949,0.1551267670046262,-0.257899134630608,0.9037540688165535,0.4700121774295641,32.21184488345321,-4.887973915662077,tremor
124,4887688,0.958,0.15650473658179492,-0.2594457592500388,0.9027747881548525,-0.026222285702818586,33.136499859575146,-1.6217312190159179,tremor
125,4887693,0.963,0.15762256037217867,-0.26094121548131444,0.9016952502065233,-0.5377765829462158,33.915898609840866,1.7013107015688704,tremor
126,4887698,0.968,0.15847488099959875,-0.26237190963242707,0.9005138994788826,-1.063332517905126,34.546065284769575,5.0779926892567255,tremor
127,4887703,0.973,0.15905490192924246,-0.26372510393684484,0.8992295290994666,-1.6014012872128418,35.023401883755064,8.504695087840721,tremor
128,4887708,0.978,0.1593543337603003,-0.2649890268793403,0.8978413442926068,-2.15032064029359,35.34460149361237,11.977293525597664,tremor
129,4887718,0.988,0.15936336814435836,-0.2661529681530776,0.8963490265764268,-2.7082539994276282,35.50656877882939,15.491117095885894,tremor
130,4887743,1.013,0.15907068119154816,-0.26720735690638314,0.8947527964440343,-3.2731916504150047,35.50635162320635,19.040910704395724,tremor
131,4887753,1.023,0.15846346912449394,-0.2681438219446315,0.8930534729135792,-3.8429540593551703,35.34108721226638,22.62080362827288,tremor
132,4887758,1.028,0.15752751993226533,-0.2689552326078228,0.8912525290931843,-4.415197306968802,35.00796509851774,26.224286488301072,tremor
133,4887763,1.033,0.15624732566881358,-0.2696357191728655,0.8893521436743611,-4.987420573776038,34.50420893412284,29.84419880012132,tremor
134,4887768,1.038,0.15460624053808267,-0.27018067186005956,0.8873552488912622,-5.556975573103564,33.8270776341131,33.472729010745816,tremor
135,4887782,1.052,0.15258668973099263,-0.2705867178759557,0.8852655758547296,-6.12107782030951,32.97388580680333,37.10142847519802,tremor
136,4887787,1.057,0.15017043297996235,-0.2708516764027116,0.8830876982540578,-6.67681964017843,31.942042418247205,40.721240263813336,tremor
137,4887792,1.062,0.14733888498710662,-0.27097449203386426,0.880827075239268,-7.2211848396236284,30.729105914395245,44.32254309840044,tremor
138,4887797,1.067,0.14407349240033585,-0.2709551478318226,0.8784900939092926,-7.751065000484699,29.332853479662887,47.89521016054148,tremor
139,4887802,1.072,0.14035616408569798,-0.2707945599055746,0.8760841113103417,-8.263277371630979,27.751361799245593,51.42868203175146,tremor
140,4887807,1.077,0.13616974836106752,-0.27049445613089795,0.873617495270184,-8.75458435802475,25.983096587978647,54.91205261448758,tremor
141,4887811,1.081,0.13149854790763488,-0.27005724230989436,0.8710996628232143,-9.221714615528503,24.027008188001936,58.3341665297542,tremor
142,4887816,1.086,0.12632886050312972,-0.26948585964751004,0.8685411144661204,-9.661385763134941,21.88263066578234,61.68372617875734,tremor
143,4887821,1.091,0.12064953168960893,-0.26878363787539344,0.8659534620575049,-10.070328718348451,19.550182022295647,64.94940639058242,tremor
144,4887826,1.096,0.11445250409279126,-0.26795414865368095,0.863349447856913,-10.445313646007136,17.03066334433735,68.11997436130102,tremor
145,4887836,1.106,0.10773334738679916,-0.2670010640137427,0.8607429519984569,-10.783177484859573,14.325954944910407,71.1844124318871,tremor
146,4887841,1.111,0.10049175284393702,-0.2659280245614253,0.8581489856138328,-11.08085297895354,11.438907737018479,74.13204116101855,tremor
147,4887867,1.137,0.09273197699466813,-0.26473852193745345,0.8555836668603275,-11.335399092398157,8.373428225069933,76.95264012907941,tremor
148,4887872,1.142,0.08446322010790037,-0.26343579962982167,0.8530641772769311,-11.544032625926976,5.134555550361772,79.63656396429285,tremor
149,4887877,1.147,0.07569992693862466,-0.2620227756600661,0.8506086961965519,-11.704160779993323,1.7285289753569633,82.17485121035091,tremor
150,4887882,1.152,0.066461999416585,-0.26050198994121615,0.8482363113944227,-11.813414320502268,-1.8371559498109182,84.55932384797737,tremor
151,4887896,1.166,0.05677491357636909,-0.2588755782622448,0.845966904750633,-11.869680903129895,-5.553704474572769,86.78267552084841,tremor
152,4887925,1.195,0.046669735927779794,-0.2571452739323966,0.8438210124267604,-11.87113801036683,-9.410995065846521,88.83854677537346,tremor
153,4887930,1.2,0.03618303745523189,-0.2553124371650029,0.8418196598582658,-11.816284865997677,-13.397569255593483,90.7215858872884,tremor
154,4887935,1.205,0.025356706279036884,-0.25337811134624405,0.8399841726803414,-11.703972629280905,-17.500640857800725,92.42749411404513,tremor
155,4887940,1.21,0.01423766246129877,-0.2513431044724948,0.8383359654606999,-11.53343214606905,-21.706126134878012,93.95305449163833,tremor
156,4887945,1.215,0.0028774803385268367,-0.24920809328935517,0.836896310750276,-11.304298547729736,-25.99869596763996,95.29614360082093,tremor
157,4887949,1.219,-0.008668074876448103,-0.24697374703953098,0.835686091463812,-11.016632033254648,-30.361850457660452,96.45572606600513,tremor
158,4887954,1.224,-0.020339588511852535,-0.2446408672169603,0.8347255399873514,-10.670934235797064,-34.77801572482122,97.43183191840951,tremor
159,4887959,1.229,-0.03207460739827942,-0.24221053931534925,0.8340339677174243,-10.26815965717857,-39.22866198894228,98.22551734944247,tremor
160,4887964,1.234,-0.04380831118091684,-0.23968429223827362,0.8336294890060842,-9.8097217530266,-43.69444135471888,98.83880979783173,tremor
161,4887991,1.261,-0.05547423400761204,-0.23706426079906742,0.8335287437489265,-9.297493369001932,-48.15534305810699,99.27463874873598,tremor
162,4887995,1.265,-0.06700502571718131,-0.23435334658292908,0.8337466231291678,-8.73380136353566,-52.59086329329465,99.53675405797104,tremor
163,4888000,1.27,-0.07833324065665746,-0.2315553723819002,0.8342960033161358,-8.121415396906686,-56.980186168291674,99.62963401242541,tremor
164,4888005,1.275,-0.08939214127356786,-0.22867522546456565,0.8351874921766503,-7.463531008287076,-61.30237191084006,99.55838564852607,tremor
165,4888010,1.28,-0.1001165028131208,-0.22571898512183283,0.836429194237082,-6.763747230478512,-65.53654822517274,99.32864004039257,tremor
166,4888015,1.285,-0.11044340492939725,-0.2226940302366225,0.8380264991789735,-6.0260391002723415,-69.66210068341083,98.94644534131822,tremor
167,4888020,1.29,-0.12031299586180204,-0.21960912304041216,0.8399818990281168,-5.254725509241683,-73.65885817742621,98.41816034202346,tremor
168,4888025,1.295,-0.12966921505157947,-0.21647446571917572,0.842294838892477,-4.454432906686982,-77.50726971585895,97.75035121769496,tremor
169,4888029,1.299,-0.13846046067427378,-0.21330172709530865,0.8449616056203014,-3.6300554160789327,-81.18856920964897,96.94969398145484,tremor
170,4888034,1.304,-0.14664018952930585,-0.21010403722757265,0.8479752581008233,-2.7867119609196345,-84.68492534663069,96.0228849459916,tremor
171,4888039,1.309,-0.15416743803472516,-0.2068959484308778,0.851325602141738,-1.9297010157629444,-87.97957421409822,94.976561215729,tremor
172,4888044,1.314,-0.16100725469030835,-0.2036933619188175,0.8549992119618652,-1.0644536018759994,-91.05693298854766,93.8172328849939,tremor
173,4888049,1.319,-0.16713103625518852,-0.20051342001333533,0.85897949936585,-0.1964851334985233,-93.90269376796776,92.55122820066367,tremor
174,4888059,1.329,-0.17251676199679006,-0.19737436464705943,0.8632468306477564,0.668653309754495,-96.50389745430981,91.18465246620494,tremor
175,4888063,1.333,-0.17714912266897312,-0.19429536370250677,0.8677786902239762,1.5254237534484008,-98.84898846094751,89.72336093541294,tremor
176,4888073,1.343,-0.1810195433312119,-0.19129630758278704,0.8725498889417918,2.3683496646343234,-100.92785185529225,88.17294539663494,tremor
177,4888083,1.353,-0.18412610167730403,-0.1883975792792597,0.8775328139672326,3.1920634318200465,-102.73183526122922,86.53873361518072,tremor
178,4888088,1.358,-0.18647334612323996,-0.18561980207424641,0.8826977161475665,3.991352613540339,-104.25375833615144,84.82580031697243,tremor
179,4888114,1.384,-0.18807202039417895,-0.18298356986419453,0.8880130298000889,4.761204609105592,-105.4879127984383,83.03898799202446,tremor
180,4888119,1.389,-0.18893870360977913,-0.18050916587109075,0.8934457190400962,5.496849407108497,-106.43005574273454,81.18293549739508,tremor
181,4888128,1.398,-0.1890953767614004,-0.17821627616867955,0.8989616440780692,6.193800040342457,-107.0773983590895,79.26211225878525,tremor
182,4888133,1.403,-0.18856892791224716,-0.17612370490820017,0.9045259404437913,6.847890327332787,-107.42859129697973,77.280855806764,tremor
183,4888138,1.408,-0.18739060940964233,-0.1742490983128258,0.9101034038728826,7.455309428515623,-107.48370699184481,75.24341042768846,tremor
184,4888143,1.413,-0.1855954609229538,-0.17260868438218127,0.915658873626119,8.012632712304008,-107.24421850268747,73.15396484999013,tremor
185,4888148,1.418,-0.18322171228831746,-0.1712170348147439,0.9211576072806091,8.516848431787627,-106.71297391658378,71.01668711498802,tremor
186,4888153,1.423,-0.18031018001181032,-0.17008685495423106,0.9265656404982174,8.965379764100094,-105.89416517261313,68.83575508628871,tremor
187,4888158,1.428,-0.1769036708706666,-0.16922880664625428,0.9318501259058929,9.356101856115853,-104.79329018584116,66.61538141294567,tremor
188,4888162,1.432,-0.17304640532688753,-0.16865136780583165,0.936979645985505,9.687353637128583,-103.41710734296936,64.35983215129876,tremor
189,4888167,1.437,-0.16878347237232608,-0.16836073129680185,0.9419244957412578,9.957944283217476,-101.77358174425204,62.073438640657315,tremor
190,4888172,1.442,-0.1641603259078056,-0.1683607444626377,0.9466569318644111,10.167154333746618,-99.87182294398974,59.76060259603224,tremor
191,4888177,1.447,-0.1592223308053634,-0.16865288937581163,0.9511513861197187,10.314731558917234,-97.72201436246102,57.42579471200826,tremor
192,4888182,1.452,-0.15401436444374786,-0.1692363026386889,0.9553846417068026,10.40088175656529,-95.33533497909636,55.07354735637734,tremor
193,4888191,1.461,-0.14858047681937592,-0.17010783241838628,0.9593359723747046,10.42625471990788,-92.72387435130264,52.70844216277425,tremor
194,4888197,1.467,-0.14296360944230355,-0.17126212937399019,0.962987245060918,10.391925671189643,-89.90054242255044,50.33509349947917,tremor
195,4888202,1.472,-0.13720537031456656,-0.17269176728073618,0.9663229877536454,10.299372503582926,-86.87897597327982,47.958128886272426,tremor
196,4888206,1.476,-0.13134585960639933,-0.17438738851790608,0.9693304250951202,10.150449217592664,-83.67344390893999,45.582167443983245,tremor
197,4888211,1.481,-0.12542353847287435,-0.17633786920437222,0.9719994849078394,9.947355979522154,-80.29875384485993,43.21179739330184,tremor
198,4888238,1.508,-0.11947513202607327,-0.17853049865613568,0.9743227792939628,9.692606268299423,-76.77016260294576,40.85155348738952,tremor
199,4888243,1.513,-0.11353555693289133,-0.18095116799515748,0.9762955642003353,9.388991612166135,-73.10329322195759,38.50589509637242,tremor
200,4888248,1.518,-0.10763786446506252,-0.18358456312838006,0.9779156813332156,9.03954444621171,-69.31406080910696,36.17918549414732,tremor
201,4888253,1.523,-0.10181319099029043,-0.1864143578960262,0.979183486033413,8.647499642591919,-65.41860894226049,33.87567275393946,tremor
202,4888263,1.533,-0.0960907096643315,-0.18942340390298498,0.9801017641971548,8.216255274796405,-61.43325737959572,31.599472543979825,tremor
203,4888267,1.537,-0.09049757920338485,-0.19259391433104972,0.9806756406059679,7.749333173153766,-57.37446068361299,29.35455301604062,tremor
204,4888272,1.542,-0.08505888782043525,-0.19590763981564452,0.9809124802006425,7.250339808290584,-53.25877621146217,27.144721884908243,tremor
205,4888277,1.547,-0.07979759248074214,-0.19934603519802124,0.9808217830004132,6.722928000346344,-49.10283891841638,24.97361570774614,tremor
206,4888292,1.562,-0.07473445542165404,-0.20289041658704413,0.9804150726131482,6.170759894926797,-44.92333964748499,22.844691301156512,tremor
207,4888301,1.571,-0.06988798130395812,-0.20652210865743287,0.9797057776634567,5.597471576863849,-40.73700306804179,20.76121919264774,tremor
208,4888306,1.576,-0.06527435936094592,-0.21022258246487643,0.9787091050246127,5.006639619063617,-36.56056121029888,18.726278995451043,tremor
209,4888311,1.581,-0.06090741543260443,-0.2139735842737208,0.9774419035144197,4.401749798768624,-32.4107186659573,16.742756611787428,tremor
210,4888316,1.586,-0.0567985787665618,-0.21775725597551157,0.9759225167316681,3.7861681697997938,-28.304106008508327,14.813343190481639,tremor
211,4888321,1.591,-0.05295686792735543,-0.22155624763639642,0.9741706239672812,3.1631146622296944,-24.257218778852895,12.940535772631742,tremor
212,4888326,1.596,-0.04938889913910015,-0.22535382256249584,0.9722070685883323,2.535639385604097,-20.286340379117068,11.126639548567155,tremor
213,4888335,1.605,-0.046098919004215186,-0.22913395503175998,0.9700536739112032,1.906601826363183,-16.407448319133906,9.373771625946773,tremor
214,4888361,1.631,-0.04308886193425961,-0.2328814205287699,0.9677330472968092,1.278653140763031,-12.636104396312598,7.683866178124539,tremor
215,4888366,1.636,-0.04035843097363681,-0.23658187796710906,0.9652683739585078,0.6542217385493284,-8.98733050502894,6.058680802322526,tremor
216,4888371,1.641,-0.037905199218489755,-0.2402219430482692,0.9626832027007741,0.035502320799022685,-5.475472802584381,4.49980386246706,tremor
217,4888376,1.646,-0.035724727980172066,-0.24378925166557677,0.9600012264166891,-0.5755515232975489,-2.114057839891355,3.0086625203724604,tremor
218,4888381,1.651,-0.03381069739094702,-0.24727251218860874,0.9572460605861045,-1.1772311334512189,1.084355042966319,1.5865310821907246,tremor
219,4888395,1.665,-0.032155045312221985,-0.25066154558635684,0.9544410231980388,-1.7680730665994668,4.108320259519669,0.2345392247057572,tremor
220,4888400,1.67,-0.03074811103876411,-0.2539473126418252,0.9516089194863252,-2.346855996048345,6.947646363889915,-1.046320363558055,tremor
221,4888410,1.68,-0.029578781172279703,-0.2571219279205506,0.948771834666392,-2.912594431599761,9.593525123063745,-2.2551853805411066,tremor
222,4888415,1.685,-0.028634635936110476,-0.2601786606150502,0.9459509375550007,-3.4645295224209534,12.038644335407847,-3.3913187558086375,tremor
223,4888429,1.699,-0.02790209494185828,-0.2631119228346249,0.9431662976038017,-4.002117233527685,14.277279984331983,-4.454105281763744,tremor
224,4888434,1.704,-0.027366561913568236,-0.26591724629641367,0.9404367175285872,-4.525014198064169,16.30536411707361,-5.443050292785776,tremor
225,4888439,1.709,-0.027012568144997657,-0.2685912486699176,0.9377795833926027,-5.033061551587584,18.120525833601,-6.357780573574887,tremor
226,4888444,1.714,-0.02682391460265344,-0.27113159102542705,0.9352107337016162,-5.526267060993417,19.722103868250343,-7.198047591068451,tremor
227,4888453,1.723,-0.026783812699685845,-0.27353692794511114,0.9327443487706756,-6.004785873454451,21.11113036297089,-7.963733046612737,tremor
228,4888458,1.728,-0.02687502392621683,-0.27580685188873333,0.9303928613042379,-6.468900227969528,22.29028649753813,-8.65485663682319,tremor
229,4888484,1.754,-0.027079998744681553,-0.27794183337555267,0.9281668887759177,-6.918998489550351,23.263831606449497,-9.271585798434424,tremor
230,4888489,1.759,-0.02738101539981168,-0.27994315845503703,0.9260751877981624,-7.355553879550165,24.037508230366633,-9.814247103155646,tremor
231,4888498,1.768,-0.02776031945856472,-0.2818128647948692,0.9241246302545714,-7.779103281597077,24.61842617949205,-10.283338872177563,tremor
232,4888503,1.773,-0.028200264873051693,-0.28355367752218996,0.9223202005723385,-8.190226498122161,25.014929095885204,-10.67954450359237,tremor
233,4888513,1.783,-0.028683457074045227,-0.2851689457239279,0.9206650131934323,-8.589526315903493,25.23644719403162,-11.003745952930448,tremor
234,4888518,1.788,-0.029192898062853342,-0.28666258025836394,0.9191603490985841,-8.977609710505769,25.293339877616432,-11.257036777151157,tremor
235,4888523,1.793,-0.029712132763179695,-0.2880389932700007,0.9178057101549977,-9.355070480913723,25.196731835847224,-11.440734144609463,tremor
236,4888528,1.798,-0.03022539514330288,-0.28930303955269154,0.9165988900762718,-9.722473560371748,24.958346062551616,-11.5563892276174,tremor
237,4888532,1.802,-0.030717751934156934,-0.2904599596899548,0.915536060865133,-10.080341201323911,24.59033704316326,-11.605795430393036,tremor
238,4888537,1.807,-0.031175241232662583,-0.2915153247300857,0.9146118737161517,-10.429141184707362,24.105127133171152,-11.590993962082587,tremor
239,4888542,1.812,-0.031585002940541854,-0.29247498203493716,0.9138195734514711,-10.769277158928725,23.51524891393901,-11.514276339016735,tremor
240,4888547,1.817,-0.0319353978662038,-0.29334500187832874,0.9131511256211958,-11.101081173231897,22.833196059521217,-11.378183488749809,tremor
241,4888552,1.822,-0.03221611240878618,-0.29413162436339235,0.9125973554041555,-11.424808435105222,22.071284977512207,-11.185501227357706,tremor
242,4888557,1.827,-0.03241824603247502,-0.2948412062762953,0.9121480973853582,-11.740634292206476,21.24152919068455,-10.939251987278455,tremor
243,4888561,1.831,-0.03253437919962092,-0.29548016759318424,0.911792355162324,-12.048653414687427,20.355528096064766,-10.642682780642676,tremor
244,4888566,1.836,-0.032558620029029955,-0.2960549375019982,0.9115184695492509,-12.348881131066795,19.424371368352656,-10.29924948642377,tremor
245,4888571,1.841,-0.03248662863985807,-0.2965718999823806,0.9113142939168508,-12.6412568466319,18.45855986342418,-9.912597643608589,tremor
246,4888576,1.846,-0.03231561888310693,-0.2970373391937632,0.9111673749419984,-12.925649444350558,17.467943427562833,-9.48654001440005,tremor
247,4888581,1.851,-0.03204433789728282,-0.2974573851396928,0.9110651367621249,-13.201864531436915,16.46167553519339,-9.025031250978152,tremor
248,4888607,1.877,-0.03167302459653626,-0.29783796028953957,0.9109950662516867,-13.469653348501419,15.448184172734882,-8.532140056811597,tremor
249,4888612,1.882,-0.031203348755852404,-0.2981847280279418,0.910944896879777,-13.728723104259412,14.43515788058904,-8.012019278157158,tremor
250,4888617,1.887,-0.03063833275076714,-0.2985030439438933,0.9109027883909119,-13.978748443385548,13.429545403170623,-7.468874391232372,tremor
251,4888622,1.892,-0.029982258203294646,-0.29879791103909253,0.9108574994015652,-14.219383708238949,12.437567038128357,-6.9069308641772835,tremor
252,4888627,1.897,-0.029240559778042317,-0.2990739399121811,0.9107985499456819,-14.4502756257128,11.464735563855044,-6.330400872251722,tremor
253,4888632,1.902,-0.028419708205717677,-0.29933531486594583,0.9107163710412153,-14.671076041890242,10.515884560808406,-5.743449835286574,tremor
254,4888637,1.907,-0.02752708436165981,-0.29958576671198733,0.9106024384797952,-14.881454338392004,9.595202000573703,-5.150163233789264,tremor
255,4888641,1.911,-0.02657084597464372,-0.29982855284221294,0.9104493882498469,-15.081109192827387,8.706267130144884,-4.554514146440467,tremor
256,4888646,1.916,-0.02555978834827921,-0.3000664449254339,0.9102511112783677,-15.26977938893541,7.852088907845107,-3.9603319360463565,tremor
257,4888651,1.921,-0.024503200382497925,-0.3003017243895508,0.9100028255102054,-15.447253435832645,7.035144531779023,-3.3712724917443424,tremor
258,4888656,1.926,-0.023410717202168474,-0.30053618567696544,0.909701123730719,-15.613377814384027,6.257416919064317,-2.7907904116718707,tremor
259,4888661,1.931,-0.022292170829897325,-0.30077114711762104,0.9093439959737002,-15.768063725499244,5.520430321945971,-2.222113482490873,tremor
260,4888666,1.936,-0.021157440558951295,-0.30100746914872867,0.90893082583617,-15.911292264978462,4.825283585590207,-1.6682197806302956,tremor
261,4888671,1.941,-0.020016304954423393,-0.3012455795157087,0.9084623605377485,-16.04311799008816,4.1726808456182765,-1.1318176853306927,tremor
262,4888675,1.945,-0.018878297692172502,-0.301485505004438,0.9079406551050538,-16.163670874640882,3.5629597182216277,-0.6153290554086445,tremor
263,4888680,1.95,-0.01775256968912436,-0.30172690916845984,0.9073689916198084,-16.273156673550595,2.9961172418316373,-0.12087577972090656,tremor
264,4888685,1.955,-0.016647760141400583,-0.30196913541531967,0.9067517750312489,-16.37185573644101,2.4718339802343277,0.3497301338580903,tremor
265,4888690,1.96,-0.015571879131238033,-0.30221125469545707,0.9060944075873797,-16.460120324817932,1.989496791599481,0.7949928132807873,tremor
266,4888704,1.974,-0.014532204361729185,-0.3024521168912356,0.9054031444740918,-16.53837050087708,1.5482208108273838,1.2137350521802113,tremor
267,4888731,2.001,-0.013535194312803046,-0.30269040483539383,0.9046849337532965,-16.60708867090577,1.1468711912138077,1.6050970973397005,tremor
268,4888741,2.011,-0.012586419680210601,-0.30292468971156417,0.9039472441426009,-16.66681288526128,0.7840851109142912,1.968531730637857,tremor
269,4888746,2.016,-0.01169051438487044,-0.30315348643495477,0.9031978845522676,-16.71812902197346,0.45829447205027535,2.303795738068677,tremor
270,4888751,2.021,-0.010851146780712306,-0.30337530752030906,0.9024448195584255,-16.761662011252803,0.16774960903659586,2.6109379133983572,tremor
271,4888755,2.025,-0.010071011025205046,-0.3035887139500526,0.9016959851223854,-16.79806628928975,-0.08945581205192392,2.8902837959802237,tremor
272,4888760,2.03,-0.00935183797709946,-0.30379236166470713,0.9009591088629603,-16.828015696392452,-0.3153586645160087,3.1424173894013707,tremor
273,4888765,2.035,-0.008694424484686075,-0.3039850424904753,0.9002415390682083,-16.85219305366829,-0.5120991022974162,3.3681601487140047,tremor
274,4888770,2.04,-0.008098679528125445,-0.30416571856444885,0.8995500864166103,-16.871279663987334,-0.6818923963228616,3.568547558521586,tremor
275,4888775,2.045,-0.00756368537035316,-0.3043335495873684,0.898890882082849,-16.885944987971552,-0.8270001974931808,3.7448036526111097,tremor
276,4888780,2.05,-0.0070877716397537635,-0.3044879125052516,0.8982692555411494,-16.89683674510306,-0.9497016432637704,3.898313849327833,tremor
277,4888784,2.054,-0.0066686001028593645,-0.30462841347899966,0.8976896349556015,-16.904571684210392,-1.052264787055962,4.030596496580492,tremor
278,4888794,2.064,-0.006303257777582757,-0.30475489223507,0.8971554725647869,-16.909727256709548,-1.136918868133533,4.143273536508208,tremor
279,4888798,2.068,-0.005988355980217108,-0.3048674190945988,0.8966691969288255,-16.912834409672584,-1.2058279542059476,4.238040711950415,tremor
280,4888803,2.073,-0.005720132888359272,-0.30496628515100327,0.8962321933121646,-16.914371693370896,-1.2610664811194552,4.316637744523796,tremor
281,4888808,2.078,-0.005494557234293734,-0.3050519862086931,0.895844812827672,-16.91476084889743,-1.3045971857913143,4.380818917629945,tremor
