sample,t_ms,t_s,ax,ay,az,gx,gy,gz,tremor
0,4933059,0.0,-0.14019152106906366,-0.03808032504911143,0.9059635339132847,-1.4081172325619575,-11.001294358323408,5.8480065850659635,tremor
1,4933064,0.005,-0.14194672973809244,-0.03818622433418893,0.9064410643337815,-1.8681687503232967,-9.746674356282892,5.623850915048558,tremor
2,4933069,0.01,-0.14435351949740852,-0.038336979493308984,0.9070779974797814,-2.322671853657844,-8.573969177182667,5.3540625594004005,tremor
3,4933074,0.015,-0.14746063122876296,-0.03853932998393628,0.9078740267185175,-2.770696741196484,-7.48428936690656,5.035292681899495,tremor
4,4933078,0.019,-0.15119951458542316,-0.038792914354183056,0.9087960765760086,-3.211336264946748,-6.47777938100204,4.664252921349757,tremor
5,4933088,0.029,-0.15544374162905564,-0.03909320211876849,0.9097968475896635,-3.643706203232652,-5.553601626427313,4.237741748377046,tremor
6,4933093,0.034,-0.1600617618097925,-0.039434559375352375,0.9108299496842752,-4.066945394794945,-4.709931931611424,3.752671256440178,tremor
7,4933098,0.039,-0.16494368322591868,-0.03981203467743991,0.9118569808536436,-4.480215788259217,-3.943966897321191,3.2060941389390063,tremor
8,4933103,0.044,-0.1700084619904635,-0.04022202641891959,0.9128489639062041,-4.88270244995628,-3.2519435322940113,2.5952305892085348,tremor
9,4933117,0.058,-0.17520133858034975,-0.04066232174042328,0.9137851753996646,-5.273613559025479,-2.629171525745833,1.9174948476253113,tremor
10,4933127,0.068,-0.1804881265968455,-0.041131883228118137,0.9146512688774725,-5.652180402764979,-2.070078445712354,1.1705211103536186,tremor
11,4933132,0.073,-0.1858495039114165,-0.041630583789674123,0.9154375390169042,-6.017657368589309,-1.5682680644636426,0.35218850830509335,tremor
12,4933137,0.078,-0.19127637786035492,-0.04215897086731383,0.9161375768674558,-6.369321912619694,-1.1165918801786796,-0.5393551359735165,tremor
13,4933147,0.088,-0.19676644934705628,-0.04271808094486337,0.9167473116829593,-6.706474469205997,-0.707233708242314,-1.5056710601122383,tremor
14,4933151,0.092,-0.20232177245191654,-0.043309300974491705,0.917264356688028,-7.028438250511148,-0.33180694614024075,-2.5480090960207935,tremor
15,4933177,0.118,-0.20794704840736414,-0.04393426630138963,0.9176875705592917,-7.334558870525294,0.018536225314413707,-3.6672892398389956,tremor
16,4933182,0.123,-0.21364842955177404,-0.044594784563999436,0.9180167635691501,-7.62420371451865,0.35298484299160177,-4.864085486134033,tremor
17,4933187,0.128,-0.21943266573216572,-0.04529277710173413,0.9182524973590653,-7.896760967487385,0.6809399390511681,-6.138612127284262,tremor
18,4933192,0.133,-0.2253064765505732,-0.0460302316966466,0.9183959438943584,-8.151638221596736,1.0118781005186168,-7.490712691549766,tremor
19,4933197,0.138,-0.23127607170820336,-0.04680916239000351,0.9184487812905804,-8.388260609538753,1.3552102034510078,-8.91985166601309,tremor
20,4933201,0.142,-0.23734676931220539,-0.04763157354533133,0.9184131125551934,-8.60606845803299,1.7201380336469851,-10.425109121003642,tremor
21,4933206,0.147,-0.2435226809277526,-0.04849942634627995,0.918291398827748,-8.804514517325046,2.1155117471965723,-12.005178317964122,tremor
22,4933216,0.157,-0.24980644486169587,-0.04941460662752986,0.9180864022693721,-8.983060890601015,2.5496912824000484,-13.658366341861262,tremor
23,4933225,0.166,-0.2561989975784718,-0.0503788934356519,0.9178011359755488,-9.141175854312367,3.030414903225873,-15.382597752963008,tremor
24,4933230,0.171,-0.26269937863031284,-0.05139392807587063,0.917438819603164,-9.278330819090922,3.564678020722162,-17.17542120263562,tremor
25,4933235,0.176,-0.2693045679315926,-0.05246118366685328,0.9170028401144952,-9.393997723379542,4.1586252819224985,-19.03401890518706,tremor
26,4933240,0.181,-0.27600935619968586,-0.053581935424517516,0.9164967173575683,-9.487647171311895,4.817458616725334,-20.955218803851842,tremor
27,4933250,0.191,-0.2828062503033978,-0.05475723203781813,0.9159240742761781,-9.558747619540556,5.5453634880489036,-22.935509215077538,tremor
28,4933254,0.195,-0.2896854153784976,-0.05598786858648681,0.9152886114852099,-9.606765885169477,6.345455010599566,-24.971055683663618,tremor
29,4933259,0.2,-0.29663465509925985,-0.05727436148127495,0.9145940858379649,-9.631169190060543,7.219744904687777,-27.057719735851958,tremor
30,4933264,0.205,-0.3036394306010606,-0.05861692587959516,0.9138442925076882,-9.63142887621338,8.169129451375124,-29.191079182202486,tremor
31,4933269,0.21,-0.3106829173640724,-0.06001545594447155,0.9130430500401734,-9.607025824735016,9.19339774091198,-31.366449598831252,tremor
32,4933301,0.242,-0.31774609800380493,-0.06146950817932658,0.9121941878243081,-9.557457492852649,10.291258601298628,-33.57890660390835,tremor
33,4933315,0.256,-0.3248078874841872,-0.06297828790261956,0.9113015354766866,-9.48224635890081,11.460383733848126,-35.82330854741226,tremor
34,4933329,0.27,-0.3318452859236322,-0.06454063875746682,0.9103689137465603,-9.380949447681797,12.697463905906408,-38.094319252602915,tremor
35,4933334,0.275,-0.33883355311392555,-0.06615503502778622,0.9094001267194364,-9.253168516581374,13.998274737811025,-40.38643049644251,tremor
36,4933339,0.28,-0.34574639834360643,-0.06781957649337553,0.9083989553184277,-9.09856043663627,15.357748779055502,-42.693983994817785,tremor
37,4933344,0.285,-0.3525561792590336,-0.0695319856111212,0.9073691523324378,-8.91684731501613,16.770051128794716,-45.01119275525028,tremor
38,4933349,0.29,-0.3592341043043511,-0.07128960693601359,0.9063144393846497,-8.707825973260592,18.228656621827795,-47.33216175583278,tremor
39,4933353,0.294,-0.36575043462061085,-0.07308940885897855,0.9052385063491017,-8.471376503199897,19.72642738931344,-49.650907988410815,tremor
40,4933358,0.299,-0.3720746829573401,-0.07492798790878719,0.9041450137066231,-8.207469750136562,21.255690315989497,-51.96137995752654,tremor
41,4933368,0.309,-0.3781758089525396,-0.07680157602156494,0.9030375982031693,-7.916173703651514,22.808314516074443,-54.25747675025709,tremor
42,4933373,0.314,-0.38402241186882685,-0.078706051308082,0.9019198819461586,-7.5976588964829626,24.375789413552884,-56.53306678490298,tremor
43,4933378,0.319,-0.38958292332678857,-0.08063695293146,0.9007954847732242,-7.252203008611999,25.94930429781136,-58.782006311683325,tremor
44,4933383,0.324,-0.39482580354467195,-0.08258950073099432,0.8996680393912123,-6.880194935192834,27.519830275911005,-60.99815768401184,tremor
45,4933388,0.329,-0.3997197449092911,-0.08455862017750516,0.8985412084573239,-6.482138594734213,29.078205314822856,-63.1754073545803,tremor
46,4933393,0.334,-0.40423388627856066,-0.08653897311183294,0.8974187025036914,-6.058656724568059,30.615222559953,-65.30768348502593,tremor
47,4933430,0.371,-0.40833804025075804,-0.08852499449556853,0.8963042974278762,-5.610494835210493,32.121721374700954,-67.38897299888393,tremor
48,4933434,0.375,-0.4120029338236088,-0.09051093509559012,0.89520185020932,-5.138525379799134,33.5886796619045,-69.41333786668571,tremor
49,4933439,0.38,-0.41520046064313554,-0.09249090965608563,0.8941153115742686,-4.643752055243701,35.007305173194446,-71.37493041069881,tremor
50,4933444,0.385,-0.41790394080518456,-0.09445894973835704,0.8930487345087601,-4.127314015103281,36.36912292727821,-73.26800747759634,tremor
51,4933459,0.4,-0.42008838237090557,-0.09640906010283223,0.8920062777845552,-3.5904896685855747,37.666055738179224,-75.08694345309499,tremor
52,4933469,0.41,-0.421730737714284,-0.09833527733134435,0.8909922039810595,-3.034699682458625,38.89049523644117,-76.82624225486167,tremor
53,4933474,0.415,-0.42281014765839064,-0.10023172937173311,0.8900108718173343,-2.4615087986547093,40.03536154458687,-78.48054859339302,tremor
54,4933479,0.42,-0.4233081670494651,-0.1020926948280974,0.8890667229098103,-1.8726261291248683,41.0941507749531,-80.04465889673075,tremor
55,4933484,0.425,-0.42320896683306086,-0.10391266108443599,0.8881642633059063,-1.2699036828373076,42.06097056969804,-81.51353233540469,tremor
56,4933488,0.429,-0.42249950961161953,-0.10568638067826468,0.8873080402904843,-0.6553330005764663,42.93056483259381,-82.8823023597864,tremor
57,4933493,0.434,-0.42116969779626673,-0.1074089256660014,0.8865026150209481,-0.03103990098202091,43.69832950234837,-84.14628908374205,tremor
58,4933517,0.458,-0.41921249552881334,-0.10907573998224276,0.8857525315338908,0.6007225409009983,44.360321649271505,-85.30101272635589,tremor
59,4933522,0.463,-0.41662402726099357,-0.1106826899423578,0.8850622826108038,1.2375825661326185,44.913264336511325,-86.34220816500714,tremor
60,4933549,0.49,-0.41340365693193704,-0.11222611303539627,0.8844362729401246,1.8770595781237374,45.354549561686504,-87.26584046851227,tremor
61,4933553,0.494,-0.40955405178708815,-0.11370286498250451,0.8838787800297748,2.516574968939993,45.682241172505215,-88.0681210899416,tremor
62,4933558,0.499,-0.4050812339227355,-0.1151103647119563,0.8833939134522892,3.153463662458556,45.89507897631153,-88.74552424168738,tremor
63,4933563,0.504,-0.39999462086072124,-0.11644663649188336,0.8829855732314171,3.784986176774847,45.99248446576707,-89.2948028904276,tremor
64,4933568,0.509,-0.3943070543692218,-0.11771034806033845,0.882657408437022,4.408341086664921,45.974567809925475,-89.71300381530476,tremor
65,4933573,0.514,-0.38803481485622215,-0.11890084328094284,0.8824127772621172,5.020677835120017,45.842135108099065,-89.99748125332286,tremor
66,4933577,0.518,-0.3811976172850168,-0.12001816767718777,0.8822547099531276,5.619109885545256,45.59669440861085,-90.14590877712287,tremor
67,4933582,0.523,-0.3738185838112622,-0.12106308517675318,0.8821858759268174,6.200728218355731,45.24045866400184,-90.15628918110302,tremor
68,4933587,0.528,-0.3659241882161707,-0.12203708453131219,0.8822085562377382,6.762615162378134,44.77634363075532,-90.02696227316204,tremor
69,4933592,0.533,-0.3575441676460743,-0.12294237416061421,0.8823246222820778,7.301858524554656,44.20795872452965,-89.75661057141623,tremor
70,4933597,0.538,-0.3487113980652056,-0.12378186458654672,0.8825355212742344,7.8155659556452655,43.539589007354145,-89.34426298569949,tremor
71,4933601,0.542,-0.3394617310678615,-0.12455913814741493,0.8828422686536944,8.300879477422273,42.7761668025257,-88.78929662530473,tremor
72,4933606,0.547,-0.32983379115521394,-0.1252784062773567,0.883245447212491,8.754990103966016,41.92323189046308,-88.09143692113602,tremor
73,4933616,0.557,-0.3198687341435416,-0.1259444552507559,0.8837452124108421,9.175152512882741,40.98687981117722,-87.25075628392236,tremor
74,4933621,0.562,-0.3096099689270943,-0.12656258186666014,0.8843413030918298,9.558699750861628,39.9736984527255,-86.26767153947253,tremor
75,4933626,0.567,-0.2991028462738443,-0.12713852102041606,0.8850330566210383,9.903057978727144,38.89069379225833,-85.14294038493014,tremor
76,4933630,0.571,-0.28839431960724515,-0.1276783674230927,0.8858194273530031,10.205761264387636,37.745206318222394,-83.87765709515052,tremor
77,4933635,0.576,-0.27753258377346807,-0.12818849384556755,0.8866990072388683,10.464466414931278,36.54482024296885,-82.47324767618163,tremor
78,4933672,0.613,-0.26656669859690657,-0.1286754681709334,0.887670047310464,10.676967803790657,35.2972680734509,-80.93146461491304,tremor
79,4933677,0.618,-0.25554620457987043,-0.1291459712536133,0.8887304786904677,10.841212100348075,34.01033341417666,-79.25438131064769,tremor
80,4933686,0.627,-0.24452073835735263,-0.1296067171552172,0.8898779317099358,10.955312756631729,32.69175499844774,-77.444386195046,tremor
81,4933691,0.632,-0.23353965537170043,-0.13006437683079786,0.8911097517321676,11.01756406345451,31.349134847807026,-75.50417645496535,tremor
82,4933696,0.637,-0.22265166659209823,-0.13052550585464848,0.8924230104627072,11.026454571573604,29.989853141234917,-73.43675118169456,tremor
83,4933701,0.642,-0.21190449497800648,-0.13099647635873513,0.8938145118965864,10.980679689125367,28.62099187977973,-71.24540370185403,tremor
84,4933720,0.661,-0.20134455590392267,-0.13148341303119698,0.8952807925708961,10.879153310214262,27.24926883100149,-68.93371281871235,tremor
85,4933725,0.666,-0.19101666412516338,-0.13199213278565533,0.8968181163605983,10.721018388660413,25.880982598146215,-66.50553271468307,tremor
86,4933735,0.676,-0.18096376828787783,-0.13252808755841863,0.8984224645707287,10.505656429508859,24.521969041282983,-63.96498133174862,tremor
87,4933740,0.681,-0.17122671267006329,-0.133096309622069,0.9000895224442126,10.232695913173929,23.17756874113297,-61.316427144694096,tremor
88,4933745,0.686,-0.16184402492114117,-0.13370135883196493,0.9018146633722592,9.902019683248465,21.852604785371753,-58.564474355629784,tremor
89,4933755,0.696,-0.15285172808261183,-0.13434727136115196,0.9035929320843452,9.513771320129596,20.551369882875765,-55.71394665002665,tremor
90,4933764,0.705,-0.14428317506502655,-0.1350375097362266,0.9054190279845148,9.068360499348712,19.277621660458124,-52.7698697529242,tremor
91,4933769,0.71,-0.13616890392461903,-0.13577491435457018,0.9072872896808754,8.56646731023819,18.034584958568143,-49.73745310561331,tremor
92,4933796,0.737,-0.12853651262442906,-0.13656165711572582,0.9091916816895926,8.009045499237505,16.82496001951096,-46.62207104822387,tremor
93,4933801,0.742,-0.12141055240194715,-0.13739919828569938,0.911125784296657,7.397324606325859,15.650935647430282,-43.42924394109367,tremor
94,4933805,0.746,-0.11481243934972675,-0.13828824815268512,0.9130827875832748,6.732810975415973,14.514206670078494,-40.16461968283196,tremor
95,4933815,0.756,-0.10876038431913267,-0.13922873532890884,0.9150554905724454,6.017287627247255,13.415995274490879,-36.83395607927993,tremor
96,4933820,0.761,-0.1032693417571063,-0.14021978362813697,0.9170363062494395,5.252812978148487,12.357075961801414,-33.44310448201277,tremor
97,4933830,0.771,-0.09835097854853612,-0.14125969927946166,0.9190172728244776,4.441718370210268,11.337803956248436,-29.99799504978481,tremor
98,4933835,0.776,-0.09401366431358443,-0.14234596986012668,0.9209900710990334,3.586604351722104,10.358146930280562,-26.50462389536509,tremor
99,4933849,0.79,-0.0902624848391874,-0.1434752758101151,0.922946047277403,2.6903356138014405,9.41771989585754,-22.96904226683725,tremor
100,4933854,0.795,-0.08709928034592593,-0.144643514804752,0.9248762401546051,1.756034452618218,8.515823071625148,-19.397347781596107,tremor
101,4933864,0.805,-0.08452271005818505,-0.1458458386842267,0.9267714114141042,0.7870725928899805,7.651482460307909,-15.795677592708286,tremor
102,4933869,0.81,-0.08252834403551124,-0.14707670213970434,0.9286220778448676,-0.21293881247257337,6.823492748180454,-12.170203235529376,tremor
103,4933874,0.815,-0.08110878245312284,-0.14832992198576744,0.9304185446331922,-1.2401611909278616,6.030461970454701,-8.527126793249813,tremor
104,4933879,0.82,-0.08025380155113657,-0.14959874563030942,0.9321509394298888,-2.2905427275935972,5.270857198217075,-4.872677945537302,tremor
105,4933884,0.825,-0.07995052440105932,-0.1508759272772555,0.9338092475260752,-3.359834830526675,4.543050330087395,-1.2131114302793482,tremor
106,4933889,0.83,-0.08018361357159495,-0.15215381043632584,0.9353833490767274,-4.443610952626585,3.845362942046455,2.4452955460563,tremor
107,4933893,0.834,-0.08093548181473555,-0.15342441543286872,0.9368630597969724,-5.537287784774468,3.1761090755065626,6.096246373179574,tremor
108,4933920,0.861,-0.08218651612799954,-0.15467953077689572,0.9382381768541428,-6.636148779820469,2.533634834338822,9.73342893037008,tremor
109,4933924,0.865,-0.08391531006048263,-0.1559108074340986,0.9394985317457295,-7.735369910437164,1.916353723576057,13.350520570415489,tremor
110,4933929,0.87,-0.08609889898395306,-0.15710985521245985,0.940634051770553,-8.830047503186362,1.3227768019941872,16.94119435727939,tremor
111,4933934,0.875,-0.08871299327539037,-0.15826834060369768,0.9416348312723641,-9.91522792389165,0.7515369364872212,20.49912663300769,tremor
112,4933949,0.89,-0.09173220492671205,-0.15937808547075885,0.9424912131921575,-10.985938815663937,0.20140672293115502,24.01800592312388,tremor
113,4933958,0.899,-0.09513026392336255,-0.1604311659348117,0.9431938806670938,-12.037221515641962,-0.32869005230134984,27.491543140391144,tremor
114,4933963,0.904,-0.09888022169686084,-0.16142001068563044,0.9437339575435761,-13.064164209702552,-0.8396732280543943,30.913483003772203,tremor
115,4933968,0.909,-0.10295463994993811,-0.16233749772608302,0.9441031158223738,-14.061935337903492,-1.33230690675236,34.2776165486566,tremor
116,4933978,0.919,-0.1073257641105237,-0.1631770482820525,0.944293687307933,-15.025816744835769,-1.8072052517714954,37.57779456953507,tremor
117,4933983,0.924,-0.1119656815693378,-0.16393271629229533,0.9442987761532923,-15.951236078399958,-2.2648426452901074,40.80794181293837,tremor
118,4933988,0.929,-0.11684646569151617,-0.16459927157908855,0.9441123686156725,-16.83379797387264,-2.705567334794374,43.96207173319916,tremor
119,4933992,0.933,-0.12194030735064469,-0.1651722745392819,0.9437294361928155,-17.66931361467014,-3.1296176596804735,47.03430164534686,tremor
120,4933997,0.938,-0.12721963636873634,-0.16564814003641948,0.9431460284160882,-18.453828334897352,-3.5371399320693957,50.01886816589232,tremor
121,4934002,0.943,-0.13265723568307963,-0.16602418815730674,0.9423593519405531,-19.18364701805367,-3.9282070504666438,52.91014292317479,tremor
122,4934007,0.948,-0.13822635121139798,-0.16629867964232753,0.9413678331851608,-19.855357146743962,-4.302836970653902,55.70264863363464,tremor
123,4934012,0.953,-0.14390080016775655,-0.1664708341123362,0.9401711626147252,-20.46584946499433,-4.66101027237254,58.39107576039468,tremor
124,4934017,0.958,-0.1496550799324102,-0.1665408296876826,0.9387703197877788,-21.012336319243506,-5.00268626888602,60.97030007464036,tremor
125,4934043,0.984,-0.1554644784723171,-0.1665097832075504,0.9371675794790657,-21.492367830720255,-5.327817423719813,63.4354015090933,tremor
126,4934057,0.998,-0.16130518578198336,-0.16637971097507312,0.9353665004533747,-21.903846099619898,-5.636362250064982,65.78168470912443,tremor
127,4934062,1.003,-0.16715440402896586,-0.16615347071463724,0.9333718996915944,-22.24503763176199,-5.928297307928324,68.00470163326099,tremor
128,4934067,1.008,-0.17299045237248895,-0.1658346861474166,0.9311898158553517,-22.514584107360328,-6.203629264832859,70.10027641968043,tremor
129,4934077,1.018,-0.17879286118991217,-0.16542765619011318,0.9288274663153039,-22.711511496436508,-6.4624081265331395,72.06453252823023,tremor
130,4934081,1.022,-0.18454245000774075,-0.16493725122423775,0.9262932020330231,-22.83523739770582,-6.704742619407722,73.89392192068684,tremor
131,4934091,1.032,-0.19022138387972345,-0.16436879918376468,0.9235964639799473,-22.885576368406724,-6.930818347960176,75.58525579338438,tremor
132,4934096,1.037,-0.19581320417238104,-0.1637279644050106,0.9207477437044372,-22.86274294227646,-7.140918839568673,77.13573615580722,tremor
133,4934101,1.042,-0.20130283149111003,-0.1630206223035714,0.9177585492780682,-22.76735200988774,-7.335449012759484,78.54298737663338,tremor
134,4934110,1.051,-0.20667654055511503,-0.16225273299953433,0.9146413763445644,-22.60041625650336,-7.514960050852341,79.80508670665486,tremor
135,4934115,1.056,-0.2119219089582821,-0.16143021699993904,0.9114096825377879,-22.3633404064929,-7.6801742093275225,80.92059273769924,tremor
136,4934120,1.061,-0.21702774371948474,-0.1605588359565842,0.9080778622869876,-22.05791209736014,-7.83200779578363,81.88857076422586,tremor
137,4934125,1.066,-0.22198399115925327,-0.15964408133827857,0.9046612181138247,-21.686289290299598,-7.971590470823601,82.70861407722587,tremor
138,4934130,1.071,-0.2267816368199986,-0.15869107358586196,0.9011759240307107,-21.250984212558397,-8.100279120259332,83.38086033702663,tremor
139,4934135,1.076,-0.23141260280492107,-0.15770447396247628,0.8976389766086716,-20.754843920080635,-8.219664797935446,83.90600233635858,tremor
140,4934140,1.081,-0.2358696500165565,-0.15668841088864482,0.8940681296846833,-20.201027671634314,-8.33157157933155,84.2852926660562,tremor
141,4934167,1.108,-0.24014629232017926,-0.15564642208788007,0.8904818094795925,-19.59298142195054,-8.438046565736238,84.52054202047118,tremor
142,4934171,1.112,-0.24423672864841858,-0.15458141339361747,0.8868990080267573,-18.934409866042092,-8.541340726984531,84.61411111315402,tremor
143,4934176,1.117,-0.24813579754827886,-0.15349563461100774,0.8833391541630254,-18.229246577338373,-8.643880761807369,84.56889639152648,tremor
144,4934186,1.127,-0.25183895675891893,-0.15239067240831572,0.8798219627707283,-17.48162284564935,-8.748232673930195,84.38830991187372,tremor
145,4934191,1.132,-0.2553422882726356,-0.15126745983779563,0.8763672643414651,-16.69583581803752,-8.857058283448177,84.07625384560488,tremor
146,4934200,1.141,-0.2586425271919968,-0.1501263017442637,0.8729948181520492,-15.876316486818999,-8.97306638362873,83.6370901433569,tremor
147,4934210,1.151,-0.26173711077845163,-0.14896691499546516,0.8697241133367554,-15.027597980761318,-9.09896067453928,83.07560590931429,tremor
148,4934215,1.156,-0.26462424257938544,-0.1477884821573739,0.8665741628726908,-14.154284516916777,-9.23738691140411,82.39697505223161,tremor
149,4934220,1.161,-0.26730296553698774,-0.14658971695544376,0.863563295941697,-13.26102126532047,-9.390881847670135,81.60671678673859,tremor
150,4934225,1.166,-0.2697732375549205,-0.14536893963837386,0.8607089542752282,-12.352465265667773,-9.561826490940543,80.7106515557873,tremor
151,4934229,1.17,-0.27203600308517917,-0.14412416021835145,0.858027497927834,-11.43325741842929,-9.752405915485811,79.71485492932989,tremor
152,4934234,1.175,-0.2740932548092755,-0.14285316750635085,0.85553402548492,-10.507995465226038,-9.964577414915013,78.62561000496356,tremor
153,4934239,1.18,-0.27594808032629253,-0.1415536218787554,0.8532422130366089,-9.581207790080077,-10.20004817783012,77.44935879648125,tremor
154,4934244,1.185,-0.277604689844075,-0.1402231497776894,0.8511641753957977,-8.6573278264213,-10.460262971403884,76.19265305291526,tremor
155,4934249,1.19,-0.27906842214430766,-0.13885943803611012,0.8493103520603187,-7.740668851949196,-10.746401561232176,74.86210491322392,tremor
156,4934258,1.199,-0.2803457275254767,-0.1374603262087368,0.8476894193724951,-6.835398999951548,-11.059384821270937,73.46433777994324,tremor
157,4934263,1.204,-0.28144412799858687,-0.13602389516927246,0.8463082292739217,-5.945516415213606,-11.399887743031346,72.00593779712396,tremor
158,4934290,1.231,-0.2823721566878157,-0.1345485503049973,0.8451717740569736,-5.0748246335715,-11.768356893166896,70.49340635019816,tremor
159,4934295,1.236,-0.2831392800868508,-0.13303309772176178,0.8442831756556828,-4.226908452704913,-12.16502936329704,68.93311407045762,tremor
160,4934300,1.241,-0.2837558083438879,-0.13147681200292446,0.8436436973767388,-3.4051107563634364,-12.58995000824482,67.33125691591604,tremor
161,4934305,1.246,-0.2842327997852215,-0.12987949428502935,0.8432527756042867,-2.6125109103023623,-13.042983892511371,65.69381499083681,tremor
162,4934310,1.251,-0.28458196614194264,-0.12824151973757905,0.8431080689294908,-1.8519054277879592,-13.523821402226371,64.02651483207539,tremor
163,4934315,1.256,-0.28481558429013404,-0.12656387393828333,0.8432055223100615,-1.1257915921437194,-14.031974351984337,62.33479591637221,tremor
164,4934319,1.26,-0.28494641883853317,-0.12484817805874739,0.8435394441715311,-0.4363546325351753,-14.566762480117616,60.623782125303656,tremor
165,4934329,1.27,-0.28498765781804813,-0.12309670315168582,0.8441025947321217,0.21454110460248738,-15.127290859497968,58.89825884220053,tremor
166,4934334,1.275,-0.2849528613130009,-0.1213123741066421,0.8448862841933452,0.825356741184135,-15.712419859288005,57.16265624383432,tremor
167,4934339,1.28,-0.28485592041505503,-0.11949876398629578,0.8458804797339727,1.3948791744366213,-16.320730272151565,55.42103918690409,tremor
168,4934344,1.285,-0.28471102168362,-0.11766007946446781,0.8470739204368163,1.922217271945577,-16.950486955458803,53.677103880801994,tremor
169,4934349,1.29,-0.28453261064823876,-0.11580113798256543,0.8484542393453994,2.406794296395753,-17.59960473460664,51.93418129751954,tremor
170,4934354,1.295,-0.28433534699966484,-0.11392733707117358,0.8500080917916643,2.8483370419068326,-18.265620344022977,50.19524701504748,tremor
171,4934358,1.299,-0.2841340440894025,-0.11204461610865524,0.8517212889739191,3.246862268292933,-18.945673836805938,48.46293694079687,tremor
172,4934364,1.305,-0.28394358620372323,-0.11015941066770067,0.8535789355220232,3.6026610843558813,-19.63650219194008,46.739568134995075,tremor
173,4934378,1.319,-0.283778818753499,-0.10827859957953043,0.8555655694931608,3.9162819487772995,-20.334446818319073,45.02716377055134,tremor
174,4934388,1.329,-0.28365440894335137,-0.1064094449513949,0.8576653029323618,4.188512919476564,-21.035475367410253,43.327481144795975,tremor
175,4934414,1.355,-0.28358467751336974,-0.10455952561144197,0.8598619608616677,4.420363685139024,-21.73521686480483,41.642041614319965,tremor
176,4934418,1.359,-0.2835834055229416,-0.1027366648031407,0.8621392164084594,4.613047760409566,-22.429007882995407,39.97216136435681,tremor
177,4934423,1.364,-0.2836636234104938,-0.10094885335411367,0.864480719827914,4.767965040483323,-23.11194656974023,38.31898204657223,tremor
178,4934433,1.374,-0.2838373920996432,-0.09920416992331879,0.8668702194596735,4.8866847301156024,-23.778951012771564,36.683500507108796,tremor
179,4934438,1.379,-0.28411558719053703,-0.09751070021036182,0.8692916731607782,4.970928525022441,-24.4248186744708,35.066597048219414,tremor
180,4934443,1.384,-0.2845076970645557,-0.09587645714021731,0.8717293493922762,5.02255385105142,-25.044284299499598,33.469061883266455,tremor
181,4934448,1.389,-0.2850216442055597,-0.09430930399167199,0.8741679177967323,5.043536960568223,-25.632074558759076,31.891619625121045,tremor
182,4934452,1.393,-0.2856636365886113,-0.09281688221431496,0.8765925296916756,5.035955736737681,-26.182958583160435,30.334951776291195,tremor
183,4934457,1.398,-0.28643805305230535,-0.09140654529112388,0.8789888893588003,5.001972146182024,-26.69179437710196,28.79971726238134,tremor
184,4934462,1.403,-0.2873473635658751,-0.09008529948418369,0.8813433173059618,4.943814384398544,-27.1535718319644,27.286571071371114,tremor
185,4934467,1.408,-0.288392082569757,-0.0888597516964455,0.8836428068191616,4.863758853598427,-27.56345363175526,25.796181035684725,tremor
186,4934486,1.427,-0.2895707513713473,-0.08773606404936098,0.8858750751195834,4.764112185530888,-27.916815701452776,24.329242734323202,tremor
187,4934491,1.432,-0.2908799441114796,-0.08671991418441943,0.8880286103206028,4.647193569381643,-28.209288941313684,22.88649241695531,tremor
188,4934500,1.441,-0.2923142912302733,-0.0858164598359426,0.8900927151724868,4.515317668758807,-28.436803765881887,21.468717779395828,tremor
189,4934505,1.446,-0.29386651474978454,-0.08503030599405645,0.8920575483201209,4.370778409815486,-28.595638393505226,20.076766363067502,tremor
190,4934510,1.451,-0.29552747104580246,-0.08436547305349061,0.8939141635050584,4.215833887247272,-28.682470955831313,18.71155131689599,tremor
191,4934537,1.478,-0.2972861989355395,-0.08382536472832322,0.8956545468271455,4.052692561833049,-28.69443446529424,17.374054253968435,tremor
192,4934542,1.483,-0.29912997354094356,-0.08341273513244704,0.8972716518465356,3.8835008196006915,-28.62917269642932,16.065324964121352,tremor
193,4934546,1.487,-0.3010443690531103,-0.08312965516067451,0.8987594319701502,3.7103318495985196,-28.484894300508884,14.786477816265371,tremor
194,4934551,1.492,-0.303013335706321,-0.08297747902314513,0.9001128692664104,3.535175702693193,-28.260422124816543,13.538684805117247,tremor
195,4934556,1.497,-0.30501929752645984,-0.08295681237461208,0.9013279986362988,3.3599303394755746,-27.955234782372003,12.323165354613728,tremor
196,4934561,1.502,-0.3070432775409734,-0.08306748387771512,0.9024019261689002,3.186393467055223,-27.56949792408755,11.14117315608185,tremor
197,4934566,1.507,-0.309065056186345,-0.0833085222317073,0.903332840528639,3.0162549951129454,-27.104083256217045,9.993980464161611,tremor
198,4934571,1.512,-0.31106336684056524,-0.08367814069707416,0.9041200163419785,2.8510899992430416,-26.560574004922287,8.882860383476558,tremor
199,4934576,1.517,-0.3130161300053848,-0.08417373096999567,0.9047638087468786,2.692352151198518,-25.941256191348877,7.809067753050969,tremor
200,4934581,1.522,-0.3149007249387093,-0.08479186792855066,0.9052656385094618,2.541367646652952,-25.24909570799583,6.773819274926968,tremor
201,4934586,1.527,-0.31669429476675826,-0.08552832631030327,0.9056279673702091,2.3993297183404843,-24.48770175619454,5.778273537984021,tremor
202,4934591,1.532,-0.3183740785488538,-0.08637810982266354,0.9058542635314977,2.267293858550698,-23.66127770065126,4.823511557708235,tremor
203,4934596,1.537,-0.31991776164196567,-0.08733549257666627,0.9059489574207853,2.1461738897138707,-22.774560814765316,3.9105183910829884,tremor
204,4934601,1.542,-0.3213038341732002,-0.08839407212131481,0.9059173880482227,2.0367390191057466,-21.83275272945481,3.040166300306464,tremor
205,4934605,1.546,-0.3225119465694952,-0.08954683279092185,0.9057657404206033,1.9396119977943376,-20.84144265669782,2.2131998392755805,tremor
206,4934610,1.551,-0.32352325095108125,-0.090786217611229,0.9055009745793422,1.8552684786633393,-19.806525630709178,1.4302231318355632,tremor
207,4934615,1.556,-0.3243207177497472,-0.09210420668368248,0.9051307469093722,1.7840376382145153,-18.73411808833577,0.6916895079002393,tremor
208,4934620,1.561,-0.32488941808843763,-0.09349239980878436,0.9046633244342341,1.726104097227791,-17.63047309542129,-0.002106431712196887,tremor
209,4934625,1.566,-0.3252167641266677,-0.09494210112551144,0.9041074928879402,1.6815111507882328,-16.501897422450533,-0.6510343343552869,tremor
210,4934630,1.571,-0.32529270157527235,-0.09644440371932218,0.9034724594522382,1.6501653004951367,-15.354672484388164,-1.2551312813413307,tremor
211,4934634,1.575,-0.3251098507468737,-0.09799027245488691,0.9027677511793685,1.631842069085612,-14.194980884521376,-1.8146027821924409,tremor
212,4934660,1.601,-0.32466359468216127,-0.09957062368003343,0.9020031102882476,1.626193065738136,-13.028839939348229,-2.3298217706059283,tremor
213,4934665,1.606,-0.3239521149424111,-0.10117640087660361,0.9011883877177339,1.6327542539453452,-11.862043127216678,-2.8013258402052594,tremor
214,4934669,1.61,-0.3229763774627195,-0.10279864574894708,0.9003334365187659,1.6509553499267504,-10.70010994398113,-3.229812990614021,tremor
215,4934674,1.615,-0.3217400723082103,-0.10442856458998126,0.8994480068251932,1.6801302487292735,-9.548244232212843,-3.616136165024591,tremor
216,4934679,1.62,-0.3202495121967726,-0.10605759001322636,0.8985416442160451,1.7195283423589247,-8.411300732962461,-3.961296843988881,tremor
217,4934689,1.63,-0.31851349524327166,-0.10767743828134155,0.8976235932431474,1.7683265666920542,-7.293759409665296,-4.266437920495584,tremor
218,4934694,1.635,-0.31654313759447833,-0.10928016251583718,0.8967027077469804,1.825641997296399,-6.199706998639133,-4.532836028001557,tremor
219,4934713,1.654,-0.31435168153179494,-0.11085820206348367,0.8957873693378542,1.8905448105194984,-5.132825223420984,-4.76189343501859,tremor
220,4934718,1.659,-0.31195428428433913,-0.11240442824056125,0.8948854151049194,1.962071432898103,-4.096385141963177,-4.955129563951535,tremor
221,4934723,1.664,-0.3093677922811771,-0.11391218658678706,0.8940040752658193,2.0392377131189727,-3.0932471441447746,-5.114172143920314,tremor
222,4934728,1.669,-0.3066105049540868,-0.11537533564418025,0.8931499211259147,2.1210519590554324,-2.1258661499198763,-5.24074797202136,tremor
223,4934733,1.674,-0.3037019315665549,-0.11678828214237505,0.8923288234175664,2.2065276833506164,-1.1963015548377558,-5.336673236845876,tremor
224,4934738,1.679,-0.30066254396797465,-0.118146012335034,0.8915459208627873,2.2946958956666648,-0.30623142753841315,-5.403843350371979,tremor
225,4934742,1.683,-0.2975135277090653,-0.11944411910813053,0.8908055986543794,2.3846167724873513,0.5430296053621456,-5.44422223603313,tremor
226,4934747,1.688,-0.29427653363640693,-0.12067882438490422,0.8901114764763282,2.4753905302504036,1.3505094330303515,-5.459831029042554,tremor
227,4934752,1.693,-0.29097343192218333,-0.1218469962957477,0.8894664056722561,2.566167327051157,2.11555521935351,-5.452736158745793,tremor
228,4934757,1.698,-0.2876260704750974,-0.12294616057118463,0.8888724752060514,2.6561560239591424,2.837808641835005,-5.425036801657812,tremor
229,4934782,1.723,-0.2842560398004363,-0.1239745056545843,0.8883310261230374,2.744631650533983,3.5171804512728304,-5.378851717929109,tremor
230,4934787,1.728,-0.28088444659325673,-0.12493088111517985,0.8878426742906501,2.8309414414868628,4.153825206272109,-5.316305513005161,tremor
231,4934797,1.738,-0.27753169859305693,-0.12581478906220145,0.8874073412467594,2.914509343635946,4.748117002960714,-5.239514399021354,tremor
232,4934802,1.743,-0.2742173034100994,-0.12662636840315056,0.8870242929820508,2.994838934535697,5.300626925975902,-5.150571564694986,tremor
233,4934806,1.747,-0.2709596840656097,-0.12736637193782804,0.88669218640991,3.071514743644707,5.812102790233254,-5.051532295332197,tremor
234,4934811,1.752,-0.26777601382558147,-0.1280361364233887,0.8864091231319863,3.144202017664148,6.283451540437352,-4.944399013721067,tremor
235,4934816,1.757,-0.2646820725595307,-0.12863754588003434,0.8861727099072725,3.212645017841276,6.715724451409575,-4.831106436711951,tremor
236,4934821,1.762,-0.26169212636344763,-0.12917298853293077,0.8859801250022731,3.2766639759372884,7.110105047232042,-4.71350706067452,tremor
237,4934831,1.772,-0.2588188316021074,-0.12964530790681197,0.8858281893641562,3.3361508674132816,7.467899443806735,-4.59335720187348,tremor
238,4934836,1.777,-0.2560731638999399,-0.13005774870888906,0.8857134413390216,3.3910641859034434,7.790528627822824,-4.472303825478115,tremor
239,4934850,1.791,-0.25346437198886795,-0.13041389825520697,0.8856322134718814,3.441422922093731,8.079522026239495,-4.351872399766486,tremor
240,4934855,1.796,-0.2509999557500124,-0.13071762431498815,0.8855807097890013,3.487299961696274,8.336511606668122,-4.2334560100875835,tremor
241,4934860,1.801,-0.24868566730287772,-0.1309730103624868,0.8855550818889719,3.528815119702307,8.563225693254813,-4.118305959427209,tremor
242,4934865,1.806,-0.24652553362973356,-0.1311842893284726,0.8855515021642039,3.5661280203456465,8.761481694082972,-4.00752406757322,tremor
243,4934870,1.811,-0.2445218989886211,-0.1313557770242424,0.8855662325416681,3.599431015263302,8.933177014921384,-3.9020568584053965,tremor
244,4934880,1.821,-0.24267548526253538,-0.13149180646220837,0.8855956872659416,3.628942309633192,9.080277570775518,-3.8026917960460107,tremor
245,4934905,1.846,-0.24098546839714546,-0.13159666431392003,0.8856364884387858,3.654899440958932,9.204803489136221,-3.710055697480303,tremor
246,4934910,1.851,-0.23944956916817703,-0.13167453072644464,0.8856855132649415,3.6775532287538764,9.30881181875154,-3.6246154128246055,tremor
247,4934915,1.856,-0.23806415665967198,-0.13172942365998763,0.8857399322202643,3.6971622850032952,9.394376306978799,-3.5466808246817294,tremor
248,4934925,1.866,-0.2368243629897826,-0.1317651488135627,0.8857972376418491,3.71398814456215,9.46356457165372,-3.476410175018888,tremor
249,4934930,1.871,-0.23572420795851173,-0.13178525607483885,0.885855262526642,3.7282910427850307,9.518413246381158,-3.4138176824011963,tremor
250,4934935,1.876,-0.23475673238852596,-0.13179300327248417,0.8859121896034194,3.7403263374688893,9.560901896853204,-3.3587833652145513,tremor
251,4934940,1.881,-0.23391413897322189,-0.1317913278338252,0.8859665510043446,3.7503415468085524,9.59292667200039,-3.3110649387361692,tremor
252,4934944,1.885,-0.23318793943075375,-0.13178282676560726,0.8860172191010439,3.7585739565755527,9.61627475791438,-3.2703116066756124,tremor
253,4934949,1.89,-0.2325691066895291,-0.13176974518616694,0.8860633892831281,3.7652487382756736,9.632600742617983,-3.2360795222039926,tremor
