sample,t_ms,t_s,ax,ay,az,gx,gy,gz,tremor
0,8172830,0.0,-0.45556544249175673,-0.11944295968763925,0.7843493477123694,8.662387579882859,-1.1932912075848026,1.1645869899859875,no_tremor
1,8172841,0.011,-0.4547033734900569,-0.11878803306824011,0.7853297609952269,11.57084758718861,-3.1752894323245515,1.5356928703720616,no_tremor
2,8172852,0.022,-0.4536860359692831,-0.11786043228643185,0.7874803373514316,14.121867852361936,-5.10525775998223,1.8508533040465645,no_tremor
3,8172864,0.034,-0.4526245801830944,-0.11666753689306467,0.791506960522071,16.123798364675366,-6.968047007308734,2.0816690398836264,no_tremor
4,8172875,0.045,-0.4516991156740735,-0.11530111433358002,0.7981053733711432,17.38344145520112,-8.74701964705016,2.198831318128056,no_tremor
5,8172886,0.056,-0.4510988397763145,-0.11391327695757052,0.8078418779515748,17.712915562440312,-10.423877250580054,2.173202053787182,no_tremor
6,8172897,0.067,-0.45097975860667655,-0.11268562636207727,0.8210994770163168,16.937031567091147,-11.978717916907835,1.9770102872932165,no_tremor
7,8172908,0.078,-0.45144639591175645,-0.11180719047347878,0.8380636990540157,14.900966948422159,-13.390349501490304,1.5851308057439975,no_tremor
8,8172920,0.09,-0.4525481867871371,-0.11146227038347202,0.8587229117166943,11.477980755145323,-14.636862037954835,0.9764041686987173,no_tremor
9,8172951,0.121,-0.4542817977913173,-0.11182467457148391,0.8828706917195566,6.576873330586265,-15.696437861285707,0.13495196651267058,no_tremor
10,8172962,0.132,-0.45659475518705767,-0.11305497825630534,0.9101077622633565,0.1488619379555624,-16.54835007095515,-0.9485626556446627,no_tremor
11,8173007,0.177,-0.45938887568200376,-0.11529880112409131,0.9398453651207862,-7.806479379723011,-17.17406932883792,-2.2757816624758105,no_tremor
12,8173018,0.188,-0.4625235172178124,-0.11868518726517276,0.9713128201961788,-17.236575679386927,-17.558369436344332,-3.839660309135334,no_tremor
13,8173029,0.199,-0.4658191870910966,-0.12332477749810805,1.003571507257477,-28.03285043940829,-17.690303863807255,-5.623693270709644,no_tremor
14,8173072,0.242,-0.4690620942888974,-0.12930773838052037,1.0355366348179833,-40.029676273898616,-17.563931771292506,-7.601417487513624,no_tremor
15,8173083,0.253,-0.4720100971756238,-0.13670151834081287,1.066007310131621,-53.00551427829446,-17.178709092070086,-9.736251121908841,no_tremor
16,8173095,0.265,-0.4744002999995248,-0.1455485389132861,1.0937046669951065,-66.68638243003304,-16.539518973776364,-11.981723779498788,no_tremor
17,8173106,0.276,-0.47595834352678235,-0.15586394523799968,1.117317135219242,-80.75168294127215,-15.65637724524488,-14.282141478389601,no_tremor
18,8173117,0.287,-0.476409239461393,-0.16763355391746615,1.1355513364659717,-94.84230635401258,-14.543895118126697,-16.57370977316297,no_tremor
19,8173128,0.298,-0.4754894266150766,-0.18081215360275027,1.147186573259042,-108.57082161584816,-13.220603334172331,-18.786110673574004,no_tremor
20,8173139,0.309,-0.47295958625858503,-0.1953223318984233,1.1511304641959446,-121.53345573176676,-11.70823731329671,-20.84449617104848,no_tremor
21,8173150,0.32,-0.46861765014149237,-0.21105401246541827,1.1464729976122683,-133.32346300906048,-10.031056690925324,-22.671827575325416,no_tremor
22,8173195,0.365,-0.4623113704814555,-0.22786487492978583,1.132536153483223,-143.54538469530104,-8.215236920204022,-24.191460296788048,no_tremor
23,8173206,0.376,-0.45394979696420623,-0.2455817846377055,1.1089162954565615,-151.82961212985828,-6.288339434287973,-25.329852755168563,no_tremor
24,8173218,0.388,-0.4435130190714605,-0.26400327803200313,1.0755167693426293,-157.84660429742,-4.278849214918514,-26.01926959156396,no_tremor
25,8173229,0.399,-0.4310595793741137,-0.2829030491303937,1.032568561309013,-161.32009014571562,-2.2157647144025456,-26.200354802311775,no_tremor
26,8173240,0.41,-0.41673104195626354,-0.3020342904588925,0.9806374569960874,-162.03861413204967,-0.12822829582386774,-25.824467375277248,no_tremor
27,8173263,0.433,-0.4007533088575856,-0.32113467886355584,0.9206168726047997,-159.86485541106805,1.9548125780752528,-24.855696267932988,no_tremor
28,8173274,0.444,-0.3834344165470392,-0.33993176973424016,0.8537063507822709,-154.74226352322722,4.004926608098026,-23.272500901311894,no_tremor
29,8173330,0.5,-0.3651587121034966,-0.3581485713574567,0.7813765581524028,-146.6987085807592,5.994521869281243,-21.068955697396746,no_tremor
30,8173341,0.511,-0.34637749544185725,-0.37550911113698837,0.7053224043175998,-135.84703077760466,7.897191835784545,-18.25560494550408,no_tremor
31,8173375,0.545,-0.327596398197305,-0.39174386450485443,0.6274065409242584,-122.38255550424982,9.688094521503702,-14.859945976923028,no_tremor
32,8173386,0.556,-0.3093599240718479,-0.4065949692237787,0.5495959305864417,-106.57777415912302,11.344352774546753,-10.926548927008213,no_tremor
33,8173397,0.567,-0.2922336839515274,-0.41982117221668175,0.47389437495228126,-88.77446410533045,12.845439636344135,-6.5167968276099275,no_tremor
34,8173408,0.578,-0.27678493284581923,-0.43120246050570593,0.40227388136804565,-69.37355763230651,14.17349995450282,-1.7082040593417294,no_tremor
35,8173441,0.611,-0.26356208120552127,-0.4405443358226019,0.3366075834942247,-48.823102527034,15.313564264367171,3.406743798879947,no_tremor
36,8173452,0.622,-0.25307392459831013,-0.44768171302478776,0.2786066739150169,-27.604701231177756,16.253630016043303,8.722284936772825,no_tremor
37,8173463,0.633,-0.2457694013146307,-0.45248244199975807,0.22976350256482447,-6.218863375453596,16.98461343156913,14.121652009989864,no_tremor
38,8173475,0.645,-0.24201872380141942,-0.4548504523300001,0.19130266974023724,14.830260049443039,17.500209690758624,19.479933032534625,no_tremor
39,8173486,0.656,-0.24209672482942077,-0.45472849188836545,0.1641416089860502,35.05028177095889,17.796733294199612,24.667501669827843,no_tremor
40,8173519,0.689,-0.2461692179664374,-0.4521003808917725,0.14886182019963567,53.975646393054596,17.873030399773892,29.55395335799681,no_tremor
41,8173530,0.7,-0.2542831002305683,-0.4469926457006128,0.145691579172519,71.181888247729,17.730546306629996,34.01243565675056,no_tremor
42,8173574,0.744,-0.26636081391055394,-0.43947534620118567,0.1545006107883585,86.29860633911107,17.373590732524672,37.9242120644467,no_tremor
43,8173596,0.766,-0.282199617991356,-0.4296618780702904,0.1748068612893661,99.02069498537536,16.80978214863581,41.18325309043516,no_tremor
44,8173608,0.778,-0.30147589800044994,-0.41770752646454845,0.20579514717942665,109.11740374504575,16.05058889784022,43.700612448887,no_tremor
45,8173619,0.789,-0.32375449409836093,-0.40380658288479443,0.24634712042973567,116.4388622744381,15.111837898758866,45.40832754748553,no_tremor
46,8173642,0.812,-0.3485027844758526,-0.38818792285180476,0.2950816880892008,120.91978929402825,14.014046061530609,46.26258926953407,no_tremor
47,8173653,0.823,-0.37510903876739893,-0.37110907623320993,0.350404733130986,122.58020149798554,12.782449246633979,46.24595697278962,no_tremor
48,8173685,0.855,-0.402904349893793,-0.3528489834856061,0.410566649798216,121.52304078362883,11.446646623866753,45.3684432245141,no_tremor
49,8173719,0.889,-0.4311872562955875,-0.3336997909008085,0.47372580972661543,117.92874343881618,10.039825270624007,43.667351725881716,no_tremor
50,8173730,0.9,-0.4592499812423221,-0.31395817512392155,0.5380156542195822,112.04688815297673,8.597574705568103,41.205822234718354,no_tremor
51,8173809,0.979,-0.4864050541986318,-0.2939167855231869,0.6016127247069523,104.18519526543146,7.156355186450784,38.07012405625058,no_tremor
52,8173820,0.99,-0.512010968616303,-0.27385642506990476,0.6628026340341858,94.69631782756372,5.751752139633908,34.36584174967582,no_tremor
53,8173831,1.001,-0.5354955096444942,-0.2540395222323153,0.7200407797448778,83.96304945253063,4.416711041773486,30.213192834228792,no_tremor
54,8173854,1.024,-0.5563754882013398,-0.2347052680093696,0.7720045919164347,72.38272711302673,3.179968407747203,25.741781043706915,no_tremor
55,8173876,1.046,-0.5742718563967041,-0.2160665385811907,0.8176344076887467,60.35167873579988,2.0648574172572944,21.085108695032968,no_tremor
56,8173942,1.112,-0.588919530557321,-0.1983084629772436,0.8561607309677871,48.25053744202332,1.088584628423687,16.37515910349044,no_tremor
57,8173976,1.146,-0.6001716544945601,-0.18158829498887807,0.8871166183567849,36.43113813696618,0.26198375459102324,11.73733310802015,no_tremor
58,8173987,1.157,-0.6079984248903926,-0.1660361499298653,0.9103350871709487,25.205564593656423,-0.410312715436986,7.285989940780695,no_tremor
59,8174009,1.179,-0.6124809179950278,-0.15175617443723452,0.9259325790984235,14.837748596803047,-0.9293743601310407,3.120797355409014,no_tremor
60,8174021,1.191,-0.6138005859110222,-0.13882780769216793,0.9342804581730668,5.537842919412418,-1.3012439158850033,-0.6759644930481941,no_tremor
61,8174064,1.234,-0.6122252473252588,-0.12730692518465309,0.9359671663157515,-2.540594243695819,-1.5360704972056805,-4.041071894347091,no_tremor
62,8174075,1.245,-0.608092502921821,-0.11722678950671923,0.9317539822617196,-9.30073541562534,-1.6471824591271238,-6.930998435886565,no_tremor
63,8174098,1.268,-0.6017915649848969,-0.10859883800127235,0.9225273711600313,-14.700210792170191,-1.6501597805355293,-9.321594223760158,no_tremor
64,8174109,1.279,-0.5937444943782899,-0.10141340421227646,0.9092507364384581,-18.746795839054624,-1.5619499249642017,-11.206925302730312,no_tremor
65,8174120,1.29,-0.5843877793502605,-0.0956405006652518,0.8929180541105551,-21.492490237861784,-1.400058316857298,-12.59743433694326,no_tremor
66,8174131,1.301,-0.5741550768960422,-0.09123079044892139,0.874511435589758,-23.02644473494699,-1.181833981192184,-13.517604634665002,no_tremor
67,8174143,1.313,-0.5634617867606226,-0.0881168517918275,0.8549641752789497,-23.467189393809793,-0.9238623768645309,-14.003313739983087,no_tremor
68,8174175,1.345,-0.5526919589093613,-0.08621480206051997,0.8351303356862214,-22.954591511550625,-0.6414718210066171,-14.099053309153675,no_tremor
69,8174198,1.368,-0.5421878604687534,-0.08542630426728991,0.8157614403799491,-21.641929542125386,-0.3483570172692489,-13.85517235703842,no_tremor
70,8174209,1.379,-0.5322423569748772,-0.08564093758017152,0.7974904089651287,-19.688414979394775,-0.056320984938314625,-13.325274438701666,no_tremor
71,8174220,1.39,-0.523094104308959,-0.08673887843408748,0.7808224941967405,-17.25243111431953,0.2248673619289256,-12.563868936665273,no_tremor
72,8174231,1.401,-0.5149254115184068,-0.08859381355758078,0.7661326784311961,-14.48568970958243,0.4875091239339675,-11.624345161426616,no_tremor
73,8174242,1.412,-0.5078625281310502,-0.09107599139329497,0.7536687599101995,-11.528437558574335,0.725920685318469,-10.557307967458952,no_tremor
74,8174253,1.423,-0.5019780348674484,-0.094055312359671,0.743559209825889,-8.505778251954588,0.9363085811150802,-9.409287189479471,no_tremor
75,8174265,1.435,-0.4972949712989084,-0.09740435769886961,0.735824803886217,-5.525114163995025,1.116594729617559,-8.22181192867682,no_tremor
76,8174296,1.466,-0.49379231303364635,-0.10100125806042896,0.730393016427345,-2.674663024615851,1.2662097829702663,-7.0308250584563305,no_tremor
77,8174307,1.477,-0.4914114095322099,-0.1047323055697878,0.7271141972090042,-0.022963885779822585,1.3858674208962876,-5.866402750852973,no_tremor
78,8174318,1.488,-0.49006300809086945,-0.10849421868100886,0.7257786183195442,2.380741800209593,1.4773278149348261,-4.752737395872663,no_tremor
79,8174341,1.511,-0.48963451756865384,-0.11219598023711085,0.7261335723166341,4.505388394239317,1.5431560750487379,-3.708339123931575,no_tremor
80,8174352,1.522,-0.48999720482710085,-0.11576018678380452,0.72789981660637,6.336370396407958,1.5864817685634933,-2.74641045894607,no_tremor
81,8174363,1.533,-0.4910130643476917,-0.11912386974662605,0.7307867862438391,7.873385231640288,1.6107675125460885,-1.8753496715075488,no_tremor
82,8174374,1.544,-0.4925411528748169,-0.12223877416967036,0.7345061290828635,9.127986153485239,1.6195961728957358,-1.0993406691102259,no_tremor
83,8174385,1.555,-0.4944432318969845,-0.12507110662894702,0.7387832450485624,10.120990691850935,1.6164856601991846,-0.4189906450545479,no_tremor
84,8174397,1.567,-0.4965886077097755,-0.1276007894715243,0.7433666299562691,10.879878783989092,1.6047375159407802,0.16801879593014657,no_tremor
85,8174427,1.597,-0.4988580993100445,-0.12982028214166716,0.748034932263107,11.436298815651357,1.587321752851664,0.6662959771101158,no_tremor
86,8174449,1.619,-0.5011470977868561,-0.1317330501643922,0.7526017287307027,11.82378021965449,1.5667973375769837,1.082142199721334,no_tremor
