sample,t_ms,t_s,ax,ay,az,gx,gy,gz,tremor
0,8352215,0.0,-0.36631097594798256,-0.039831709284812625,0.8397404013207117,5.454278383428995,4.23493841975057,-2.473335761567733,tremor
1,8352224,0.009,-0.3668038444727331,-0.0398457251901907,0.8407461960872878,4.6653594363519035,3.222457911613221,-2.4821276990111216,tremor
2,8352254,0.039,-0.3674867001016636,-0.03988812077439544,0.8421692760562233,3.8312446579060198,2.176665666512031,-2.5174620039453357,tremor
3,8352259,0.044,-0.36837499214957,-0.039977134158119515,0.8440642344966806,2.9520495026947184,1.0979814102928132,-2.581174870376021,tremor
4,8352269,0.054,-0.3694486428979697,-0.04013148530589898,0.8464148477301899,2.0280969813643046,-0.012598711408673694,-2.67491111368012,tremor
5,8352279,0.064,-0.3706682528768855,-0.04036782467198315,0.8491629128903838,1.0599256515130984,-1.1534452510185347,-2.800095705428785,tremor
6,8352283,0.068,-0.3719904639331684,-0.0407001631815505,0.8522379775487213,0.04829629400103781,-2.322248948732883,-2.9579073247405274,tremor
7,8352288,0.073,-0.3733763134294604,-0.041140361123091614,0.8555744645195097,-1.005802942826952,-3.5159863256230475,-3.1492544214850913,tremor
8,8352293,0.078,-0.3747939656114615,-0.041698863757904985,0.8591179126903151,-2.101153149579303,-4.730898795578303,-3.374754247596322,tremor
9,8352298,0.083,-0.37621849013581105,-0.0423853023233953,0.862825170305609,-3.236303227243187,-5.962486336596457,-3.63471526017949,tremor
10,8352308,0.093,-0.3776305840743256,-0.04320887568550451,0.8666622164052546,-4.409570624597826,-7.205516336391355,-3.9291232342479816,tremor
11,8352313,0.098,-0.37901518623555697,-0.0441785489905512,0.8706015524716767,-5.619044417945504,-8.4540477628587,-4.2576313451530865,tremor
12,8352328,0.113,-0.3803603334658655,-0.045303129742930874,0.8746199418960048,-6.862590875146394,-9.70147032077621,-4.619554394657482,tremor
13,8352342,0.127,-0.3816563231757455,-0.04659127111780436,0.8786966912355557,-8.137861606590684,-10.940557760750984,-5.013867265475871,tremor
14,8352347,0.132,-0.38289514026642535,-0.048051435860009525,0.8828124336747574,-9.44230436633653,-12.163534034454033,-5.439207602150612,tremor
15,8352352,0.137,-0.38407008236993323,-0.04969184097185669,0.8869483089891368,-10.77317652989951,-13.362150583278382,-5.893882634789811,tremor
16,8352378,0.163,-0.38517552350543677,-0.05152039476802628,0.8910854348633761,-12.127561238818817,-14.52777274593878,-6.37587998821701,tremor
17,8352393,0.178,-0.38620677027332795,-0.053544632732455764,0.8952045852443942,-13.502386158331445,-15.651473100142931,-6.882882255439747,tremor
18,8352398,0.183,-0.3871599781100773,-0.05577165569111814,0.8992860141378027,-14.89444473551185,-16.724129536254747,-7.412285069626493,tremor
19,8352412,0.197,-0.38803210553249845,-0.05820807216308999,0.9033093819910866,-16.300419771364353,-17.736526026608214,-7.961218395972915,tremor
20,8352417,0.202,-0.3888208916118982,-0.060859945758251585,0.9072537555907182,-17.71690904134098,-18.679454415887896,-8.526570791165028,tremor
21,8352421,0.206,-0.38952484675076054,-0.06373274781123482,0.9110976619236625,-19.14045262756199,-19.543816078390716,-9.105016436484542,tremor
22,8352441,0.226,-0.3901432499144955,-0.06683131492376854,0.9148191827644526,-20.567561571417237,-20.32072288901695,-9.693044822961147,tremor
23,8352446,0.231,-0.39067614741913875,-0.07015981068865972,0.9183960808004155,-21.994747417240394,-21.001597550300644,-10.286993032705912,tremor
24,8352455,0.24,-0.3911243496411076,-0.07372169060013681,0.9218059506392874,-23.41855218667081,-21.578273816750098,-10.883080597632903,tremor
25,8352460,0.245,-0.39148942288181204,-0.07751966904951402,0.925026389588399,-24.835578284535107,-22.04309745416813,-11.477446901482413,tremor
26,8352502,0.287,-0.3917736742520103,-0.08155568738811046,0.9280351840226165,-26.24251778131877,-22.389028761608728,-12.066191005814595,tremor
27,8352506,0.291,-0.39198012794814885,-0.08583088230822668,0.9308105077194069,-27.63618045084515,-22.609747097674447,-12.645413622771688,tremor
28,8352512,0.297,-0.3921124918118741,-0.09034555421297355,0.9333311288973462,-29.01351988974368,-22.699757075944333,-13.21126073856454,tremor
29,8352521,0.306,-0.3921751137872803,-0.09509913576537521,0.9355766229441317,-30.371657040518752,-22.65449499153614,-13.759968134137594,tremor
30,8352536,0.321,-0.39217292897842465,-0.10009016137066479,0.9375275879942068,-31.707900500498713,-22.470432791096645,-14.287905788060446,tremor
31,8352541,0.326,-0.392111399439234,-0.1053162388921795,0.9391658605975021,-33.019763117397325,-22.145175782764777,-14.791620931201917,tremor
32,8352546,0.331,-0.3919964503330857,-0.11077402536094749,0.9404747286774694,-34.30497453227645,-21.677549593946665,-15.267878412021467,tremor
33,8352555,0.34,-0.3918344072724253,-0.11645920874139298,0.9414391388023197,-35.56148952423835,-21.067671803294026,-15.713697072031188,tremor
34,8352560,0.345,-0.3916319401284269,-0.12236649790979451,0.9420458945275242,-36.7874922319718,-20.317004186994268,-16.126381029085756,tremor
35,8352570,0.355,-0.39139601821174275,-0.1284896228737195,0.9422838422861319,-37.98139655615863,-19.428382452996654,-16.50354507973307,tremor
36,8352575,0.36,-0.39113388050448505,-0.13482134693159872,0.9421440410949584,-39.14184325277179,-18.40602146609165,-16.843133798194057,tremor
37,8352579,0.364,-0.39085302277368,-0.1413534919899866,0.9416199122845665,-40.26769438171317,-17.25549511628834,-17.143434277138194,tremor
38,8352584,0.369,-0.39056120122654375,-0.14807697768395267,0.9407073655912469,-41.35802586143949,-15.983691045696922,-17.403082790997995,tremor
39,8352589,0.374,-0.3902664502199187,-0.15498187434610367,0.939404898272799,-42.41211889515234,-14.598741363487292,-17.621065938478626,tremor
40,8352594,0.379,-0.3899771097071972,-0.1620574692929133,0.9377136643994539,-43.429450987529144,-13.109931206643083,-17.796717006044517,tremor
41,8352599,0.384,-0.3897018568053885,-0.16929234537806842,0.9356375120844045,-44.40968718256149,-11.527587524318513,-17.92970836230061,tremor
42,8352624,0.409,-0.38944973521437803,-0.17667447032324154,0.9331829871102266,-45.35267204114915,-9.862950771333043,-18.020040641634388,tremor
43,8352629,0.414,-0.3892301762672047,-0.18419129499244552,0.9303593021335332,-46.25842274465128,-8.128032298725373,-18.068029332734305,tremor
44,8352634,0.419,-0.38905300611042903,-0.19182985854129053,0.9271782713601191,-47.12712354677542,-6.335460127178072,-18.0742892014827,tremor
45,8352644,0.429,-0.38892843480677947,-0.19957689825803518,0.9236542112172493,-47.959121594337915,-4.498315484237252,-18.039716795393797,tremor
46,8352649,0.434,-0.38886702484215224,-0.20741896191395223,0.9198038080547224,-48.7549239092206,-2.6299620264384784,-17.965471131063058,tremor
47,8352658,0.443,-0.38887963837839296,-0.21534252052578756,0.9156459542569564,-49.515195098399026,-0.7438691719258984,-17.85295257427234,tremor
48,8352678,0.463,-0.3889773643893259,-0.22333407956044427,0.9112015543588758,-50.24075517484491,1.1465694094639047,-17.703779892622222,tremor
49,8352682,0.467,-0.38917142835164886,-0.2313802867552285,0.9064933028767892,-50.93257676838136,3.0282212297406463,-17.51976549698094,tremor
50,8352687,0.472,-0.3894730882788485,-0.2394680348953274,0.9015454356644423,-51.59178100913759,4.888403198904152,-17.30288899122324,tremor
51,8352692,0.477,-0.3898935214683235,-0.24758455811910446,0.8963834567665239,-52.21963147870438,6.71507085588703,-17.055269313613085,tremor
52,8352702,0.487,-0.39044370631822606,-0.2557175206378466,0.8910338430312256,-52.817525817128335,8.497005842940327,-16.77913596053774,tremor
53,8352707,0.492,-0.39113430297880303,-0.26385509714475686,0.8855237291783702,-53.38698479938919,10.223997592912426,-16.47680000629749,tremor
54,8352721,0.506,-0.3919755355209416,-0.2719860445876183,0.8798805765661089,-53.92963890205085,11.88701384849945,-16.150625840911342,tremor
55,8352748,0.533,-0.39297707686424876,-0.2800997653053252,0.8741318294838097,-54.44721252725334,13.478353356867707,-15.803004713144581,tremor
56,8352753,0.538,-0.39414793609063353,-0.28818636170065826,0.8683045633288958,-54.941506108144836,14.99177308971676,-15.436331252846706,tremor
57,8352758,0.543,-0.3954963462382059,-0.29623668260020586,0.8624251294163382,-55.41437627437746,16.42258194303863,-15.052984102619067,tremor
58,8352763,0.548,-0.39702964953941017,-0.304242361260964,0.8565188013798634,-55.86771411665357,17.767693420423992,-14.655311562515285,tremor
59,8352773,0.558,-0.39875417659798773,-0.31219584469908784,0.8506094281800697,-56.30342138729898,19.02563145110251,-14.245622736161126,tremor
60,8352778,0.563,-0.40067511630143904,-0.320090413729562,0.844719098718401,-56.72338425828281,20.196486076990354,-13.82618411738844,tremor
61,8352792,0.577,-0.4027963743050105,-0.3279201928873229,0.8388678230604011,-57.12944408287973,21.281818925489524,-13.399220960625762,tremor
62,8352802,0.587,-0.4051204195966169,-0.33568014930064144,0.833073235354477,-57.523364520514264,22.284521822327925,-12.966922223925474,tremor
63,8352807,0.592,-0.4076481208284548,-0.3433660796442391,0.8273503236827432,-57.906794419933824,23.208635222892926,-12.531447446541174,tremor
64,8352812,0.597,-0.4103785766057684,-0.350974584536656,0.8217111922106863,-58.281226028406316,24.059135909513305,-12.094933705815828,tremor
65,8352826,0.611,-0.41330894651472366,-0.3585030301611279,0.8161648609807761,-58.647948400907964,24.841705221082073,-11.659500839073923,tremor
66,8352831,0.616,-0.4164342920353481,-0.3659494974421482,0.8107171084086522,-59.00799629883937,25.562489784160164,-11.227253391867379,tremor
67,8352836,0.621,-0.41974743823060523,-0.37331271972880364,0.8053703609383908,-59.36209533862678,26.2278663692518,-10.800278174257633,tremor
68,8352841,0.626,-0.4232388677855646,-0.3805920105340359,0.8001236334095464,-59.71060460064389,26.84422126218919,-10.380636768360477,tremor
69,8352846,0.631,-0.42689665821246475,-0.38778718337590995,0.7949725225461428,-60.053458271240316,27.417752594647155,-9.970352771289036,tremor
70,8352878,0.663,-0.43070647068767137,-0.39489846610198764,0.7899092546944108,-60.39010813052027,27.954301630673086,-9.571393972571169,tremor
71,8352882,0.667,-0.43465159522935254,-0.401926412208892,0.7849227876301025,-60.719468804070374,28.459216315969886,-9.185650075399508,tremor
72,8352887,0.672,-0.4387130523152287,-0.4088718115664319,0.7799989650511695,-61.039867659750456,28.937247777372896,-8.814906973383179,tremor
73,8352892,0.677,-0.4428697464326316,-0.41573560260872133,0.7751207213782699,-61.34900105148976,29.392478266247764,-8.460818928453895,tremor
74,8352897,0.682,-0.44709866332456905,-0.4225187874943132,0.7702683337754181,-61.64389832395153,29.82827755209542,-8.124880163940977,tremor
75,8352907,0.692,-0.45137510039234985,-0.4292223510487856,0.7654197178885618,-61.920894662448276,30.247284073894654,-7.80839731606572,tremor
76,8352921,0.706,-0.4556729189457055,-0.4358471836138688,0.7605507636428158,-62.17561357049207,30.6514071557875,-7.5124638787148115,tremor
77,8352926,0.711,-0.459964807588954,-0.4423940073806248,0.7556357074714958,-62.40295952152185,31.041847142677412,-7.237937317324934,tremor
78,8352936,0.721,-0.4642225477352142,-0.44886330550862763,0.7506475374795789,-62.59712116910442,31.41913124860029,-6.985419062781184,tremor
79,8352945,0.73,-0.46841727474488865,-0.45525525339576245,0.7455584281532492,-62.75158540359705,31.783164016083454,-6.7552372690625955,tremor
80,8352950,0.735,-0.472519731126722,-0.46156965183017873,0.740340201193329,-62.85916250073082,32.1332922525965,-6.547432105482752,tremor
81,8352955,0.74,-0.4765005112023712,-0.4678058622998572,0.7349648087835267,-62.912022603385864,32.46838481664105,-6.361743442686434,tremor
82,8352965,0.75,-0.4803302991874671,-0.4739627452932405,0.7294048350755594,-62.90174379116803,32.786927456733146,-6.197601015497198,tremor
83,8353001,0.786,-0.48398010439423955,-0.4800386028591198,0.723634010921085,-62.81937199673475,33.08713203080162,-6.054117436740961,tremor
84,8353012,0.797,-0.4874214979057997,-0.4860311269211096,0.7176277359950467,-62.655492990037445,33.36705795500004,-5.930084740548984,tremor
85,8353031,0.816,-0.4906268544281394,-0.4919373548266449,0.7113636015441985,-62.40031652914906,33.62474182042439,-5.8239753977593365,tremor
86,8353036,0.821,-0.4935696011301076,-0.4977536333618212,0.70482190615506,-62.04377252958689,33.85832907754259,-5.733948896043752,tremor
87,8353041,0.826,-0.4962244724938745,-0.5034755920433753,0.697986156254473,-61.575618730804834,34.06620005283759,-5.657864930354657,tremor
88,8353046,0.831,-0.49856776716130025,-0.5090981260190699,0.6908435426269581,-60.98555888874882,34.24708192983049,-5.593303963917038,tremor
89,8353051,0.836,-0.5005776001630587,-0.5146153884888288,0.6833853841449845,-60.263370067514586,34.400138992806816,-5.537595435569646,tremor
90,8353060,0.845,-0.5022341422325082,-0.5200207922806793,0.6756075302053073,-59.39903719649371,34.5250352251685,-5.487853305346515,tremor
91,8353065,0.85,-0.503519837325759,-0.5253070200989246,0.667510714022021,-58.382892740239775,34.62196584154215,-5.4410180543730124,tremor
92,8353071,0.856,-0.5044195899962949,-0.5304660429879582,0.6591008498592871,-57.20575912662981,34.691657067784185,-5.393903774477705,tremor
93,8353075,0.86,-0.5049209158220256,-0.5354891466850402,0.6503892683701009,-55.85909150877701,34.73533608566441,-5.343248662315265,tremor
94,8353080,0.865,-0.505014050498125,-0.5403669657193455,0.6413928853103814,-54.33511848624314,34.75467523117013,-5.285767110466325,tremor
95,8353090,0.875,-0.5046920162387206,-0.54508952529771,0.632134299914157,-52.62697855519869,34.75171609495018,-5.218201664575166,tremor
96,8353095,0.88,-0.5039506474215808,-0.5496462911493409,0.6226418200869588,-50.72885027590087,34.728780038720146,-5.137373352317047,tremor
97,8353122,0.907,-0.5027885805143351,-0.5540262275455761,0.6129494122956093,-48.636074430415285,34.68837176727271,-5.040229218376212,tremor
98,8353141,0.926,-0.5012072156953646,-0.5582178636459184,0.6030965746550504,-46.345266768764965,34.63308195662258,-4.923886244943619,tremor
99,8353151,0.936,-0.4992106586418759,-0.5622093681354271,0.5931281323397424,-43.85442023649353,34.565493600718405,-4.785671151769348,tremor
100,8353156,0.941,-0.4968056502887347,-0.5659886317931538,0.5830939551991636,-41.162995741861145,34.48809494977331,-4.6231558410026095,tremor
101,8353165,0.95,-0.4940014900401646,-0.5695433571444701,0.5730485984210164,-38.27200049860432,34.403200094398954,-4.434188470794345,tremor
102,8353170,0.955,-0.4908099546046945,-0.5728611537050281,0.5630508682904254,-35.184052800196575,34.3128768466722,-4.2169202792899325,tremor
103,8353190,0.975,-0.48724521127042786,-0.5759296365848414,0.5531633165230161,-31.90343183426678,34.21888086610031,-3.969828309065797,tremor
104,8353195,0.98,-0.4833237218582546,-0.5787365255183873,0.5434516682542276,-28.436110930799646,34.122595023989135,-3.6917341043146488,tremor
105,8353200,0.985,-0.47906413226840255,-0.5812697408884492,0.5339841904397146,-24.789772545130774,34.02497363969172,-3.3818183129008603,tremor
106,8353204,0.989,-0.4744871426280413,-0.5835174931713983,0.5248310089878793,-20.973803379432294,33.926492165509885,-3.0396309929853653,tremor
107,8353209,0.994,-0.46961535443385555,-0.585468362532394,0.5160633842180685,-16.99926837373402,33.82710381645251,-2.665097362188259,tremor
108,8353218,1.003,-0.46447309342228776,-0.5871113660197174,0.5077529551014628,-12.878862823307884,33.726205284332714,-2.25851876123871,tremor
109,8353255,1.04,-0.4590862097108903,-0.5884360108424184,0.4999709631853829,-8.626842545168506,33.62261390343306,-1.8205687205097818,tremor
110,8353265,1.05,-0.45348185946664843,-0.5894323334126804,0.49278746718963873,-4.258932746626871,33.51455838383943,-1.3522841884043062,tremor
111,8353270,1.055,-0.4476882743259288,-0.5900909250071353,0.4862705590978093,0.20778306881081363,33.39968448462251,-0.8550521823719781,tremor
112,8353289,1.074,-0.44173452543088787,-0.5904029458354697,0.48048559226303866,4.754992325402342,33.275075834651396,-0.3305923412248362,tremor
113,8353294,1.079,-0.43565028805305855,-0.5903601298162622,0.4754944317063583,9.363298665501514,33.137288746226375,0.2190639342146323,tremor
114,8353308,1.093,-0.42946561073939404,-0.5899547823824722,0.4713547364599946,14.012381242635051,32.98239867127977,0.7915969206335278,tremor
115,8353313,1.098,-0.4232106905475976,-0.5891797732566106,0.4681192835052148,18.681166065494068,32.806055292077744,1.3844237442496934,tremor
116,8353318,1.103,-0.4169156540138132,-0.5880285255429302,0.4658353425438609,23.348007544551475,32.60354329631608,1.9947245676835046,tremor
117,8353323,1.108,-0.410610342452765,-0.5864950019145306,0.4645441104600339,27.990878407241166,32.369846555862615,2.6194692909817805,tremor
118,8353328,1.113,-0.4043241001063686,-0.5845736883309985,0.4642802137789355,32.58756603264563,32.099714417595685,3.2554444748558518,tremor
119,8353342,1.127,-0.3980855643894708,-0.5822595757322637,0.46507128661360786,37.115873006185886,31.787729813988605,3.8992803316040723,tremor
120,8353369,1.154,-0.39192245877769993,-0.5795481405517874,0.4669376304314296,41.55381932509495,31.428379663968965,4.5474776905050645,tremor
121,8353393,1.178,-0.38586139037735045,-0.5764353256313565,0.46989196044224063,45.8798432366947,31.016128349394872,5.196434861376819,tremor
122,8353407,1.192,-0.37992765538279477,-0.5729175240585965,0.4739392415587854,50.072997260379445,30.545494737912993,5.842474319646298,tremor
123,8353412,1.197,-0.3741450558861915,-0.56899156931995,0.4790766148682884,54.11313570446173,30.011132271050418,6.481869116834516,tremor
124,8353417,1.202,-0.3685357305943594,-0.5646547356256107,0.4852934136300394,57.98109012113481,29.407910367449755,7.110868873322074,tremor
125,8353432,1.217,-0.3631200002548181,-0.5599047520629579,0.4925712662124509,61.65882970041399,28.73099434099243,7.725725161950691,tremor
126,8353436,1.221,-0.3579162267377902,-0.554739833342157,0.500884282214738,65.12960446436841,27.97592062152877,8.322716096852245,tremor
127,8353446,1.231,-0.3529406834762053,-0.5491587285073513,0.5101993172397185,68.3780700781916,27.138664411220493,8.898170036099858,tremor
128,8353451,1.236,-0.34820743474423055,-0.5431607874045039,0.5204763112463079,71.39039396715098,26.215697908701156,9.448488471162559,tremor
129,8353461,1.246,-0.3437282221616335,-0.5367460432198189,0.5316686949251489,74.15434311091424,25.204038669573603,9.970168350419929,tremor
130,8353491,1.276,-0.3395123587157183,-0.5299153082582965,0.5437238579358705,76.65935432453198,24.101289244269026,10.459824199310257,tremor
131,8353496,1.281,-0.335566633144253,-0.5226702794648338,0.5565836720214901,78.89658800402353,22.90567058309867,10.914210421273197,tremor
132,8353515,1.3,-0.3318952301091626,-0.5150136500619844,0.5701850610152929,80.85896621915929,21.616052456084592,11.330244113984515,tremor
133,8353520,1.305,-0.3284996733904869,-0.5069492240483343,0.5844606087690706,82.54119573970314,20.231984028037235,11.70502866100059,tremor
134,8353534,1.319,-0.3253787996183107,-0.4984820309918304,0.599339195303971,83.93977623081243,18.75372673291783,12.035878264846474,tremor
135,8353554,1.339,-0.3225287686084147,-0.48961843925707293,0.6147466511729605,85.05299363956064,17.182289997502423,12.320343427926655,tremor
136,8353564,1.349,-0.31994311359848693,-0.48036626618914713,0.6306064201303179,85.88089885060693,15.519468669852506,12.556237141532677,tremor
137,8353568,1.353,-0.3176128314865462,-0.4707348836261407,0.6468402206337879,86.42527201938431,13.767879744418007,12.741661275928903,tremor
138,8353587,1.372,-0.3155265105349028,-0.46073531644361765,0.6633686973693813,86.68957349055937,11.9309955373973,12.875032479991129,tremor
139,8353614,1.399,-0.3136704916111907,-0.45038033088943025,0.6801120548629068,86.67888271670911,10.013170918536762,12.955106840165929,tremor
140,8353619,1.404,-0.31202905905345785,-0.43968450862158387,0.6969906663516425,86.3998269240586,8.01966320294623,12.98100257351159,tremor
141,8353628,1.413,-0.31058465828910525,-0.4286643019884397,0.7139256524486379,85.86050126905664,5.956644267216506,12.95222007982468,tremor
142,8353638,1.423,-0.30931813866024876,-0.4173380664202199,0.7308394256841934,85.0703818449126,3.8312048968244254,12.868658734002107,tremor
143,8353643,1.428,-0.3082090206941359,-0.40572606681612816,0.7476561986031202,84.04023225852055,1.651351157324425,12.730629859441521,tremor
144,8353674,1.459,-0.30723578673940544,-0.3938504562429531,0.7643024545221844,82.78200384595822,-0.5740081072388944,12.538865363974896,tremor
145,8353688,1.473,-0.30637619235207103,-0.3817352267076925,0.7807073811143648,81.30872914904462,-2.8350843962468804,12.294521522994796,tremor
146,8353693,1.478,-0.305607593437948,-0.369406132863558,0.7968032675766841,79.63440815751241,-5.121245735765798,11.999177398093972,tremor
147,8353698,1.483,-0.3049072816856608,-0.3568905900583092,0.81252586627699,77.77388704514111,-7.421068600371995,11.654827466063233,tremor
148,8353703,1.488,-0.30425281904563256,-0.3442175481665149,0.8278147196067868,75.74272960590142,-9.722407846585657,11.263868243183595,tremor
149,8353708,1.493,-0.3036223613992511,-0.33141734238471815,0.8426134524958782,73.55708217036974,-12.012485950677213,10.82907897108023,tremor
150,8353713,1.498,-0.3029949621594674,-0.3185215219024602,0.8568700308428536,71.23353330191816,-14.278001558374202,10.353596688766554,tremor
151,8353744,1.529,-0.3023508481122659,-0.30556265733652005,0.8705369860723136,68.78896994834501,-16.505256056142315,9.840886194372592,tremor
152,8353764,1.549,-0.30167166200188067,-0.29257412817335815,0.8835716061463804,66.24043193189657,-18.68029577309732,9.294705498818642,tremor
153,8353778,1.563,-0.30094066874442355,-0.2795898922185466,0.8959360935542061,63.60496671651786,-20.789066682880815,8.719067414132105,tremor
154,8353788,1.573,-0.30014292420042177,-0.26664424004119586,0.9075976909359605,60.899486354147875,-22.817578220799216,8.118197913266632,tremor
155,8353802,1.587,-0.29926540672732477,-0.2537715383062962,0.9185287749289973,58.14062847299817,-24.75207303278851,7.496491849289595,tremor
156,8353832,1.617,-0.2982971122358823,-0.24100596638539,0.9287069185038377,55.34462320985672,-26.579199854293464,6.858466553874717,tremor
157,8353869,1.654,-0.29722911358699705,-0.22838125061105513,0.9381149215367723,52.52716811808879,-28.28618687250951,6.208713806359401,tremor
158,8353873,1.658,-0.2960545854205865,-0.2159304001564283,0.9467408087314901,49.703313223187386,-29.861012598820686,5.551850725317442,tremor
159,8353878,1.663,-0.2947687961968372,-0.20368544808056488,0.9545777933418276,46.88735839574977,-31.292570608171587,4.892470272726265,tremor
160,8353883,1.668,-0.2933690702428463,-0.1916772008214661,0.9616242045838118,44.09276491915898,-32.57082396692265,4.235092209260212,tremor
161,8353898,1.683,-0.2918547235440466,-0.17993499941364205,0.9678833763328643,41.3320825145975,-33.68694519980216,3.584115433049895,tremor
162,8353908,1.693,-0.29022697748359527,-0.16848649589169074,0.973363494850674,38.61689227818773,-34.63343829522897,2.9437726433862133,tremor
163,8353923,1.708,-0.2884888544685166,-0.157357448568315,0.9780774039668163,35.9577651929612,-35.40424027722143,2.318088186325218,tremor
164,8353937,1.722,-0.28664505841198656,-0.14657153993780841,0.9820423673392636,33.3642352783666,-35.99480100666093,1.7108397620734905,tremor
165,8353947,1.732,-0.28470184170263485,-0.13615022063129503,0.9852797890129827,30.844786118049154,-36.40214089528114,1.1255244361621501,tremor
166,8353993,1.778,-0.2826668591730199,-0.12611258200505426,0.9878148952624143,28.40684945069586,-36.62488692170837,0.5653291737240124,tremor
167,8353997,1.782,-0.28054900925398313,-0.11647525865128956,0.9896763823743824,26.05681463028932,-36.663287589038276,0.03310598924096908,tremor
168,8354012,1.797,-0.2783582631536389,-0.10725236067877354,0.9908960363905178,23.800047934442674,-36.519207299817424,-0.4686482110488835,tremor
169,8354017,1.802,-0.2761054841842627,-0.09845543440563415,0.9915083317820169,21.64092080666782,-36.19610030167227,-0.9378069844335334,tremor
170,8354021,1.806,-0.2738022406677159,-0.09009344940228255,0.9915500165614514,19.582846108148672,-35.69896418205256,-1.3726247924201465,tremor
171,8354027,1.812,-0.2714606167050056,-0.08217280963831396,0.9910596914645876,17.628321356835286,-35.03427302494292,-1.7717424658883645,tremor
172,8354032,1.817,-0.2690930253228293,-0.07469738665645231,0.9900773905836467,15.778977816466663,-34.20989076194635,-2.1341877174190094,tremor
173,8354046,1.831,-0.2667120281448215,-0.06766857301419134,0.9886441702398799,14.035634219620041,-33.23496584038049,-2.459370816868338,tremor
174,8354066,1.851,-0.26433016489639316,-0.06108535454551566,0.9868017120085101,12.398353890797555,-32.11980897577207,-2.7470756430487286,tremor
175,8354070,1.855,-0.2619597949040727,-0.05494440020223156,0.9845919447365362,10.866504085669826,-30.87575635944071,-2.997446423895674,tremor
176,8354085,1.87,-0.25961295152702957,-0.04924016828215247,0.9820566892285121,9.438816479486107,-29.51502116173765,-3.2109705713991445,tremor
177,8354111,1.896,-0.2573012094563086,-0.04396502774142019,0.9792373281344616,8.11344790527131,-28.050536421137476,-3.3884580865683622,tremor
178,8354116,1.901,-0.25503556429811175,-0.03910939309013066,0.9761745025624246,6.888040630105569,-26.495792398467156,-3.5310180352158773,tremor
179,8354131,1.916,-0.25282632391142545,-0.03466187119160025,0.9729078361223287,5.759781632588325,-24.86467124811818,-3.640032578208226,tremor
180,8354136,1.921,-0.25068301145788646,-0.030609418206683406,0.969475686508341,4.725460484438971,-23.171281525802446,-3.717129003041342,tremor
181,8354146,1.931,-0.2486142807511823,-0.026937504951058688,0.9659149243268308,3.7815255362798195,-21.429794734071265,-3.7641501722972324,tremor
182,8354170,1.955,-0.24662784496920617,-0.023630289004708163,0.9622607386378798,2.924138164582401,-19.65428587453449,-3.783123786805485,tremor
183,8354175,1.96,-0.2447304199333755,-0.020670791956131376,0.9585464685533382,2.1492248624701618,-17.85857983876231,-3.776230850609072,tremor
184,8354179,1.964,-0.2429276829378503,-0.01804108014414033,0.9548034601781209,1.4525269647588444,-16.05610539066721,-3.7457737138889655,tremor
185,8354184,1.969,-0.24122424762445144,-0.015722447190889926,0.9510609481541856,0.8296478019284371,-14.259758418745287,-3.6941440572912945,tremor
186,8354189,1.974,-0.2396236548043706,-0.01369559654039815,0.9473459610406664,0.27609709014664885,-12.48177603058628,-3.623791168149952,tremor
187,8354199,1.984,-0.23812837857228186,-0.01194082216431945,0.9436832497270239,-0.21266760982047356,-10.733622918867027,-3.5371908474096387,tremor
188,8354208,1.993,-0.23673984663829917,-0.010438185593036848,0.9400952380294096,-0.641202493278606,-9.025891260513347,-3.4368152762221826,tremor
189,8354243,2.028,-0.23545847355989646,-0.009167687483679037,0.9366019945682516,-1.0140422518086603,-7.368215230750487,-3.3251041623790654,tremor
190,8354248,2.033,-0.23428370548426525,-0.008109432047810138,0.9332212249698543,-1.3356679792989712,-5.769201024609548,-3.2044374763255647,tremor
191,8354253,2.038,-0.23321407506095673,-0.007243782822496417,0.9299682833760071,-1.610478216596926,-4.236373076926738,-3.077110070852482,tremor
192,8354272,2.057,-0.23224726526994444,-0.006551508460207486,0.9268562021819086,-1.842763057956312,-2.776136951748363,-2.9453084544200965,tremor
193,8354277,2.062,-0.23138018095213306,-0.006013917410702729,0.9238957388556196,-2.036681197387939,-1.3937591261758115,-2.811089953665256,tremor
194,8354286,2.071,-0.2306090267999807,-0.005612980555732238,0.9210954386281703,-2.196239751596061,-0.09336361508796126,-2.6763644578108607,tremor
195,8354296,2.081,-0.22992939049663505,-0.005331441034109143,0.9184617117923168,-2.325276659365528,1.1220549309252894,-2.5428788938189926,tremor
196,8354301,2.086,-0.22933632964086278,-0.0051529106643131905,0.9159989243194983,-2.427445430523703,2.2506023614339616,-2.4122045457941517,tremor
197,8354321,2.106,-0.2288244611094648,-0.005061952533598279,0.9137095005054781,-2.506202010562356,3.29144144069867,-2.285727309093149,tremor
198,8354326,2.111,-0.228388051605227,-0.005044149474845885,0.9115940363878654,-2.5647935491691554,4.2447348901422695,-2.164640952967568,tremor
199,8354357,2.142,-0.2280211082958076,-0.00508615829829548,0.9096514227399357,-2.606248915943295,5.111576657160051,-2.0499434449867504,tremor
200,8354361,2.146,-0.2277174686155604,-0.005175749791102828,0.9078789765243108,-2.6333708889976237,5.893913193355395,-1.9424363588193276,tremor
201,8354376,2.161,-0.2274708884196262,-0.00530183464578129,0.9062725797695789,-2.648730037687176,6.5944566415712,-1.8427273430108442,tremor
202,8354381,2.166,-0.22727512771300554,-0.0054544756233309705,0.9048268248918417,-2.654660409944814,7.216591876043692,-1.7512355746441672,tremor
203,8354391,2.176,-0.22712403313029478,-0.0056248863882106676,0.9035351655021031,-2.6532571994814966,7.764279316624175,-1.66820006204962,tremor
204,8354401,2.186,-0.2270116162462209,-0.005805417562773164,0.902390071705765,-2.6463765967762645,8.241955359375625,-1.59369060026174,tremor
205,8354410,2.195,-0.226932126692094,-0.005989530636766608,0.9013831888067885,-2.635638016958302,8.654432149960996,-1.5276211277701441,tremor
206,8354415,2.2,-0.2268801189695073,-0.006171760436387508,0.9005054981807087,-2.6224288520985137,9.006798288140079,-1.4697651875599331,tremor
207,8354420,2.205,-0.22685051180881113,-0.006347666914122165,0.8997474788930451,-2.6079118266610744,9.30432190237225,-1.4197731593356826,tremor
208,8354430,2.215,-0.22683863892607128,-0.006513777074903543,0.8990992684370893,-2.5930349570015507,9.552357382884173,-1.3771908988063442,tremor
209,8354484,2.269,-0.22684029009326712,-0.006667517916663556,0.898550820775056,-2.5785440385544685,9.756256918898872,-1.3414793894634776,tremor
210,8354488,2.273,-0.22685174155500742,-0.0068071413433118295,0.8980920597128367,-2.5649975098077435,9.921287858137456,-1.3120349827734674,tremor
