sample,t_ms,t_s,ax,ay,az,gx,gy,gz,tremor
0,3795407,0.0,-0.5792126102989588,-0.33699529159099995,0.6806768813826045,1.541014046700289,-15.560968891961188,-10.756956109192348,no_tremor
1,3795412,0.005,-0.5798702016345672,-0.33729315344082267,0.6800614363280734,1.6991464684844795,-14.992025323256126,-10.854321333362792,no_tremor
2,3795417,0.01,-0.5807754489330283,-0.3376952612655989,0.6792194958236942,1.8676014844448148,-14.412664819898987,-10.96915162339907,no_tremor
3,3795422,0.015,-0.581944143797541,-0.33820474922542276,0.6781388519271261,2.0463034473771615,-13.82432985783727,-11.1021046957458,no_tremor
4,3795426,0.019,-0.5833438939246554,-0.33880434736839915,0.6768513719309861,2.235069105522982,-13.228495662884807,-11.253728708957457,no_tremor
5,3795436,0.029,-0.584916296266568,-0.3394674128565814,0.6754116102900535,2.4335985695637214,-12.626661475539986,-11.424447418620602,no_tremor
6,3795441,0.034,-0.5865975334623102,-0.3401672901637695,0.6738775411147341,2.6414669410905707,-12.020342512841722,-11.614545159115576,no_tremor
7,3795446,0.039,-0.5883293593011958,-0.34088188841295114,0.6723005638390506,2.8581167525830753,-11.411062798452669,-11.824151764668228,no_tremor
8,3795451,0.044,-0.5900625157395515,-0.341594788938337,0.6707226087936502,3.0828513546168668,-10.80034899576592,-12.053227550233384,no_tremor
9,3795456,0.049,-0.5917562399987812,-0.3422946874753946,0.6691768227538324,3.3148293685180077,-10.189725334832632,-12.301548480229114,no_tremor
10,3795460,0.053,-0.5933764181690997,-0.3429743387812207,0.6676894381294588,3.5530603030040067,-9.580709677979609,-12.56869165958942,no_tremor
11,3795465,0.058,-0.5948936476881832,-0.3436295407468959,0.6662816693311305,3.7964014128584362,-8.974810726179372,-12.854021287328925,no_tremor
12,3795470,0.063,-0.5962816642930069,-0.34425832818775653,0.6649712349579162,4.043555857657288,-8.373526331117729,-13.156675218290772,no_tremor
13,3795475,0.068,-0.5975162093203744,-0.34486038500609195,0.6637734523253465,4.293072200183612,-7.778342847219068,-13.475552283896702,no_tremor
14,3795480,0.073,-0.5985742745457987,-0.3454366308510465,0.6627019736344286,4.543345268664573,-7.1907354340912395,-13.809300526737621,no_tremor
15,3795484,0.077,-0.5994336317511938,-0.3459889319503977,0.6617692564026662,4.792618395389398,-6.612169203495629,-14.156306505919868,no_tremor
16,3795489,0.082,-0.600072564002053,-0.34651989456286486,0.660986848808688,5.038987036877052,-6.04410109579346,-14.514685830098626,no_tremor
17,3795515,0.108,-0.6004697352040705,-0.3470327108311264,0.6603655507398183,5.280403776585777,-5.487982367176287,-14.88227507349086,no_tremor
18,3795520,0.113,-0.6006041529171888,-0.34753103649339595,0.6599154933125917,5.514684708179982,-4.945261568126075,-15.256625227249131,no_tremor
19,3795525,0.118,-0.6004551936987113,-0.3480188871026976,0.6596461658578415,5.739517193334539,-4.417387892551388,-15.63499683478319,no_tremor
20,3795535,0.128,-0.6000026704394007,-0.34850054440419675,0.6595664096137567,5.952468981351675,-3.9058147737770805,-16.0143569555301,no_tremor
21,3795540,0.133,-0.5992269280941884,-0.3489804678761932,0.6596843907568498,6.150998668099338,-3.412003597804936,-16.391378097714203,no_tremor
22,3795545,0.138,-0.5981089587996173,-0.3494632086459737,0.6600075610262969,6.33246745991445,-2.9374273981063816,-16.762439256686598,no_tremor
23,3795555,0.148,-0.5966305303517724,-0.349953324425266,0.6605426113526132,6.4941521959757535,-2.483574392810979,-17.12362919110469,no_tremor
24,3795559,0.152,-0.5947743239296994,-0.3504552950352992,0.6612954220758885,6.633259571804365,-2.0519512267521938,-17.470752064122536,no_tremor
25,3795564,0.157,-0.5925240781600153,-0.35097343868330183,0.6622710121793528,6.746941497377876,-1.6440857879295014,-17.799335570375355,no_tremor
26,3795569,0.162,-0.5898647373731869,-0.351511829522649,0.6634734892336879,6.832311515220146,-1.2615294799015413,-18.104641661099137,no_tremor
27,3795579,0.172,-0.586782602359351,-0.3520742172485211,0.6649060012891442,6.886462196089194,-0.9058588472157447,-18.381679968535583,no_tremor
28,3795584,0.177,-0.5832654821938589,-0.3526639495950239,0.6665706916637288,6.906483422448645,-0.5786764683026268,-18.625224016375217,no_tremor
29,3795594,0.187,-0.579302845836253,-0.3532838986381762,0.6684686573909546,6.889481462940072,-0.2816110467455729,-18.829830284867846,no_tremor
30,3795599,0.192,-0.5748859722545687,-0.3539363917931588,0.6705999119688701,6.832598734278462,-0.016316645064159606,-18.98986017670191,no_tremor
31,3795604,0.197,-0.570008097819649,-0.354623148340533,0.6729633529684234,6.7330341395395585,0.2155289859402166,-19.0995049026934,no_tremor
32,3795608,0.201,-0.5646645596745664,-0.3553452222397552,0.675556734998781,6.588063862965437,0.4122270239756278,-19.152813275578858,no_tremor
33,3795613,0.206,-0.5588529337314467,-0.35610295190251323,0.6783766484809056,6.395062491102277,0.5720611766142093,-19.143722366861066,no_tremor
34,3795639,0.232,-0.5525731658978847,-0.35689591751347666,0.6814185046423433,6.151524318867113,0.6933023023562882,-19.06609094648712,no_tremor
35,3795644,0.237,-0.5458276950990559,-0.35772290640807536,0.684676527111549,5.855084687914975,0.7742140813518179,-18.91373558908038,no_tremor
36,3795648,0.241,-0.5386215666443799,-0.35858188694727344,0.6881437504568586,5.503541194410483,0.8130597572643868,-18.6804692946958,no_tremor
37,3795653,0.246,-0.5309625344869098,-0.3594699912647365,0.6918120259827977,5.0948745948523575,0.8081099596780704,-18.360142437315528,no_tremor
38,3795658,0.251,-0.5228611509335074,-0.3603835071960621,0.695672035064386,4.627269232445042,0.7576516014456368,-17.94668582049548,no_tremor
39,3795663,0.256,-0.5143308423800714,-0.3613178796265322,0.6997133102668088,4.099132802624585,0.6599978290530308,-17.43415558662977,no_tremor
40,3795668,0.261,-0.5053879696688197,-0.3622677214091098,0.703924264460364,3.509115274388675,0.5134989884436166,-16.816779694618695,no_tremor
41,3795672,0.265,-0.4960518716973796,-0.3632268339070436,0.7082922280959918,2.8561267837663578,0.3165545556889196,-16.089005650981374,no_tremor
42,3795677,0.27,-0.4863448909570516,-0.36418823710678655,0.7128034947527869,2.1393543169513194,0.06762597294718649,-15.245549152449847,no_tremor
43,3795687,0.28,-0.4762923797453106,-0.36514420912998025,0.7174433750044129,1.3582770033189329,-0.23474967367367083,-14.281443274875507,no_tremor
44,3795692,0.285,-0.46592268589061864,-0.3660863348521232,0.7221962585757455,0.512679842974922,-0.5919451966302428,-13.192087824782062,no_tremor
45,3795702,0.295,-0.45526711695016636,-0.367005563214924,0.7270456846745081,-0.39733430000315967,-1.0052281281879032,-11.973298456071074,no_tremor
46,3795706,0.299,-0.4443598819954393,-0.3678922727037364,0.7319744202857512,-1.3713345983957692,-1.4757448758114398,-10.62135514439622,no_tremor
47,3795716,0.309,-0.4332380102859401,-0.3687363443537566,0.7369645461105736,-2.4085542038178036,-2.004504269622682,-9.133049605138739,no_tremor
48,3795721,0.314,-0.4219412463444506,-0.3695272415488502,0.7419975497153262,-3.5078843589977167,-2.5923605714158917,-7.505731238055752,no_tremor
49,3795730,0.323,-0.4105119211814684,-0.370254095782378,0.7470544253348808,-4.667870785516641,-3.239996036704508,-5.7373511824089265,no_tremor
50,3795735,0.328,-0.39899479966322826,-0.3709057974567101,0.7521157796452768,-5.886712423257279,-3.947903152002799,-3.8265040692936734,no_tremor
51,3795764,0.357,-0.38743690426741373,-0.37147109070539175,0.7571619426901826,-7.162262566842863,-4.716366704808747,-1.7724670610516635,no_tremor
52,3795769,0.362,-0.3758873157139699,-0.3719386711315199,0.7621730830173675,-8.492032414666864,-5.545445877860032,0.4247642303472504,no_tremor
53,3795774,0.367,-0.36439695118662263,-0.37229728527654044,0.7671293259648576,-9.873197020856411,-6.434956586312153,2.7644433541133724,no_tremor
54,3795779,0.372,-0.35301832106676123,-0.3725358305790395,0.7720108739438198,-11.302603621898816,-7.384454292393193,5.245044571175427,no_tremor
55,3795783,0.376,-0.3418052652835003,-0.3726434545651647,0.7767981275063431,-12.776782297691033,-8.393217536281199,7.86423875832234,no_tremor
56,3795788,0.381,-0.3308126705483723,-0.37260965203428026,0.7814718059632882,-14.291958918699883,-9.460232417313607,10.618874080687199,no_tremor
57,3795793,0.386,-0.32009616990190937,-0.3724243590592849,0.7860130663250333,-15.844070323033863,-10.584178250011014,13.504961841780082,no_tremor
58,3795798,0.391,-0.30971182616278026,-0.3720780427007316,0.7904036193685277,-17.428781657246066,-11.763414607472699,16.517667905562266,no_tremor
59,3795803,0.396,-0.29971580104323114,-0.37156178542860757,0.7946258416810108,-19.04150580220717,-12.995969952055978,19.651310059564754,no_tremor
60,3795807,0.4,-0.29016401187759344,-0.3708673633493289,0.7986628825893042,-20.677424790688473,-14.27953204122635,22.899361650669697,no_tremor
61,3795812,0.405,-0.28111177810142407,-0.36998731744490976,0.802498764950495,-22.331513106444604,-15.611440286577796,26.25446177503088,no_tremor
62,3795817,0.41,-0.2726134598142918,-0.36891501714529573,0.8061184788529896,-23.998562735521478,-16.98868023816238,29.708432240618222,no_tremor
63,3795827,0.42,-0.2647220909552885,-0.367644715673916,0.8095080673550187,-25.673209819581,-18.407880366713677,33.25230144641499,no_tremor
64,3795832,0.425,-0.2574890098114436,-0.3661715967317245,0.8126547034701993,-27.34996273922881,-19.865311324822347,36.876335238968345,no_tremor
65,3795837,0.43,-0.2509634897573274,-0.36449181221726146,0.8155467576971881,-29.023231433941664,-21.356887884007726,40.57007471709126,no_tremor
66,3795842,0.435,-0.24519237327945162,-0.3626025108193379,0.8181738554843914,-30.687357744921105,-22.878173764039012,44.32238085975397,no_tremor
67,3795847,0.44,-0.24021971246366866,-0.36050185746303415,0.8205269241230102,-32.336646547352416,-24.424389587575778,48.121485749891065,no_tremor
68,3795851,0.444,-0.23608641921543735,-0.35818904373564603,0.8225982286735425,-33.965397417210305,-25.99042420025729,51.95505005714255,no_tremor
69,3795883,0.476,-0.23282992854490864,-0.35566428956303725,0.8243813966524326,-35.56793655361528,-27.57084958703635,55.8102263263122,no_tremor
70,3795888,0.481,-0.2304838782853478,-0.352928836543906,0.8258714313364958,-37.138648652989126,-29.159939584052683,59.673727501121654,no_tremor
71,3795893,0.486,-0.22907780862365976,-0.3499849334740864,0.827064713681775,-38.67200841328347,-30.75169252817305,63.53190000752482,no_tremor
72,3795898,0.491,-0.22863688479856523,-0.34683581469909175,0.8279589929972982,-40.16261134498276,-32.33985790432069,67.37080064355231,no_tremor
73,3795903,0.496,-0.22918164625654647,-0.3434856720166593,0.8285533666570906,-41.60520358477353,-33.9179669507167,71.176276480954,no_tremor
74,3795908,0.501,-0.23072778544424494,-0.3399396209120452,0.8288482492689869,-42.99471044253344,-35.47936707579785,74.93404697020975,no_tremor
75,3795912,0.505,-0.23328595926074033,-0.33620366194950696,0.828845331840567,-44.326263452229426,-37.01725983979411,78.62978744007214,no_tremor
76,3795917,0.51,-0.2368616359977967,-0.3322846381647344,0.8285475315878285,-45.59522573415432,-38.52474216695516,82.24921318582547,no_tremor
77,3795922,0.515,-0.2414549803619328,-0.32819018930314897,0.8279589331209587,-46.797215506079,-39.994850385229824,85.7781633448804,no_tremor
78,3795927,0.52,-0.2470607788970691,-0.32392870372476534,0.8270847218160848,-47.92812760360381,-41.42060664023287,89.20268376624776,no_tremor
79,3795932,0.525,-0.2536684078064705,-0.3195092687448542,0.8259311102457495,-48.984152885543395,-42.795067199000535,92.50910809470237,no_tremor
80,3795941,0.534,-0.2612618448028055,-0.31494162009936894,0.8245052585979044,-49.961795409842324,-44.11137214315052,95.68413631371574,no_tremor
81,3795946,0.539,-0.26981972619054095,-0.31023609111509576,0.8228151900666374,-50.85788727211928,-45.36279594458202,98.7149100263118,no_tremor
82,3795951,0.544,-0.27931544990212614,-0.30540356202892016,0.8208697022495276,-51.6696010064756,-46.542798411805045,101.58908380283127,no_tremor
83,3795956,0.549,-0.2897173246682666,-0.30045540974335266,0.8186782756363087,-52.39445946025238,-47.64507548349377,104.29489199042347,no_tremor
84,3795961,0.554,-0.30098876490798454,-0.29540345813489577,0.8162509803195058,-53.03034307252959,-48.663609323134956,106.82121045799211,no_tremor
85,3795966,0.559,-0.3130885302869459,-0.29025992885980395,0.8135983820971474,-53.57549450982004,-49.59271713542441,109.15761283541876,no_tremor
86,3795971,0.564,-0.325971008228188,-0.2850373924418878,0.8107314491681689,-54.028520640536684,-50.427098087111375,111.29442088956283,no_tremor
87,3795975,0.568,-0.3395865369856364,-0.27974871929206724,0.8076614606411067,-54.388391861736146,-51.1618776802088,113.22274875656218,no_tremor
88,3795980,0.573,-0.35388176622586826,-0.2744070302096028,0.8043999180851986,-54.65443882633402,-51.792648901248135,114.93454081830758,no_tremor
89,3796008,0.601,-0.3688000514260591,-0.2690256458572572,0.800958461349151,-54.82634665412791,-52.315509462183556,116.42260307098077,no_tremor
90,3796013,0.606,-0.3842818778083032,-0.2636180346903967,0.7973487898534803,-54.90414674257493,-52.727094461481435,117.68062788743784,no_tremor
91,3796018,0.611,-0.40026530902453833,-0.2581977588525555,0.7935825905180244,-54.88820632110456,-53.0246038346608,118.70321212772672,no_tremor
92,3796032,0.625,-0.4166864554209541,-0.2527784176224639,0.7896714734008083,-54.779215914906175,-53.20582403968209,119.48586860944778,no_tremor
93,3796037,0.63,-0.4334799564717084,-0.2473735881023223,0.7856269159837762,-54.578174900825815,-53.26914353408088,120.02503101538778,no_tremor
94,3796042,0.635,-0.45057947187206804,-0.24199676296588774,0.7814602168444074,-54.286375350020116,-53.21356173407215,120.318052387567,no_tremor
95,3796047,0.64,-0.4679181757861548,-0.23666128523070412,0.7771824592148318,-53.90538436033427,-53.03869128118214,120.36319742955097,no_tremor
96,3796052,0.645,-0.48542924881431804,-0.23138028017722187,0.7728044846735601,-53.437025087292135,-52.74475356610667,120.15962890917778,no_tremor
97,3796057,0.65,-0.5030463623493787,-0.22616658470756304,0.7683368769589625,-52.88335668785277,-52.33256757056353,119.70738852069393,no_tremor
98,3796081,0.674,-0.5207041501114209,-0.2210326746195631,0.7637899556516249,-52.24665339732517,-51.803532191004805,119.0073726289398,no_tremor
99,3796086,0.679,-0.5383386617833081,-0.21599059046773073,0.759173779251305,-51.52938296741246,-51.1596023099718,118.06130337858721,no_tremor
100,3796096,0.689,-0.5558877938295519,-0.21105186288620206,0.7544981569728427,-50.73418470038307,-50.40325898714286,116.87169570546837,no_tremor
101,3796100,0.693,-0.5732916928052898,-0.20622743844385713,0.7497726683974033,-49.863847316972866,-49.53747425481846,115.44182082838785,no_tremor
102,3796127,0.72,-0.590493126788841,-0.20152760726350274,0.7450066899324618,-48.921286890245334,-48.56567111823521,113.77566682311289,no_tremor
103,3796132,0.725,-0.6074378210207316,-0.19696193373896098,0.7402094268530601,-47.90952506324158,-47.49167946905108,111.87789688513031,no_tremor
104,3796136,0.729,-0.62407475439932,-0.19253919170890782,0.7353899495263466,-46.831667746027684,-46.31968870310046,109.7538058768732,no_tremor
105,3796141,0.734,-0.6403564141464096,-0.18826730539266573,0.7305572322801268,-45.69088445985391,-45.05419787402612,107.40927573029273,no_tremor
106,3796146,0.739,-0.6562390066831463,-0.18415329727328233,0.7257201932856412,-44.49038846580876,-43.69996420972425,104.85073023868527,no_tremor
107,3796151,0.744,-0.6716826235062465,-0.18020324394876122,0.7208877337991773,-43.23341778666951,-42.26195078473466,102.08508972676103,no_tremor
108,3796156,0.749,-0.6866513615843475,-0.17642224078825733,0.7160687751496679,-41.923217206654165,-40.745274100763936,99.11972604038351,no_tremor
109,3796161,0.754,-0.701113398468714,-0.17281437604878158,0.7112722919657712,-40.5630213151848,-39.155152291786926,95.96241825092892,no_tremor
110,3796166,0.759,-0.7150410229096877,-0.1693827149450745,0.7065073402983212,-39.15603864678129,-37.49685464044464,92.62130942547782,no_tremor
111,3796180,0.773,-0.7284106222813186,-0.16612929402849566,0.7017830795030761,-37.705436958519265,-35.77565306532092,89.1048647736063,no_tremor
112,3796185,0.778,-0.7412026285439275,-0.1630551261201655,0.6971087869930603,-36.21432967736407,-33.99677621112819,85.421831443952,no_tremor
113,3796190,0.783,-0.753401424829173,-0.16016021595244442,0.692493865234891,-34.68576354013639,-32.16536674227527,81.58120020756334,no_tremor
114,3796195,0.788,-0.7649952150313923,-0.15744358658932506,0.6879478406312024,-33.122707437836596,-30.286442398869536,77.59216922922447,no_tremor
115,3796200,0.793,-0.7759758590490651,-0.1549033166075404,0.6834803541837072,-31.52804246473143,-28.364861316969673,73.46411009349461,no_tremor
116,3796209,0.802,-0.7863386765518009,-0.15253658791679892,0.6791011440567525,-29.904553163908897,-26.405292039592723,69.20653622164552,no_tremor
117,3796214,0.807,-0.7960822223550093,-0.15033974397608502,0.6748200203563576,-28.254919957501414,-24.412188553549857,64.82907379026872,no_tremor
118,3796219,0.812,-0.8052080366665543,-0.14830835802509765,0.6706468326076607,-26.581712752182444,-22.389770583588906,60.3414352403581,no_tremor
119,3796224,0.817,-0.8137203736268738,-0.14643731080060124,0.6665914305597578,-24.887385718112178,-20.34200926446501,55.753395444270396,no_tremor
120,3796251,0.844,-0.8216259116963329,-0.14472087705337314,0.6626636190769225,-23.174273251150534,-18.272618200189434,51.07477057602175,no_tremor
121,3796256,0.849,-0.828933449551178,-0.14315282002992571,0.658873107994287,-21.444587142217017,-16.185049816570654,46.315399708069314,no_tremor
122,3796260,0.853,-0.8356535912322018,-0.14172649294178158,0.6552294579259406,-19.700414990235306,-14.082496826592221,41.4851291320231,no_tremor
123,3796265,0.858,-0.841798424346821,-0.14043494632046247,0.6517420231100566,-17.94371990011569,-11.967898562346024,36.59379936437767,no_tremor
124,3796270,0.863,-0.847381195152165,-0.13927104005245552,0.6484198924512607,-16.176341500647837,-9.843951880379532,31.65123474685027,no_tremor
125,3796275,0.868,-0.8524159843383505,-0.13822755880504017,0.6452718299679183,-14.39999830054362,-7.713126313601009,26.667235488638884,no_tremor
126,3796280,0.873,-0.8569173872815583,-0.1372973294874871,0.6423062158670928,-12.616291379709185,-5.5776831160879485,21.651571934554713,no_tremor
127,3796289,0.882,-0.8609002024424871,-0.13647333933843808,0.6395309894501672,-10.826709392240607,-3.4396978226567243,16.613980786128828,no_tremor
128,3796294,0.887,-0.8643791314477989,-0.13574885318612936,0.6369535949961629,-9.03263483982282,-1.3010859197136768,11.564162955334115,no_tremor
129,3796299,0.892,-0.867368494215225,-0.13511752839263583,0.6345809316780174,-7.235351558786632,0.8363688047949357,6.511782691900799,no_tremor
130,3796304,0.897,-0.8698819622756081,-0.13457352596799113,0.6324193084422638,-5.4360533498421235,2.9709836984212212,1.4664675930576856,no_tremor
131,3796309,0.902,-0.8719323132175208,-0.13411161632822155,0.6304744046299532,-3.635853666023751,5.101144973363161,-3.5621909225443025,no_tremor
132,3796314,0.907,-0.8735312089416245,-0.13372727817712426,0.628751236943813,-1.8357962622959,7.225274274003423,-8.564637115560373,no_tremor
133,3796319,0.912,-0.8746890001694586,-0.13341678901905543,0.6272541331823823,-0.036866700510368666,9.341794667360737,-13.531350850729686,no_tremor
134,3796324,0.917,-0.8754145594085806,-0.13317730586272863,0.6259867129750082,1.7599954036171945,11.449096671251736,-18.452848392358135,no_tremor
135,3796333,0.926,-0.8757151443332326,-0.1330069347570567,0.6249518755697886,3.553883509309087,13.54550495348755,-23.31968449926722,no_tremor
136,3796338,0.931,-0.8755962932936664,-0.13290478791102217,0.6241517945560684,5.34391077523164,15.629246339704647,-28.12245621455358,no_tremor
137,3796343,0.936,-0.8750617544106564,-0.13287102728999373,0.6235879192487139,7.129196299603204,17.698419756101806,-32.85180869814315,no_tremor
138,3796348,0.941,-0.87411344943426,-0.13290689374818826,0.6232609823265928,8.908851094122808,19.750968706338096,-37.49844339208611,no_tremor
139,3796378,0.971,-0.8727514732366616,-0.13301472094657674,0.6231710132043279,10.681963907310571,21.784656840018705,-42.05312874275966,no_tremor
140,3796383,0.976,-0.8709741294588469,-0.13319793351108894,0.6233173565244914,12.44758701023301,23.79704711470818,-46.50671363323726,no_tremor
141,3796388,0.981,-0.8687780024331414,-0.13346102909933752,0.6236986950854838,14.204722057631168,25.785484985613508,-50.85014360921431,no_tremor
142,3796393,0.986,-0.8661580650548678,-0.13380954425638586,0.6243130764663194,15.952306144582925,27.747085978916,-55.074479922966596,no_tremor
143,3796402,0.995,-0.8631078217802312,-0.13425000414453678,0.625157942571354,17.68919819536836,29.678727918607848,-59.170921377515164,no_tremor
144,3796407,1.0,-0.859619485397975,-0.13478985642670657,0.6262301612940584,19.41416584444085,31.57704798529214,-63.130828923424325,no_tremor
145,3796412,1.005,-0.855684185680817,-0.13543738977044087,0.6275260594887275,21.125872993962403,33.43844469224281,-66.9457529355199,no_tremor
146,3796417,1.01,-0.8512922074914796,-0.1362016376250663,0.6290414564433972,22.82286825427846,35.25908477351594,-70.60746307213064,no_tremor
147,3796422,1.015,-0.8464332554153023,-0.1370922681124183,0.6307716970677204,24.50357449095939,37.034914895010935,-74.10798059424056,no_tremor
148,3796426,1.019,-0.8410967415291795,-0.13811946106451312,0.632711684047232,26.16627971299986,38.76167802433548,-77.43961299409382,no_tremor
149,3796431,1.024,-0.8352720925021924,-0.13929377343943175,0.634855908270507,27.809129539933746,40.434934230081474,-80.59499074847247,no_tremor
150,3796436,1.029,-0.8289490718612096,-0.14062599454733862,0.6371984769080391,29.43012148029903,42.05008562634654,-83.56710596771333,no_tremor
151,3796441,1.034,-0.8221181129479294,-0.14212699271802337,0.6397331386105972,31.02710124022709,43.602405134718865,-86.34935265645402,no_tremor
152,3796451,1.044,-0.8147706578448846,-0.14380755523436295,0.6424533053990333,32.59776125928356,45.087068704379206,-88.93556823766843,no_tremor
153,3796456,1.049,-0.8068994973590766,-0.1456782235362537,0.645352070934875,34.13964164124724,46.49919061292579,-91.32007592144107,no_tremor
154,3796461,1.054,-0.7984991070255079,-0.14774912585903702,0.6484222249892441,35.65013361050228,47.83386146686096,-93.49772742914774,no_tremor
155,3796466,1.059,-0.789565974031894,-0.15002980959981374,0.6516562640644833,37.126485580747705,49.0861885291549,-95.46394551741444,no_tremor
156,3796471,1.064,-0.780098909974048,-0.152529075794413,0.6550463982657224,38.56581187307478,50.25133801604889,-97.21476568778316,no_tremor
157,3796498,1.091,-0.7700993444331088,-0.15525481812890138,0.6585845546646941,39.96510406713604,51.32457901887476,-98.74687641833688,no_tremor
158,3796503,1.096,-0.7595715945249627,-0.15821386889659317,0.6622623775404686,41.32124491517717,52.301328711236586,-100.0576572139576,no_tremor
159,3796508,1.101,-0.7485231058116399,-0.1614118542399211,0.6660712260158512,42.63102469887343,53.177198488326106,-101.14521374793111,no_tremor
160,3796512,1.105,-0.7369646602842802,-0.1648530608824373,0.6700021697281969,43.89115986863606,53.94804064533548,-102.00840936748222,no_tremor
161,3796527,1.12,-0.7249105475237184,-0.16854031635979333,0.6740459832738157,45.09831377674914,54.609995134852,-102.64689226326061,no_tremor
162,3796537,1.13,-0.7123786956101705,-0.1724748845078398,0.6781931402412386,46.249119296578115,55.159535858878655,-103.06111765352587,no_tremor
163,3796542,1.135,-0.6993907588778546,-0.17665637767742945,0.6824338076968276,47.34020310468655,55.59351586945287,-103.25236440096626,no_tremor
164,3796546,1.139,-0.6859721601842075,-0.18108268684059511,0.6867578420044484,48.36821138648006,55.90921079608202,-103.22274556052948,no_tremor
165,3796551,1.144,-0.6721520859817252,-0.18574993045237395,0.6911547868489852,49.3298367062615,56.104359806074406,-102.97521244968753,no_tremor
166,3796566,1.159,-0.6579634331453318,-0.19065242265084226,0.6956138742933758,50.22184575803314,56.17720343942711,-102.51355193617958,no_tremor
167,3796576,1.169,-0.6434427072255379,-0.19578266111981055,0.7001240296344599,51.04110768471928,56.126517734109335,-101.84237674882267,no_tremor
168,3796580,1.173,-0.628629872568679,-0.20113133470258912,0.7046738807392033,51.78462262463631,55.951644153842345,-100.96710873106483,no_tremor
169,3796585,1.178,-0.613568155556718,-0.20668735063772192,0.7092517724443488,52.44955012201236,55.65251492848638,-99.89395507185273,no_tremor
170,3796590,1.183,-0.5983038030391955,-0.2124378810842353,0.7138457864911363,53.03323703020578,55.22967349599117,-98.629877661289,no_tremor
171,3796595,1.188,-0.582885798817942,-0.21836842840816603,0.7184437673399405,53.533244545270094,54.684289780346745,-97.18255582672785,no_tremor
172,3796622,1.215,-0.5673655417633751,-0.2244629085050887,0.7230333540613678,53.94737403236981,54.01817005043851,-95.56034280690773,no_tremor
173,3796627,1.22,-0.5517964897603337,-0.23070375122752226,0.7276020183246927,54.27369134401019,53.23376109089087,-93.77221641751318,no_tremor
174,3796647,1.24,-0.5362337741754556,-0.23707201677109946,0.7321371083012445,54.51054937051823,52.33414839878032,-91.82772445077184,no_tremor
175,3796652,1.245,-0.5207337898844236,-0.24354752666068027,0.7366258980802187,54.656608601151355,51.32304812725969,-89.73692543052627,no_tremor
176,3796657,1.25,-0.5053537660933187,-0.2501090077894585,0.7410556419811425,54.71085550088935,50.20479255452946,-87.5103254058839,no_tremor
177,3796661,1.254,-0.4901513232657376,-0.2567342478252604,0.745413632972166,54.672618520289376,48.984308976630444,-85.15881150612985,no_tremor
178,3796666,1.259,-0.475184021480871,-0.2634002602234531,0.7496872642921991,54.54158155664327,47.667092098125394,-82.69358299870288,no_tremor
179,3796681,1.274,-0.46050890554568075,-0.27008345707201026,0.7538640933360842,54.31779468113492,46.259170202810544,-80.12608059783477,no_tremor
180,3796686,1.279,-0.4461820521893978,-0.27675982802256077,0.7579319068862422,54.00168194708722,44.767065596982825,-77.46791477063339,no_tremor
181,3796691,1.284,-0.43225812467455627,-0.2834051236063087,0.7618787868429762,53.594046106495796,43.197749999967456,-74.73079378129444,no_tremor
182,3796695,1.288,-0.41878994013596377,-0.2899950412715273,0.7656931756981522,53.09607009202113,41.55859568421494,-71.92645219977567,no_tremor
183,3796700,1.293,-0.4058280548669863,-0.2965054124917954,0.7693639410932094,52.50931517216323,39.8573232250335,-69.06658057676341,no_tremor
184,3796705,1.298,-0.39342037257642964,-0.30291238927173536,0.7728804388840194,51.835715756562784,38.1019467081155,-66.16275695460808,no_tremor
185,3796715,1.308,-0.3816117803190846,-0.30919262831932687,0.7762325741871815,51.07757091103318,36.30071717170686,-63.22638084870641,no_tremor
186,3796720,1.313,-0.3704438163519417,-0.3153234710685423,0.7794108598948644,50.23753273137271,34.46206494146195,-60.26861029791062,no_tremor
187,3796746,1.339,-0.3599543735865516,-0.3212831176382392,0.782406472114077,49.318591813386114,32.59454136185936,-57.300302544383364,no_tremor
188,3796751,1.344,-0.35017744160209013,-0.32705079272726406,0.7852113019159369,48.32406013414853,30.706760256928533,-54.331958858817885,no_tremor
189,3796756,1.349,-0.3411428893733167,-0.33260690140633625,0.787818002690812,47.25755171497716,28.807339296027703,-51.373673971622296,no_tremor
190,3796760,1.353,-0.3328762899958331,-0.3379331728136151,0.7902200323321387,46.12296145988237,26.90484133586508,-48.43509050184173,no_tremor
191,3796765,1.358,-0.3253987878195053,-0.34301278991944034,0.7924116894546016,44.92444255202613,25.00771578318246,-45.525358694834715,no_tremor
192,3796770,1.363,-0.31872700759223765,-0.3478305037951489,0.7943881429150285,43.6663827525128,23.12424007108181,-42.65310169275761,no_tremor
193,3796775,1.368,-0.31287300451876027,-0.35237273117395435,0.7961454540481917,42.353379892508904,21.26246144426345,-39.82638647443023,no_tremor
194,3796780,1.373,-0.30784425358237455,-0.35662763449170704,0.7976805912411639,40.99021679003545,19.430139381859593,-37.05270051545585,no_tremor
195,3796784,1.377,-0.30364367607486237,-0.3605851840082074,0.7989914367295731,39.58183576153909,17.634689134411587,-34.338934135828644,no_tremor
196,3796789,1.382,-0.30026970103036316,-0.3642372020085037,0.8000767857855273,38.13331283920201,15.883126999681242,-31.691368421581778,no_tremor
197,3796794,1.387,-0.29771635915038813,-0.3675773894465756,0.8009363387567042,36.64983175237156,14.18201809575541,-29.115668531330055,no_tremor
198,3796799,1.392,-0.2959734068166236,-0.37060133570307263,0.8015706866844483,35.136657690476135,12.53742749528145,-26.616882130395815,no_tremor
199,3796804,1.397,-0.2950264778848047,-0.37330651236974166,0.8019812914521977,33.59911083947907,10.954875651279794,-24.199442636811003,no_tremor
200,3796809,1.402,-0.29485726109993615,-0.3756922521357043,0.8021704615751357,32.04253967632847,9.439299067574872,-21.867176915636843,no_tremor
201,3796819,1.412,-0.295443701131759,-0.37775971393093777,0.8021413248249792,30.472294015724575,7.995017143103153,-19.62331701994452,no_tremor
202,3796823,1.416,-0.29676022136305713,-0.37951183548315476,0.8018977988839203,28.893697828701754,6.6257060453236285,-17.47051554749028,no_tremor
203,3796828,1.421,-0.2987779666403939,-0.3809532743753152,0.8014445611380503,27.312021888968914,5.334380337735196,-15.410864161570789,no_tremor
204,3796833,1.426,-0.30146506419239155,-0.38209033856811314,0.8007870185577405,25.732456345046234,4.123382898626428,-13.445914813515508,no_tremor
205,3796838,1.431,-0.3047869008212343,-0.38293090719701184,0.7999312783815679,24.160083358609366,2.994383432357318,-11.576703203581948,no_tremor
206,3796843,1.436,-0.3087064142806211,-0.3834843422932045,0.798884120039249,22.59984998897573,1.9483856093815657,-9.803774026980332,no_tremor
207,3796869,1.462,-0.31318439648555346,-0.38376139193952696,0.7976529684400017,21.056541539276832,0.985742596432834,-8.127207572020646,no_tremor
208,3796874,1.467,-0.3181798058889247,-0.38377408528075585,0.796245868440304,19.53475561051423,0.10618047172219103,-6.54664726694721,no_tremor
209,3796884,1.477,-0.3236500860578642,-0.38353561978424433,0.7946714600157414,18.03887713278011,-0.6911712172508697,-5.061327808945518,no_tremor
210,3796889,1.482,-0.329551487255581,-0.38306024120586374,0.7929389534229057,16.57305465511446,-1.4077426790451448,-3.670103550296846,no_tremor
211,3796894,1.487,-0.3358393877429426,-0.3823631168569013,0.7910581034704214,15.141178175706658,-2.0454819254427403,-2.3714768604648566,no_tremor
212,3796913,1.506,-0.3424686115862998,-0.3814602029686288,0.7890391819304119,13.7468587850736,-2.606808722688946,-1.1636262283187226,no_tremor
213,3796918,1.511,-0.349393739981299,-0.38036810717745856,0.7868929471066113,12.393410380200118,-3.0945655174738365,-0.04443391569121754,no_tremor
214,3796927,1.52,-0.3565694134367417,-0.3791039473682333,0.7846306096206449,11.083833688523619,-3.511966356648991,0.988486978954054,no_tremor
215,3796932,1.525,-0.36395062255922106,-0.377685208286611,0.7822637935726515,9.820802815387518,-3.862544739223257,1.9377661420558725,no_tremor
216,3796937,1.53,-0.3714929855925979,-0.37612959744560837,0.7798044923680969,8.60665449598004,-4.150101240176479,2.8062504050094086,no_tremor
217,3796946,1.539,-0.37915301125997064,-0.37445490190195563,0.7772650186722359,7.443380194476439,-4.378651639023886,3.5969788591936585,no_tremor
218,3796951,1.544,-0.3868883458049441,-0.37267884747232805,0.7746579481501573,6.332621152424792,-4.5523761812215415,4.313158711055833,no_tremor
219,3796956,1.549,-0.3946580034200134,-0.37081896190995817,0.7719960568663836,5.275666447837619,-4.675570502862189,4.958141836967121,no_tremor
220,3796961,1.554,-0.40242257947739896,-0.3688924434799382,0.7692922524463089,4.273454086629349,-4.752598660697136,5.535401979085183,no_tremor
221,3796965,1.558,-0.41014444614182194,-0.3669160362651749,0.7665594993355846,3.3265751083234933,-4.787848630076774,6.048512512445114,no_tremor
222,3796991,1.584,-0.4177879300493736,-0.36490591341059314,0.763810738727053,2.4352806478455102,-4.785690560916736,6.501124709599926,no_tremor
223,3797000,1.593,-0.42531947178974844,-0.36287756937541465,0.7610588039517429,1.5994918557401308,-4.750438014036384,6.896946431690183,no_tremor
224,3797005,1.598,-0.43270776694484747,-0.36084572211559945,0.7583163323407688,0.8188125421141467,-4.686312336915626,7.2397211840667195,no_tremor
225,3797010,1.603,-0.4399238884360801,-0.35882422596344044,0.7555956747435489,0.09254437566305207,-4.597410281246611,7.5332074913021065,no_tremor
226,3797015,1.608,-0.446941389937695,-0.35682599581142144,0.7529088040194752,-0.580295562128247,-4.487674917457503,7.781158570100758,no_tremor
227,3797020,1.613,-0.45373639013820577,-0.3548629430459495,0.7502672238984086,-1.200955096051511,-4.360869865067998,7.987302306767609,no_tremor
228,3797030,1.623,-0.4602876376785406,-0.35294592351695314,0.7476818796346777,-1.7709254030085826,-4.220556831707011,8.155321575449406,no_tremor
229,3797034,1.627,-0.4665765566582462,-0.35108469767467076,0.745163071870183,-2.2919178590759017,-4.0700764361108765,8.288834961969659,no_tremor
230,3797039,1.632,-0.4725872726729813,-0.3492879028574621,0.7427203750849197,-2.765839578574091,-3.912532279442931,8.391377984201887,no_tremor
231,3797049,1.642,-0.4783066194229664,-0.3475630375757011,0.7403625619546902,-3.194767946732525,-3.7507782229845095,8.46638492276006,no_tremor
232,3797054,1.647,-0.4837241260108092,-0.3459164575079819,0.7380975348600297,-3.5809244522466006,-3.587408826693381,8.517171395172998,no_tremor
233,3797059,1.652,-0.4888319851277436,-0.34435338280813926,0.735932265699477,-3.9266481250694363,-3.4247528999140875,8.546917822594471,no_tremor
234,3797064,1.657,-0.4936250024107675,-0.34287791621606645,0.7338727450551382,-4.234368879551377,-3.2648701100982906,8.558653950176527,no_tremor
235,3797068,1.661,-0.4981005273410236,-0.3414930713728776,0.7319239416395393,-4.506581054945405,-3.1095505859809527,8.55524459026362,no_tremor
236,3797074,1.667,-0.5022583661471554,-0.3402008106620455,0.7300897728209622,-4.7458174352160345,-2.9603174375423995,8.539376761600879,no_tremor
237,3797078,1.671,-0.5061006772766251,-0.33900209183269736,0.7283730868813346,-4.954624018589548,-2.81843209554484,8.513548397906666,no_tremor
238,3797083,1.676,-0.5096318501035317,-0.33789692260877197,0.726775657507887,-5.135535794789341,-2.6849023471854374,8.480058795536808,no_tremor
239,3797088,1.681,-0.5128583676545191,-0.3368844224473451,0.7252981908585258,-5.291053774520796,-2.560492910862407,8.441000962670342,no_tremor
240,3797113,1.706,-0.5157886542570429,-0.3359628905798008,0.7239403453722495,-5.423623501234711,-2.4457383536245545,8.398256021363485,no_tremor
241,3797118,1.711,-0.5184329091496684,-0.3351298794489059,0.7227007643209182,-5.535615258941681,-2.340958113045999,8.353489798583874,no_tremor
242,3797128,1.721,-0.5208029272462901,-0.3343822726409845,0.7215771209182269,-5.629306170963009,-2.246273346228398,8.308151722572461,no_tremor
243,3797133,1.726,-0.5229119084185319,-0.33371636640272895,0.7205661756165889,-5.706864361982751,-2.1616252983808923,8.263476116209976,no_tremor
244,3797138,1.731,-0.5247742568522307,-0.33312795382452953,0.7196638450335882,-5.77033532936732,-2.0867948662690314,8.220485949094959,no_tremor
245,3797142,1.735,-0.5264053722377822,-0.33261241076537895,0.7188652817577982,-5.821630640355458,-2.0214230281728294,8.179999074693585,no_tremor
246,3797147,1.74,-0.5278214347595135,-0.3321647825883184,0.7181649640906591,-5.862519040535602,-1.9650318190060283,8.142636938780324,no_tremor
247,3797152,1.745,-0.5290391860463283,-0.3317798707704891,0.7175567945885317,-5.894620026384444,-1.9170455431656555,8.1088357016223,no_tremor
248,3797157,1.75,-0.5300757084284832,-0.33145231844859585,0.717034206078866,-5.919399900405963,-1.8768119352668382,8.078859670154591,no_tremor
249,3797162,1.755,-0.5309482050110036,-0.3311766939592334,0.716590273638511,-5.938170291742308,-1.8436229973861538,8.052816888215846,no_tremor
