sample,t_ms,t_s,ax,ay,az,gx,gy,gz,tremor
0,3665450,0.0,-0.39916892375127394,-0.5006154013865637,0.6857070833684838,3.3022283868716134,4.22879475041021,-0.02706281532134586,no_tremor
1,3665455,0.005,-0.3983872260274313,-0.5005678999131412,0.6864183261075611,3.162111013925527,3.7305131999858947,-0.03457838694885353,no_tremor
2,3665464,0.014,-0.397307283170742,-0.5004888262891789,0.6874051785345169,3.0077674770702276,3.229624336355634,-0.02332001995047601,no_tremor
3,3665469,0.019,-0.3959059657812011,-0.5003667234074374,0.6886923232062677,2.839056341608697,2.7271788716597714,0.007518189442171507,no_tremor
4,3665474,0.024,-0.3942159434906043,-0.5001930205751257,0.690254255744782,2.655932041838599,2.224247110935709,0.058615019737251764,no_tremor
5,3665479,0.029,-0.39229988072210065,-0.4999622510440479,0.6920381877264526,2.4584509555083334,1.7219176370645861,0.1305097378156738,no_tremor
6,3665484,0.034,-0.3902263332028277,-0.49967115019322833,0.6939857289232452,2.246776807388383,1.2212958642931597,0.22359047069026214,no_tremor
7,3665489,0.039,-0.38805684485526776,-0.49931769202837,0.6960446128556246,2.0211852965275536,0.7235024016971715,0.33808349620334216,no_tremor
8,3665494,0.044,-0.3858419003951522,-0.49890043712346727,0.6981724570386236,1.782067846219619,0.22967118562748198,0.47404361628683356,no_tremor
9,3665519,0.069,-0.3836214697626666,-0.4984182005785414,0.7003363508263402,1.529934382234301,-0.25905263909801246,0.631345776407174,no_tremor
10,3665523,0.073,-0.3814271543164538,-0.4978699342494565,0.7025109591832424,1.265415053233286,-0.7415150872885946,0.8096780909923635,no_tremor
11,3665528,0.078,-0.37928445345093653,-0.49725472299109236,0.7046764865519303,0.9892608173289387,-1.2165559280161735,1.0085364267340404,no_tremor
12,3665533,0.083,-0.3772146139969752,-0.49657182972587866,0.7068169961627827,0.7023428303559773,-1.683011467659161,1.2272206838332473,no_tremor
13,3665538,0.088,-0.3752359703878539,-0.4958207541974405,0.7089191758629776,0.4056505845210594,-2.1397174758954414,1.4648328996896105,no_tremor
14,3665548,0.098,-0.37336484724488456,-0.49500128904016033,0.7109714910878995,0.10028876032801692,-2.5855122097776513,1.7202772805019308,no_tremor
15,3665552,0.102,-0.37161613219577255,-0.49411356683150687,0.7129636308729868,-0.21252723053068454,-3.0192394977394668,1.9922622443449134,no_tremor
16,3665557,0.107,-0.37000361599058174,-0.4931580965911978,0.7148861611791403,-0.5314770186544949,-3.4397518568113705,2.279304535419915,no_tremor
17,3665562,0.112,-0.36854017450625715,-0.49213579022672266,0.7167303193314251,-0.8551423588876111,-3.8459136317821985,2.5797354444919853,no_tremor
18,3665567,0.117,-0.36723784596208336,-0.4910479801291316,0.7184879021681766,-1.1820154968850556,-4.236604163194173,2.891709146019118,no_tremor
19,3665572,0.122,-0.3661078400919168,-0.4898964292386642,0.7201512152663254,-1.5105087790813247,-4.610721009183231,3.21321313853893,no_tremor
20,3665577,0.127,-0.36516050415198326,-0.4886833347840188,0.7217130612367827,-1.8389654454805617,-4.96718326144151,3.5420807514836006,no_tremor
21,3665581,0.131,-0.364405262515779,-0.48741132671174753,0.7231667523895086,-2.1656715233712185,-5.304935006590347,3.876005658752173,no_tremor
22,3665586,0.136,-0.36385054117584864,-0.48608346162856264,0.7245061379621123,-2.488868718130084,-5.622948990652566,4.212558316915334,no_tremor
23,3665591,0.141,-0.3635036848880208,-0.4847032129021946,0.7257256393374993,-2.806768176860255,-5.920230545324177,4.549204223345339,no_tremor
24,3665596,0.146,-0.36337087233978754,-0.48327445741187425,0.7268202887957607,-3.1175649834563175,-6.1958218291705185,4.883323866472383,no_tremor
25,3665601,0.151,-0.3634570331755564,-0.48180145930783624,0.7277857687363062,-3.419453230500462,-6.448806424560309,5.212234216897965,no_tremor
26,3665606,0.156,-0.36376576968337054,-0.4802888510296569,0.7286184492268101,-3.7106415042171115,-6.678314313574332,5.533211584663885,no_tremor
27,3665610,0.16,-0.3642992852543208,-0.47874161174542007,0.7293154223572563,-3.989368613524173,-6.883527235332738,5.843515645065715,no_tremor
28,3665615,0.165,-0.365058321246987,-0.4771650433080591,0.729874532312369,-4.253919392746921,-7.063684404908712,6.140414413596341,no_tremor
29,3665640,0.19,-0.3660421035477899,-0.4755647437824633,0.7302944003962958,-4.502640408803789,-7.218088551772993,6.421209930649071,no_tremor
30,3665645,0.195,-0.3672482998648723,-0.47394657857704225,0.7305744444943592,-4.733955406020045,-7.346112215156659,6.683264399484053,no_tremor
31,3665650,0.2,-0.36867298859627856,-0.4723166492141396,0.7307148926620509,-4.946380323859602,-7.447204216682912,6.924026507880935,no_tremor
32,3665655,0.205,-0.3703106399514103,-0.47068125978962344,0.7307167906996783,-5.138537724574575,-7.520896219244887,7.141057655855908,no_tremor
33,3665660,0.21,-0.3721541098627247,-0.4690468811960843,0.7305820037021055,-5.309170469895503,-7.566809276925339,7.332057808999117,no_tremor
34,3665664,0.214,-0.37419464709100414,-0.46742011321048094,0.7303132116662274,-5.457154489719034,-7.5846602833375965,7.494890698825985,no_tremor
35,3665669,0.219,-0.3764219137940817,-0.4658076445730767,0.729913899297124,-5.581510492471309,-7.574268232883308,7.627608097337403,no_tremor
36,3665674,0.224,-0.3788240196905567,-0.4642162112102203,0.7293883401834627,-5.681414477100706,-7.535560218571535,7.7284729023488055,no_tremor
37,3665679,0.229,-0.3813875698045095,-0.462652552780661,0.7287415755214008,-5.7562069206932325,-7.468577099393957,7.795980783032246,no_tremor
38,3665684,0.234,-0.384097725624682,-0.4611233677558171,0.727979387562339,-5.8054005335382595,-7.373478778498263,7.828880151669833,no_tremor
39,3665689,0.239,-0.3869382793541945,-0.45963526728064824,0.7271082679519366,-5.828686494676818,-7.250549039619324,7.826190247708192,no_tremor
40,3665694,0.244,-0.38989174076839106,-0.4581947281045208,0.7261353811239066,-5.825939104173932,-7.100199893136814,7.787217142972517,no_tremor
41,3665699,0.249,-0.3929394360439462,-0.4568080449203981,0.7250685229188335,-5.7972188117015975,-6.922975385300885,7.711567501077007,no_tremor
42,3665703,0.253,-0.39606161777770826,-0.45548128250404546,0.72391607461972,-5.742773603149893,-6.719554825678514,7.599159948855982,no_tremor
43,3665708,0.258,-0.3992375852840534,-0.4542202280996604,0.722686952633408,-5.663038747397781,-6.490755389591039,7.450233943124794,no_tremor
44,3665713,0.263,-0.4024458141478892,-0.4530303445504495,0.7213905540991186,-5.558634924032567,-6.237534054584066,7.265356042735572,no_tremor
45,3665723,0.273,-0.4056640939174725,-0.4519167247177511,0.720036698768822,-5.430364769888638,-5.960988832845311,7.0454235237970355,no_tremor
46,3665728,0.278,-0.40886967274564867,-0.45088404776574487,0.7186355675740487,-5.279207898185518,-5.662359264694956,6.791665304633291,no_tremor
47,3665733,0.283,-0.412039407728034,-0.4499365379059227,0.7171976383635493,-5.106314459266046,-5.343026140763161,6.505640176035292,no_tremor
48,3665738,0.288,-0.4151499196402249,-0.44907792619213355,0.7157336193583571,-4.9129973268541,-5.004510420535318,6.189232361154861,no_tremor
49,3665762,0.312,-0.41817775074181124,-0.44831141593103696,0.7142543809185703,-4.700723008597452,-4.648471311363375,5.844644457467406,no_tremor
50,3665767,0.317,-0.4210995242919842,-0.4476396522258544,0.7127708862456386,-4.471101394197271,-4.276703465263495,5.474387839983549,no_tremor
51,3665772,0.322,-0.4238921044112322,-0.44706469610896427,0.7112941216541544,-4.225874467419941,-3.891133243410386,5.081270629504897,no_tremor
52,3665777,0.327,-0.42653275493027026,-0.4465880036488176,0.7098350270392022,-3.9669041177546145,-3.493813994050942,4.6683833509192585,no_tremor
53,3665782,0.332,-0.42899929589533986,-0.4462104103458405,0.7084044271419419,-3.6961591920303314,-3.086920291657889,4.2390824232810544,no_tremor
54,3665787,0.337,-0.43127025644872585,-0.4459321210644868,0.7070129641817784,-3.415701926244447,-2.6727410942544347,3.796971636157553,no_tremor
55,3665791,0.341,-0.4333250228703245,-0.44575270568517594,0.7056710323834596,-3.1276738948093104,-2.25367179095889,3.345881777330919,no_tremor
56,3665796,0.346,-0.43514398064387505,-0.4456711005991724,0.7043887148862246,-2.8342816099936226,-1.8322051315806285,2.889848587336794,no_tremor
57,3665801,0.351,-0.4367086494942199,-0.445685616109513,0.7031757234824125,-2.5377818991083085,-1.4109210531813168,2.433089227056204,no_tremor
58,3665806,0.356,-0.4380018104254197,-0.4457939497399316,0.7020413415957216,-2.240467180814977,-0.9924754433144715,1.9799774547101563,no_tremor
59,3665811,0.361,-0.4390076238709764,-0.4459932053899143,0.7009943708743311,-1.9446507549877725,-0.5795879047071563,1.5350177165870953,no_tremor
60,3665816,0.366,-0.4397117381454271,-0.4462799182067894,0.7000430817405334,-1.6526522137222432,-0.17502861053301466,1.1028183606538229,no_tremor
61,3665821,0.371,-0.44010138746102795,-0.446650084975227,0.6991951682054525,-1.366783075187259,0.21839563742418916,0.6880641840131421,no_tremor
62,3665825,0.375,-0.4401654788450573,-0.44709919975170936,0.6984577072242565,-1.089332737135644,0.5978560142536795,0.29548852509867485,no_tremor
63,3665830,0.38,-0.43989466736420296,-0.44762229439813406,0.6978371228337424,-0.822554842717339,0.9605167895817892,-0.07015488934035885,no_tremor
64,3665835,0.385,-0.4392814191350393,-0.4482139835967987,0.697339155280289,-0.56865414771507,1.3035507925762078,-0.4041201338208392,no_tremor
65,3665840,0.39,-0.4383200616767236,-0.4488685138606836,0.6969688353121117,-0.3297739754978767,1.6241550519592682,-0.7016971041572075,no_tremor
66,3665845,0.395,-0.4370068212470489,-0.4495798159900885,0.6967304637756079,-0.10798434362991266,1.919566437314131,-0.9582391659385471,no_tremor
67,3665850,0.4,-0.4353398468992724,-0.45034156037086254,0.6966275966211886,0.09472915606241608,2.1870771314658315,-1.1691902353798038,no_tremor
68,3665855,0.405,-0.4333192211079543,-0.4511472144619081,0.6966630353888582,0.276475643860928,2.4240497702886907,-1.3301111044823992,no_tremor
69,3665885,0.435,-0.43094695694008744,-0.45199010178115245,0.6968388232072568,0.43546832580386424,2.6279320951748577,-1.4367048325987144,no_tremor
70,3665890,0.44,-0.42822698189378555,-0.45286346167016645,0.6971562463014358,0.5700328762342873,2.7962709757309163,-1.484841038516084,no_tremor
71,3665895,0.445,-0.4251651086870095,-0.4537605090981848,0.6976158409641924,0.678614753637949,2.926725677993392,-1.4705789407062706,no_tremor
72,3665900,0.45,-0.42176899344384017,-0.4546744937564788,0.6982174059034227,0.7597853819325099,3.0170802770298613,-1.3901890082330572,no_tremor
73,3665904,0.454,-0.41804808188330306,-0.4555987576935407,0.6989600198335388,0.812247144083627,3.0652551399159225,-1.240173100710812,no_tremor
74,3665909,0.459,-0.4140135442553944,-0.4565267907494608,0.6998420641318476,0.8348371557258457,3.0693174317883054,-1.0172829920083974,no_tremor
75,3665914,0.464,-0.4096781998848747,-0.4574522830631445,0.7008612503300496,0.8265298100495659,3.027490620640022,-0.7185371879476614,no_tremor
76,3665919,0.469,-0.4050564322727671,-0.45836917394844723,0.7020146521562417,0.78643810792705,2.938162974345664,-0.3412359617465671,no_tremor
77,3665923,0.473,-0.4001640957664217,-0.45927169646607363,0.7032987417845629,0.7138138069087893,2.7998950564689524,0.11702545820866771,no_tremor
78,3665928,0.478,-0.39501841484003497,-0.46015441705932925,0.7047094298895507,0.6080464387555142,2.6114262371098182,0.6583456048280398,no_tremor
79,3665933,0.483,-0.38963787702881425,-0.46101226967568126,0.7062421090428616,0.46866125770680284,2.3716802427974675,1.2845074412948683,no_tremor
80,3665938,0.488,-0.38404212053460085,-0.46184058386414667,0.7078916999342155,0.2953161909801023,2.0797697755950355,1.9969710221081338,no_tremor
81,3665943,0.493,-0.3782518174746111,-0.46263510642152517,0.7096526998492255,0.08779786957908327,1.7350002351601481,2.7968681764540313,no_tremor
82,3665948,0.498,-0.37228855368554514,-0.46339201625821125,0.7115192327968379,-0.1539831776879874,1.3368725770704564,3.6849992344298026,no_tremor
83,3665953,0.503,-0.3661747059305722,-0.46410793226546204,0.7134851006505171,-0.4299980800010693,0.8850853358535794,4.6618318059881325,no_tremor
84,3665958,0.508,-0.35993331729414435,-0.4647799140880514,0.7155438346515236,-0.7401058391153926,0.37953583299919685,5.727501609751441,no_tremor
85,3665963,0.513,-0.3535879714958607,-0.465405455835467,0.7176887466205479,-1.0840601074466212,-0.17967941934988912,6.881815332954191,no_tremor
86,3665967,0.517,-0.3471626668150984,-0.46598247289637235,0.7199129792359641,-1.4615164299482726,-0.7922651177631285,8.124255484482953,no_tremor
87,3665972,0.522,-0.3406816902968172,-0.46650928214951193,0.722209554762642,-1.872039845871837,-1.4577283768974654,9.45398718129716,no_tremor
88,3665977,0.527,-0.3341694929083578,-0.4669845759842115,0.7245714216531363,-2.315112742670638,-2.1753807619699255,10.869866786314564,no_tremor
89,3665982,0.532,-0.3276505663381812,-0.46740739065047315,0.7269914984907694,-2.7901428505594468,-2.9443411605573098,12.370452294394934,no_tremor
90,3666006,0.556,-0.32114932216944075,-0.4677770695488463,0.7294627147989265,-3.296471262022596,-3.763539509223666,13.954015341318973,no_tremor
91,3666011,0.561,-0.31468997421928774,-0.4680932221414922,0.7319780483002745,-3.8333803558388806,-4.631721385737688,15.618554686706918,no_tremor
92,3666016,0.566,-0.30829642489671366,-0.46835567921724763,0.7345305582719565,-4.400101501371524,-5.547453470422799,17.361810996794173,no_tremor
93,3666021,0.571,-0.3019921564775375,-0.46856444527580376,0.7371134147075294,-4.995822418636336,-6.509129873182235,19.18128273176225,no_tremor
94,3666026,0.576,-0.29580012820487395,-0.46871964881210304,0.7397199230635815,-5.619694075078442,-7.514979317620633,21.074242928988973,no_tremor
95,3666031,0.581,-0.289742680087765,-0.46882149128608497,0.7423435444384924,-6.270837010838914,-8.563073169499036,23.037756667520675,no_tremor
96,3666035,0.585,-0.2838414441934404,-0.46887019555969267,0.7449779111023778,-6.948346998545411,-9.651334290808803,25.068698996276314,no_tremor
97,3666040,0.59,-0.2781172641205673,-0.4688659545762319,0.7476168373710035,-7.6512999590974,-10.777546690489698,27.163773105380645,no_tremor
98,3666055,0.605,-0.2725901232129707,-0.4688088810486583,0.7502543258931916,-8.378756070174433,-11.93936592692911,29.319528515504707,no_tremor
99,3666060,0.61,-0.2672790819348557,-0.4686989589132077,0.7528845695019328,-9.129763019144827,-13.134330196145578,31.532379055600675,no_tremor
100,3666065,0.615,-0.2622022246867999,-0.46853599729120304,0.7555019488643742,-9.90335836771759,-14.35987201526223,33.79862039827128,no_tremor
101,3666070,0.62,-0.2573766162022203,-0.46831958768161136,0.7581010262541457,-10.698571013275409,-15.613330387190935,36.11444692784605,no_tremor
102,3666074,0.624,-0.252818267530765,-0.4680490650763027,0.760676535858405,-11.51442175129937,-16.891963312132198,38.47596773030289,no_tremor
103,3666084,0.634,-0.2485421114910566,-0.46772347364617495,0.7632233711167993,-12.34992296308327,-18.192960494706625,40.879221514209746,no_tremor
104,3666089,0.639,-0.24456198736192028,-0.4673415375877472,0.7657365696639841,-13.204077471355653,-19.513456081043007,43.320190294452544,no_tremor
105,3666094,0.644,-0.24089063447814768,-0.4669016376456117,0.7682112965046795,-14.075876622724646,-20.850541247556716,45.794811694077346,no_tremor
106,3666098,0.648,-0.23753969430142574,-0.4664017937359442,0.7706428260844842,-14.964297669648845,-22.201276453168965,48.298989744282885,no_tremor
107,3666103,0.653,-0.23451972044587607,-0.4658396539909737,0.7730265239266529,-15.868300535300207,-23.562703159937605,50.828604088195846,no_tremor
108,3666130,0.68,-0.23184019604804493,-0.4652124904266161,0.7753578284832061,-16.786824051946073,-24.931854823741613,53.37951751899267,no_tremor
109,3666135,0.685,-0.22950955778236903,-0.46451720131008617,0.7776322337997299,-17.718781767958834,-26.30576695853296,55.94758180608149,no_tremor
110,3666140,0.69,-0.22753522573717466,-0.46375032017801116,0.7798452735223309,-18.663057421371803,-27.681486089827054,58.52864178597256,no_tremor
111,3666144,0.694,-0.22592363828887113,-0.4629080313366897,0.7819925066911029,-19.618500180068676,-29.05607744191003,61.1185377208283,no_tremor
112,3666149,0.699,-0.22468029105169582,-0.4619861915723558,0.7840695056766841,-20.583919750912205,-30.426631250656264,63.71310595970198,no_tremor
113,3666154,0.704,-0.22380977894550125,-0.4609803577150426,0.7860718465320212,-21.55808146238511,-31.79026765479629,66.30817797346076,no_tremor
114,3666159,0.709,-0.22331584041987607,-0.4598858196355005,0.787995101953458,-22.53970142681281,-33.144140184974496,68.89957787065144,no_tremor
115,3666164,0.714,-0.22320140290035828,-0.4586976382090226,0.789834836974404,-23.527441887942217,-34.48543793621893,71.48311853559598,no_tremor
116,3666169,0.719,-0.22346862857875244,-0.45741068775067734,0.7915866074510705,-24.51990685707194,-35.811386571971774,74.05459656115977,no_tremor
117,3666174,0.724,-0.22411895974861767,-0.4560197024108692,0.793245961343053,-25.515638136108475,-37.11924836264552,76.6097861769653,no_tremor
118,3666179,0.729,-0.22515316298061364,-0.454519326015528,0.7948084427417177,-26.513111818998976,-38.406321504271546,79.14443239908398,no_tremor
119,3666183,0.733,-0.22657137153113413,-0.4529041648384776,0.7962695985558937,-27.51073535403518,-39.669938990191085,81.65424364884811,no_tremor
120,3666188,0.738,-0.22837312547223343,-0.4511688428014471,0.7976249877265552,-28.506845238694734,-40.907467320003974,84.13488410599643,no_tremor
121,3666193,0.743,-0.2305574091134752,-0.44930805860678424,0.7988701928093612,-29.499705406452794,-42.11630532493836,86.5819660749615,no_tremor
122,3666198,0.748,-0.23312268535157377,-0.44731664431670143,0.8000008337359401,-30.487506352186134,-43.29388336705328,88.99104265274245,no_tremor
123,3666203,0.753,-0.23606692662865475,-0.4451896248989772,0.8010125835420594,-31.46836503024933,-44.43766313147151,91.35760099199513,no_tremor
124,3666208,0.758,-0.2393876422040917,-0.4429222782614123,0.8019011858344707,-32.44032554745332,-45.54513817811097,93.67705645295484,no_tremor
125,3666213,0.763,-0.2430819014497609,-0.4405101952958967,0.8026624737601624,-33.40136066219125,-46.61383535589408,95.94474793212058,no_tremor
126,3666218,0.768,-0.24714635286769915,-0.4379493394486943,0.8032923902443747,-34.34937409129632,-47.64131711306798,98.15593464429973,no_tremor
127,3666222,0.772,-0.2515772385075747,-0.43523610532879514,0.8037870092793777,-35.28220361866902,-48.625184667531784,100.30579461788216,no_tremor
128,3666227,0.777,-0.25637040343472073,-0.4323673758644313,0.8041425580766861,-36.19762499483622,-49.56308193675227,102.3894251411493,no_tremor
129,3666254,0.804,-0.26152129987323486,-0.4293405775233119,0.8043554399425329,-37.09335661423777,-50.45270007451211,104.40184536984802,no_tremor
130,3666259,0.809,-0.26702498562970634,-0.4261537331282889,0.8044222577999193,-37.96706495628188,-51.291782429827705,106.33800127347952,no_tremor
131,3666269,0.819,-0.27287611640385223,-0.42280551182756315,0.8043398383562436,-38.816370775890896,-52.078129741611484,108.19277306169889,no_tremor
132,3666274,0.824,-0.2790689316315825,-0.41929527581305037,0.8041052569930041,-39.63885602841166,-52.80960541602575,109.96098519598982,no_tremor
133,3666279,0.829,-0.28559723360134814,-0.415623123414227,0.8037158635177877,-40.43207151175113,-53.48414079508826,111.63741905707124,no_tremor
134,3666283,0.833,-0.2924543597413559,-0.41178992821952337,0.8031693089527081,-41.19354520500061,-54.09974039797219,113.21682830405011,no_tremor
135,3666288,0.838,-0.2996331481834465,-0.4077973738885225,0.8024635735265702,-41.920791277539934,-54.65448718378254,114.69395692472752,no_tremor
136,3666293,0.843,-0.30712589695029696,-0.40364798431636006,0.801596995986891,-42.61131973627151,-55.14654793666301,116.06355993665517,no_tremor
137,3666298,0.848,-0.3149243173657068,-0.3993451488017201,0.8005683042565054,-43.2626466724821,-55.57417890737296,117.32042665614087,no_tremor
138,3666303,0.853,-0.3230194825348717,-0.3948931418592444,0.7993766473372035,-43.87230506493189,-55.935731859537256,118.45940640824011,no_tremor
139,3666313,0.863,-0.33140177196787796,-0.3902971373145387,0.7980216282220794,-44.43785609220551,-56.229660664523095,119.47543650529305,no_tremor
140,3666318,0.868,-0.3400608136138908,-0.38556321633329893,0.7965033374325855,-44.95690090452557,-56.4545285677852,120.36357227595713,no_tremor
141,3666322,0.872,-0.34898542472796157,-0.3806983690715226,0.7948223866595867,-45.42709280269793,-56.60901621339621,121.1190188837457,no_tremor
142,3666327,0.877,-0.35816355310283765,-0.375710489694141,0.792979941873234,-45.84614976952922,-56.69193046516586,121.73716463685086,no_tremor
143,3666332,0.882,-0.36758222026364984,-0.37060836459316226,0.7909777551848632,-46.211867296582454,-56.70221400662626,122.21361546036304,no_tremor
144,3666337,0.887,-0.377227468245473,-0.3654016537375768,0.7888181947010131,-46.52213144555089,-56.638955643882355,122.54423017607925,no_tremor
145,3666342,0.892,-0.3870843115557308,-0.3601008651967856,0.7865042716049965,-46.774932077648316,-56.501401180559505,122.7251562115617,no_tremor
146,3666347,0.897,-0.3971366958691141,-0.3547173229871664,0.7840396637311009,-46.96837617559387,-56.28896468709591,122.75286533847527,no_tremor
147,3666352,0.902,-0.40736746491603865,-0.3492631284883894,0.7814287349543121,-47.10070117133358,-56.00123994973444,122.62418902188357,no_tremor
148,3666389,0.939,-0.41775833691042447,-0.34375111575481176,0.7786765497976381,-47.17028817966966,-55.63801185826518,122.33635294855853,no_tremor
149,3666399,0.949,-0.42828989172256493,-0.3381948011028858,0.7757888827523155,-47.17567502522586,-55.199267474921385,121.88701029443776,no_tremor
150,3666404,0.954,-0.4389415698427775,-0.33260832738670953,0.7727722219051287,-47.11556894056662,-54.68520651826349,121.27427329115858,no_tremor
151,3666409,0.959,-0.44969168400722714,-0.3270064033837572,0.7696337665634732,-46.9888588101817,-54.096250994226196,120.49674266224977,no_tremor
152,3666414,0.964,-0.4605174441742017,-0.3214042387086028,0.7663814186573108,-46.79462683956503,-53.433053711209794,119.55353452241965,no_tremor
153,3666419,0.969,-0.4713949963501222,-0.3158174746627118,0.7630237677777263,-46.53215953790951,-52.69650542671578,118.44430436585145,no_tremor
154,3666424,0.974,-0.4822994755704928,-0.310262111419513,0.7595700697878953,-46.20095791226502,-51.88774038906145,117.16926780663981,no_tremor
155,3666429,0.979,-0.49320507314319645,-0.30475443193775587,0.7560302190170948,-45.80074677717338,-51.00814005920942,115.72921777246906,no_tremor
156,3666433,0.983,-0.5040851180640059,-0.2993109229902769,0.7524147141226347,-45.331483086423184,-50.059334825890446,114.1255378896491,no_tremor
157,3666438,0.988,-0.5149121723230342,-0.29394819368593206,0.7487346177771539,-44.79336319401534,-49.04320356395728,112.36021183404314,no_tremor
158,3666443,0.993,-0.5256581396415959,-0.2886828918471329,0.7450015104078742,-44.18682895118582,-47.96187093257988,110.43582845970018,no_tremor
159,3666448,0.998,-0.5362943870136336,-0.2835316185844042,0.7412274382787332,-43.512572546293484,-46.81770236562286,108.35558255665926,no_tremor
160,3666458,1.008,-0.5467918782724617,-0.2785108413856346,0.7374248562650961,-42.771539995232274,-45.613296768212926,106.123271132447,no_tremor
161,3666463,1.013,-0.5571213187576248,-0.27363680601634405,0.7336065657239821,-41.96493319276128,-44.35147699650563,103.74328515872439,no_tremor
162,3666468,1.018,-0.5672533100136091,-0.2689254475151086,0.7297856479106698,-41.09421044091092,-43.03527825643148,101.22059677511756,no_tremor
163,3666472,1.022,-0.5771585133087873,-0.26439230057277646,0.7259753934353921,-40.161085380291425,-41.667934605947906,98.56074199553456,no_tremor
164,3666500,1.05,-0.5868078206177105,-0.260052409611716,0.7221892282919953,-39.167524264152625,-40.2528637796313,95.76979901715741,no_tremor
165,3666505,1.055,-0.5961725315638037,-0.2559202389343496,0.7184406370244434,-38.11574153278649,-38.793650572003855,92.85436228731288,no_tremor
166,3666510,1.06,-0.6052245346808031,-0.2520095833832178,0.7147430836257831,-37.008193664287745,-37.29402901536818,89.82151253461532,no_tremor
167,3666515,1.065,-0.6139364912369597,-0.248333480034172,0.7111099307838248,-35.847571292000666,-35.75786356882544,86.67878301180646,no_tremor
168,3666520,1.07,-0.6222820197943761,-0.2449041215139288,0.7075543580940391,-34.636789586377816,-34.18912950190236,83.43412222464954,no_tremor
169,3666524,1.074,-0.6302358796543976,-0.24173277158267728,0.7040892798520365,-33.37897690114693,-32.59189261848783,80.09585343648523,no_tremor
170,3666529,1.079,-0.6377741513627655,-0.2388296836498426,0.7007272630187928,-32.07746168465323,-30.970288434157613,76.67263124788897,no_tremor
171,3666534,1.084,-0.6448744125031183,-0.23620402289996356,0.6974804459268901,-30.735757659872398,-29.328500896838907,73.1733955603276,no_tremor
172,3666539,1.089,-0.6515159070834582,-0.23386379270096933,0.6943604582708895,-29.357547281792915,-27.670740726980743,69.60732324402365,no_tremor
173,3666544,1.094,-0.6576797069097162,-0.231815765953983,0.6913783429044005,-27.94666348886189,-26.00122344709487,65.98377784404057,no_tremor
174,3666549,1.099,-0.6633488634381759,-0.2300654220269376,0.6885444799544987,-26.507069776481142,-24.3241471695069,62.31225767475041,no_tremor
175,3666554,1.104,-0.6685085487000484,-0.22861688989787526,0.6858685137637303,-25.042838636237757,-22.643670213565617,58.60234267030395,no_tremor
176,3666558,1.108,-0.6731461839935164,-0.22747289812065274,0.6833592831821306,-23.55812842620287,-20.963888628820254,54.86364037562003,no_tremor
177,3666563,1.113,-0.6772515551387482,-0.22663473221708827,0.6810247557556734,-22.057158766586582,-19.28881370940093,51.10573147645721,no_tremor
178,3666568,1.118,-0.6808169131884294,-0.22610220009485774,0.6788719663903777,-20.544184591587165,-17.622349597620744,47.338115276311214,no_tremor
179,3666573,1.123,-0.6838370595796494,-0.22587360608756216,0.6769069611078278,-19.02346903109935,-15.96827109149201,43.570155531582124,no_tremor
180,3666578,1.128,-0.686309414802091,-0.22594573420866626,0.6751347465411904,-17.49925534226791,-14.330201790824107,39.81102705680526,no_tremor
181,3666588,1.138,-0.6882340697421191,-0.22631384119940118,0.6735592458433298,-15.975738157003816,-12.711592738952577,36.06966351357246,no_tremor
182,3666593,1.143,-0.6896138189427068,-0.22697165992623414,0.6721832616834135,-14.457034353403103,-11.115701739843693,32.35470680471775,no_tremor
183,3666597,1.147,-0.6904541750966593,-0.22791141363967884,0.6710084469900147,-12.947153892633224,-9.545573549418116,28.674458509725387,no_tremor
184,3666623,1.173,-0.6907633641690231,-0.22912384153690007,0.6700352840536028,-11.449970985858542,-8.004021151125105,25.036833813169448,no_tremor
185,3666628,1.178,-0.6905523006310356,-0.2305982359715361,0.6692630725290065,-9.969195967620745,-6.493608327118692,21.449318387878023,no_tremor
186,3666633,1.183,-0.6898345423938356,-0.2323224915253893,0.6686899267828776,-8.508348252212658,-5.0166337292740435,17.918928690640094,no_tremor
187,3666638,1.188,-0.688626225169133,-0.23428316600319898,0.6683127829200424,-7.0707307360933545,-3.575116641771399,14.452176103460694,no_tremor
188,3666643,1.193,-0.6869459761657408,-0.23646555324208876,0.6681274157044255,-5.659405981739846,-2.1707846117257406,11.055035304908179,no_tremor
189,3666648,1.198,-0.6848148072544165,-0.2388537674502525,0.6681284654710639,-4.277174480269342,-0.8050631080721947,7.732917188986641,no_tremor
190,3666652,1.202,-0.6822559879880064,-0.24143083861197884,0.6683094750082721,-2.926555247674291,0.5209326477669143,4.4906465721393545,no_tremor
191,3666657,1.207,-0.6792948991347728,-0.2441788183232114,0.6686629362734641,-1.6097689665290398,1.8064035534738476,1.332444849202067,no_tremor
192,3666662,1.212,-0.6759588676568064,-0.24707889525727197,0.6691803466916761,-0.3287238425283461,3.0508700929085397,-1.7380823198625097,no_tremor
193,3666667,1.217,-0.6722769843324191,-0.25011151930744663,0.6698522746715849,0.914995696827875,4.254173312909921,-4.717952285665174,no_tremor
194,3666672,1.222,-0.668279905473878,-0.25325653331519,0.6706684338594152,2.1201373752043087,5.416473246646447,-7.604807708822424,no_tremor
195,3666677,1.227,-0.6639996404241669,-0.25649331117348995,0.6716177655370404,3.285786465027857,6.538244744050177,-10.396914003650261,no_tremor
196,3666681,1.231,-0.6594693267241106,-0.2598009009984173,0.6726885284582397,4.411368199008562,7.620270694701287,-13.093152096504037,no_tremor
197,3666686,1.236,-0.6547229950202178,-0.26315817199125685,0.6738683953087218,5.496647217860104,8.663632655166046,-15.69300670975697,no_tremor
198,3666691,1.241,-0.6497953259312926,-0.2665439635700546,0.6751445548737575,6.541724105890085,9.66969892217554,-18.196550414327117,no_tremor
199,3666696,1.246,-0.6447214012076481,-0.26993723533180075,0.6765038189047367,7.547029091763733,10.64011012545671,-20.60442371822704,no_tremor
200,3666701,1.251,-0.6395364516021911,-0.2733172164120297,0.6779327325952529,8.51331301352491,11.5767624487366,-22.917811477612897,no_tremor
201,3666715,1.265,-0.6342756039303425,-0.2766635528337273,0.6794176875108886,9.441635664937436,12.481788622907047,-25.13841593123164,no_tremor
202,3666720,1.27,-0.6289736298276298,-0.2799564514782837,0.6809450357674813,10.333351654807824,13.35753686958475,-27.2684266688602,no_tremor
203,3666747,1.297,-0.6236646987189685,-0.28317681936454936,0.6825012042240703,11.190093923281498,14.206548004038943,-29.310487849533253,no_tremor
204,3666751,1.301,-0.6183821374868407,-0.28630639698568316,0.6840728074537225,12.01375507078479,15.031530931363037,-31.26766298795903,no_tremor
205,3666756,1.306,-0.6131581992576727,-0.2893278845263531,0.6856467582816455,12.80646666756074,15.835336787239758,-33.143397630314446,no_tremor
206,3666761,1.311,-0.6080238436075522,-0.2922250598643729,0.6872103747350825,13.570576724860192,16.62093198455585,-34.94148024535634,no_tremor
207,3666766,1.316,-0.6030085303162644,-0.29498288735024786,0.6887514823284075,14.308625522304075,17.391370430726372,-36.66600166298175,no_tremor
208,3666776,1.326,-0.5981400285775728,-0.29758761645412934,0.6902585107018099,15.02331999911861,18.14976517980645,-38.32131339770243,no_tremor
209,3666780,1.33,-0.593444243315731,-0.3000268694712417,0.691720583735163,15.717506929340919,18.899259780049572,-39.91198519659656,no_tremor
210,3666790,1.34,-0.5889450599770024,-0.3022897175838248,0.6931276023642436,16.394145112035854,19.64299957255124,-41.442762149020986,no_tremor
211,3666795,1.345,-0.5846642088720674,-0.3043667446910898,0.6944703194310301,17.056276816148273,20.384103190407732,-42.91852168869485,no_tremor
212,3666800,1.35,-0.5806211498496475,-0.3062500985401129,0.6957404060022634,17.706998725009,21.12563450081415,-44.34423080818234,no_tremor
213,3666805,1.355,-0.5768329777905181,-0.30793352882089897,0.6969305086913336,18.349432627442603,21.870575225139564,-45.724903791760774,no_tremor
214,3666810,1.36,-0.5733143491298354,-0.30941241202759884,0.6980342976191659,18.986696101265355,22.621798463937605,-47.06556075517109,no_tremor
215,3666815,1.365,-0.570077429348428,-0.3106837630330894,0.6990465047514157,19.62187343123743,23.382043343809862,-48.37118725957033,no_tremor
216,3666819,1.369,-0.567131861123178,-0.3117462334726485,0.6999629524525766,20.257986997375813,24.15389098957815,-49.64669524244212,no_tremor
217,3666824,1.374,-0.5644847525945325,-0.31260009718044124,0.7007805722023684,20.89796936078471,24.939742007301867,-50.89688548138136,no_tremor
218,3666829,1.379,-0.5621406849964784,-0.3132472230660046,0.7014974135250656,21.544636262857406,25.741795640791366,-52.12641177865132,no_tremor
219,3666834,1.384,-0.5601017387014741,-0.313691035953057,0.7021126432868534,22.20066074015303,26.562030736823395,-53.33974702540497,no_tremor
220,3666839,1.389,-0.5583675365602132,-0.31393646602627717,0.7026265356182108,22.86854854172036,27.40218862391398,-54.54115127400874,no_tremor
221,3666844,1.394,-0.5569353032641983,-0.3139898876400683,0.703040452815845,23.550615018290838,28.26375797847467,-55.73464191496355,no_tremor
222,3666870,1.42,-0.555799939328726,-0.31385904833395295,0.703356817669789,24.248963633826488,29.14796172223472,-56.92396602241445,no_tremor
223,3666875,1.425,-0.5549541081872365,-0.31355298896933376,0.7035790777432246,24.965466229981537,30.055745967557822,-58.11257490113101,no_tremor
224,3666880,1.43,-0.5543883348103298,-0.3130819559487616,0.7037116622018486,25.701745154584003,30.987771005478038,-59.30360084142753,no_tremor
225,3666885,1.435,-0.5540911142226213,-0.3124573064990127,0.703759931841996,26.459157348447807,31.9444043182715,-60.49983607077164,no_tremor
226,3666890,1.44,-0.5540490282955767,-0.3116914079936404,0.7037301229994279,27.23878047201286,32.92571559480755,-61.70371388357439,no_tremor
227,3666895,1.445,-0.5542468692459138,-0.3107975322644445,0.7036292860338045,28.041401143607917,33.93147372892518,-62.917291931287245,no_tremor
228,3666900,1.45,-0.5546677683613105,-0.3097897458132154,0.7034652190803933,28.867505352254536,34.96114578294432,-64.14223765855799,no_tremor
229,3666905,1.455,-0.555293328598592,-0.3086827967941355,0.7032463977445114,29.71727109808123,36.013897896241794,-65.37981587435645,no_tremor
230,3666909,1.459,-0.556103759844478,-0.30749199960020807,0.7029819013891649,30.590563302092548,37.088598111425554,-66.63087844894133,no_tremor
231,3666914,1.464,-0.5570780157862985,-0.3062331178581104,0.7026813366350688,31.486931014340843,38.18382107857979,-67.89585612918607,no_tremor
232,3666919,1.469,-0.558193931501707,-0.30492224661662404,0.7023547586567522,32.4056069353298,39.29785458253682,-69.17475246713688,no_tremor
233,3666924,1.474,-0.5594283610353273,-0.3035756945040622,0.702012590820374,33.345509249461884,40.428707820405144,-70.46713985990067,no_tremor
234,3666929,1.479,-0.5607573143808462,-0.30220986662811933,0.7016655431695423,34.30524575169427,41.57412133784709,-71.77215770231922,no_tremor
235,3666934,1.484,-0.5621560934253389,-0.30084114899416786,0.701324530226049,35.28312022984552,42.731578514091616,-73.08851265666016,no_tremor
236,3666939,1.489,-0.5635994265364179,-0.29948579522107865,0.7010005885340382,36.27714104579536,43.89831846835867,-74.41448104572771,no_tremor
237,3666948,1.498,-0.5650616015820018,-0.2981598163326657,0.7007047943394855,37.28503183986796,45.07135024459272,-75.74791337775876,no_tremor
238,3666963,1.513,-0.5665165972691417,-0.29687887439370525,0.7004481817624124,38.304244264862355,46.247468117286324,-77.08624101360458,no_tremor
239,3666968,1.518,-0.5679382127766859,-0.295658180738547,0.700241661787032,39.331972640044526,47.42326784985699,-78.426484989525,no_tremor
240,3666995,1.545,-0.5693001957426858,-0.294512399504713,0.7000959423647626,40.36517040095565,48.59516373121895,-79.76526701322635,no_tremor
241,3666999,1.549,-0.5705763687568468,-0.2934555571325228,0.7000214498965535,41.4005682082353,49.75940621893109,-81.0988226572637,no_tremor
242,3667004,1.554,-0.5717407546017702,-0.292500958427241,0.7000282523348308,42.43469356885254,50.91210003011661,-82.42301678290166,no_tremor
243,3667009,1.559,-0.5727677005775945,-0.2916611097085684,0.7001259841234859,43.46389181794299,52.04922254317935,-83.73336123870602,no_tremor
244,3667014,1.564,-0.5736320023202761,-0.2909476495002406,0.7003237731793562,44.4843483097939,53.16664240074598,-85.02503489010434,no_tremor
245,3667019,1.569,-0.574309027569537,-0.29037128714417276,0.7006301701127017,45.49211167124829,54.260138232683666,-86.29290604606906,no_tremor
246,3667024,1.574,-0.5747748403469353,-0.28994174965961544,0.7010530798879177,46.483117977374036,55.32541744392671,-87.53155735375393,no_tremor
247,3667029,1.579,-0.575006325964514,-0.28966773710655114,0.7015996961385824,47.45321571536752,56.358135034211436,-88.7353132293438,no_tremor
248,3667034,1.584,-0.5749813172059393,-0.2895568866518668,0.7022764383716591,48.39819140692014,57.35391243706341,-89.89826988299113,no_tremor
249,3667038,1.588,-0.5746787219132078,-0.28961574547471775,0.7030888923228505,49.313795760889896,58.30835638583367,-91.0143279776334,no_tremor
250,3667043,1.593,-0.5740786520772205,-0.2898497525824782,0.7040417537572635,50.19577022683351,59.21707783661283,-92.07722793604536,no_tremor
251,3667048,1.598,-0.5731625543707072,-0.29026322953975675,0.7051387760452348,51.039873816115,60.07571100050372,-93.08058787816711,no_tremor
252,3667053,1.603,-0.5719133418781711,-0.2908593800396079,0.7063827218808894,51.84191005166314,60.879932558096534,-94.01794413227212,no_tremor
253,3667058,1.608,-0.570315526572907,-0.2916402981681179,0.7077753195491633,52.59775390086263,61.62548114402414,-94.88279421990272,no_tremor
254,3667063,1.613,-0.5683553518714223,-0.29260698513108496,0.7093172241838521,53.30337853949461,62.308177197296,-95.66864216691731,no_tremor
255,3667068,1.618,-0.5660209243688118,-0.2937593741248411,0.7110079844928167,53.954881789101826,62.923943272981504,-96.36904594251673,no_tremor
256,3667073,1.623,-0.5633023436346458,-0.29509636294277386,0.7128460154547168,54.54851206625816,63.46882490260804,-96.977666775605,no_tremor
257,3667077,1.627,-0.5601918287385279,-0.29661585381532796,0.7148285775125282,55.080693679997495,63.93901207419024,-97.48832004453254,no_tremor
258,3667082,1.632,-0.5566838399883492,-0.2983147998848908,0.7169517628006515,55.54805131302472,64.33086137725343,-97.89502738402611,no_tremor
259,3667087,1.637,-0.5527751942121304,-0.30018925761906845,0.7192104889427705,55.9474335235593,64.64091882195129,-98.19206960378351,no_tremor
260,3667092,1.642,-0.5484651718041631,-0.3022344443681683,0.7215985009448511,56.2759351080594,64.86594329309952,-98.37403996800383,no_tremor
261,3667118,1.668,-0.543755613693276,-0.30444480017824427,0.7241083816798778,56.530918170485634,65.00293053995543,-98.43589734451626,no_tremor
262,3667128,1.678,-0.5386510063760236,-0.30681405288567964,0.7267315714163004,56.7100317504923,65.04913753375554,-98.37301869634825,no_tremor
263,3667133,1.683,-0.5331585531824629,-0.30933528545387157,0.7294583967795056,56.81122986995663,65.00210695401053,-98.18125035819844,no_tremor
264,3667138,1.688,-0.5272882299892763,-0.312001004482453,0.7322781094550356,56.832787863451934,64.85969150189871,-97.85695751678622,no_tremor
265,3667143,1.693,-0.5210528236438695,-0.3148032088377684,0.7351789348456405,56.77331686284124,64.62007769562251,-97.39707129862008,no_tremor
266,3667147,1.697,-0.514467951402266,-0.31773345742261777,0.738148130784967,56.63177630922096,64.28180878348806,-96.79913286125408,no_tremor
267,3667152,1.702,-0.5075520597166955,-0.3207829352142677,0.7411720562924066,56.40748436813264,63.84380641317485,-96.06133388383911,no_tremor
268,3667157,1.707,-0.5003264007503762,-0.32394251683706754,0.7442362502294251,56.10012612775712,63.30539071325922,-95.18255285964972,no_tremor
269,3667162,1.712,-0.4928149850655666,-0.3272028270846565,0.747325519589838,55.70975946572995,62.66629846851135,-94.16238660809843,no_tremor
270,3667167,1.717,-0.48504450904387664,-0.3305542979546182,0.7504240370269635,55.23681847890622,61.92669909850362,-93.00117644763057,no_tremor
271,3667172,1.722,-0.47704425576923415,-0.33398722189661567,0.7535154470913975,54.682114382542544,61.087208176276874,-91.7000285048396,no_tremor
272,3667177,1.727,-0.4688459683437644,-0.33749180109748733,0.756582980526534,54.04683380160726,60.14889824834226,-90.26082768000339,no_tremor
273,3667182,1.732,-0.46048369492017643,-0.34105819273007576,0.7596095758473974,53.33253439743527,59.11330673818965,-88.68624484546058,no_tremor
274,3667186,1.736,-0.45199360512066167,-0.3446765501756872,0.7625780073143268,52.54113779722264,57.982440732680836,-86.97973692071346,no_tremor
275,3667191,1.741,-0.4434137779657996,-0.34833706029427414,0.7654710183082623,51.67491982113808,56.75877846556895,-85.145539546566,no_tremor
276,3667196,1.746,-0.4347839619465229,-0.35202997686461823,0.7682714590189446,50.736498031494165,55.44526732744996,-83.18865216994497,no_tremor
277,3667201,1.751,-0.42614530842309956,-0.3557456503528355,0.770962427269732,49.72881666002541,54.045318249348696,-81.11481545139462,no_tremor
278,3667206,1.756,-0.4175400801105514,-0.3594745541954926,0.7735274112203167,48.65512900235519,52.56279632948785,-78.93048101817628,no_tremor
279,3667216,1.766,-0.4090113369924888,-0.36320730780738497,0.7759504326084287,47.51897740269101,51.00200760003002,-76.64277370622298,no_tremor
280,3667242,1.792,-0.4006026025772463,-0.3669346965472268,0.778216189111026,46.32417098644459,49.36768186320496,-74.25944656189729,no_tremor
281,3667252,1.802,-0.39235751395156404,-0.3706476889009986,0.7803101943233662,45.074761333421925,47.66495156670868,-71.78882900610454,no_tremor
282,3667257,1.807,-0.38431945957368585,-0.37433745117666406,0.7822189137728,43.77501631758185,45.89932674107548,-69.23976869214812,no_tremor
283,3667267,1.817,-0.3765312091544941,-0.37799536004832285,0.7839298953090224,42.429392367760656,44.07666608968039,-66.62156770530261,no_tremor
284,3667282,1.832,-0.3690345402857282,-0.38161301334141284,0.7854318921522465,41.04250542484549,42.203144402267235,-63.94391384881033,no_tremor
285,3667286,1.836,-0.3618698666852638,-0.38518223950668784,0.786714976843963,39.619100885138636,40.28521654735465,-61.21680783563517,no_tremor
286,3667291,1.841,-0.35507587304297034,-0.3886951062790056,0.7877706443401419,38.16402282870456,38.329578377902216,-58.45048725828374,no_tremor
287,3667296,1.846,-0.34868916146453316,-0.39214392904684375,0.7885919025222985,36.68218283558098,36.34312495016033,-55.65534824022911,no_tremor
288,3667301,1.851,-0.3427439144201142,-0.3955212794622476,0.7891733484842074,35.17852869126861,34.332906503470454,-52.84186568337666,no_tremor
289,3667306,1.856,-0.33727157891069204,-0.3988199947965517,0.7895112290835933,33.658013276545084,32.30608267907737,-50.02051302167603,no_tremor
290,3667310,1.86,-0.3323005762751709,-0.40203318849922925,0.7896034844276468,32.12556392745463,30.269875470896512,-47.20168237731416,no_tremor
291,3667320,1.87,-0.3278560416854094,-0.40515426235306123,0.7894497731859944,30.586052541030142,28.231521402424534,-44.39560599629675,no_tremor
292,3667325,1.875,-0.32395959692168,-0.40817692054179916,0.7890514788918044,29.04426669098281,26.198223413470792,-41.612279815327526,no_tremor
293,3667330,1.88,-0.32062915949418586,-0.4110951858537546,0.7884116966978667,27.504882004249588,24.177102921258452,-38.8613899803789,no_tremor
294,3667335,1.885,-0.3178787905854983,-0.4139034181335976,0.7875352003960919,25.972436033324303,22.17515249652431,-36.152243096668016,no_tremor
295,3667340,1.89,-0.3157185836463565,-0.41659633496801385,0.7864283898809271,24.451303841078943,20.199189569852894,-33.49370093881437,no_tremor
296,3667367,1.917,-0.31415459479931734,-0.41916903445578274,0.7850992196319885,22.94567549495904,18.255811559202446,-30.894120290958654,no_tremor
297,3667371,1.921,-0.3131888155111795,-0.4216170197771097,0.7835571091960579,21.459535646011354,16.351352788475335,-28.361298522204745,no_tremor
298,3667376,1.926,-0.3128191873107925,-0.42393622514924895,0.7818128370426629,19.99664534403206,14.491843550064688,-25.902425431477187,no_tremor
299,3667386,1.936,-0.31303965768265035,-0.426123042645286,0.7798784195227484,18.560526211580992,12.682971650974213,-23.52404181310913,no_tremor
300,3667401,1.951,-0.3138402756841084,-0.42817434926834563,0.7777669769504323,17.15444706648705,10.93004677068235,-21.23200509857599,no_tremor
301,3667405,1.955,-0.3152073253290143,-0.4300875336171795,0.7754925890402338,15.781413046681807,9.237967947183009,-19.03146232527615,no_tremor
302,3667410,1.96,-0.3171234943550309,-0.43186052144923615,0.7730701420674344,14.44415725481837,7.611194492063773,-16.926830576580272,no_tremor
303,3667415,1.965,-0.319568075641783,-0.433491799440984,0.7705151701860601,13.145134904020026,6.053720611441582,-14.921784932337445,no_tremor
304,3667420,1.97,-0.32251719826478087,-0.43498043646009027,0.7678436933484534,11.886519911115684,4.569053974344542,-13.01925386736151,no_tremor
305,3667430,1.98,-0.32594408494533117,-0.43632610169770675,0.7650720542339385,10.670203851658936,3.1601984252490167,-11.221421938983495,no_tremor
306,3667434,1.984,-0.32981933247797895,-0.4375290790588726,0.7622167565212516,9.497797163519149,1.8296409869969636,-9.529739515671649,no_tremor
307,3667439,1.989,-0.33411121157651896,-0.43859027727243594,0.7592943067356817,8.37063246324711,0.5793432476920475,-7.9449392184481615,no_tremor
308,3667444,1.994,-0.33878598247493574,-0.43951123525689073,0.7563210617683599,7.289769821299835,-0.5892628273377709,-6.467058675871158,no_tremor
309,3667449,1.999,-0.3438082225519427,-0.44029412236298265,0.7533130840012666,6.256003828128568,-1.675274667581736,-5.095469131559236,no_tremor
310,3667454,2.004,-0.349141162218095,-0.4409417332049603,0.7502860057777946,5.269872272914206,-2.6783145074700627,-3.8289093901843683,no_tremor
311,3667459,2.009,-0.3547470253119755,-0.4414574768864875,0.7472549047376149,4.331666250299737,-3.5985205258964856,-2.6655245430763608,no_tremor
312,3667463,2.013,-0.3605873702950087,-0.4418453605211246,0.74423419128989,3.4414415077249934,-4.4365338346037175,-1.6029088777818583,no_tremor
313,3667489,2.039,-0.36662342861163616,-0.442109967038256,0.7412375092349979,2.5990308466751992,-5.193481454455228,-0.638152347031463,no_tremor
314,3667494,2.044,-0.37281643669317766,-0.4422564273515725,0.7382776502675039,1.8040573947494671,-5.870955432175816,0.23211004846283842,no_tremor
315,3667499,2.049,-0.3791279582337636,-0.4422903870478106,0.7353664828103128,1.0559485710616663,-6.470988262864234,1.0116466221361784,no_tremor
316,3667503,2.053,-0.3855201935628073,-0.4422179678285192,0.7325148953529126,0.3539505743480235,-6.996024802436896,1.7045757724152826,no_tremor
317,3667508,2.058,-0.3919562731858084,-0.44204572400825215,0.7297327542073165,-0.30285676876057316,-7.448890884642674,2.3153118225265437,no_tremor
318,3667528,2.078,-0.398400532859849,-0.44178059444040807,0.727028875362596,-0.9155449478687134,-7.832758900388293,2.8485105773258286,no_tremor
319,3667533,2.083,-0.4048187678987174,-0.4414298503081765,0.7244110099166683,-1.485321645551571,-8.151110649908688,3.309015224746442,no_tremor
320,3667537,2.087,-0.41117846474868675,-0.4410010392823036,0.7218858423918988,-2.0135156725902497,-8.407697836318093,3.7018031811406678,no_tremor
321,3667542,2.092,-0.41744900822510717,-0.44050192660709725,0.719459001096219,-2.501562072449671,-8.606500627180878,4.031934443778824,no_tremor
322,3667547,2.097,-0.42360186314133885,-0.4399404337275706,0.7171350795699951,-2.950987490575344,-8.751684763354017,4.30450197016844,no_tremor
323,3667557,2.107,-0.42961072938814127,-0.43932457511100265,0.7149176680573153,-3.3633958892573044,-8.847557736111675,4.524584553217172,no_tremor
324,3667562,2.112,-0.4354516698304595,-0.4386623939446166,0.712809393856729,-3.740454674795517,-8.898524580104674,4.697202604945644,no_tremor
325,3667566,2.116,-0.4411032106809712,-0.43796189740839875,0.7108119693407127,-4.083881291279368,-8.909043838091137,4.827277201222683,no_tremor
326,3667571,2.121,-0.446546414290792,-0.4372309922301465,0.7089262463867856,-4.39543032491082,-8.88358424271146,4.9195926772898675,no_tremor
327,3667576,2.126,-0.4517649245736666,-0.4364774212310254,0.7071522759385666,-4.6768811541476545,-8.82658263270536,4.978762999846076,no_tremor
328,3667581,2.131,-0.4567449855554131,-0.4357087015668957,0.7054893714142637,-4.930026173297306,-8.742403579964218,5.009202077648143,no_tremor
329,3667611,2.161,-0.4614754338165939,-0.43493206536572215,0.7039361747045826,-5.156659610024678,-8.635301154366402,5.015098110615252,no_tremor
330,3667616,2.166,-0.46594766587038106,-0.4341544034552966,0.7024907235523409,-5.358566950647198,-8.509383199667282,5.000392018682625,no_tremor
331,3667631,2.181,-0.47015558178081585,-0.4333822128662496,0.7011505191818543,-5.537514982011706,-8.368578439845395,4.968759937386351,no_tremor
332,3667640,2.19,-0.4740955065651628,-0.43262154877811715,0.6999125931460692,-5.6952424565305195,-8.216606685411367,4.923599718751864,no_tremor
333,3667645,2.195,-0.4777660911233017,-0.4318779815459376,0.6987735724805996,-5.833451388022606,-8.056952366760573,4.868021334425401,no_tremor
334,3667650,2.2,-0.48116819458907617,-0.4311565593991712,0.6977297423912904,-5.953798988927121,-7.8928415882672525,4.804841043070277,no_tremor
335,3667660,2.21,-0.4843047501043025,-0.43046177734469393,0.6967771058489488,-6.057890261916386,-7.727222871497689,4.7365791553055985,no_tremor
336,3667665,2.215,-0.48718061608262936,-0.42979755273376896,0.6959114396144825,-6.147271259572468,-7.562751735369379,4.665461206385152,no_tremor
337,3667674,2.224,-0.48980241506566846,-0.4291672078713997,0.6951283463639059,-6.2234230248045685,-7.40177924062358,4.593422328545202,no_tremor
338,3667684,2.234,-0.4921783622845671,-0.4285734599565557,0.6944233027207353,-6.287756223153631,-7.24634460091834,4.522114600003186,no_tremor
339,3667689,2.239,-0.4943180860317964,-0.4280184185441839,0.6937917031293165,-6.341606477284344,-7.098171929835864,4.452917134490968,no_tremor
340,3667693,2.243,-0.4962324419250829,-0.42750359061568155,0.6932288996137497,-6.386230414754916,-6.958671150872395,4.386948663236094,no_tremor
341,3667698,2.248,-0.4979333231127729,-0.42702989323538615,0.6927302375617199,-6.4228024428059225,-6.828943046895278,4.325082350332734,no_tremor
342,3667703,2.253,-0.4994334684320081,-0.42659767365915857,0.6922910877507338,-6.452412267600905,-6.709788369068869,4.267962572346516,no_tremor
343,3667708,2.258,-0.5007462704917683,-0.42620673665013237,0.6919068748974141,-6.476063178531346,-6.601720865899515,4.216023383541795,no_tremor
344,3667733,2.283,-0.5018855856148593,-0.42585637864861087,0.6915731030606365,-6.494671119463947,-6.504984033327717,4.1695083791394385,no_tremor
345,3667738,2.288,-0.5028655475374041,-0.42554542833945475,0.6912853782675183,-6.509064567562663,-6.419571328437447,4.128491660390905,no_tremor
346,3667748,2.298,-0.5037003867300164,-0.4252722930614325,0.691039428756242,-6.519985236571379,-6.345249533769909,4.0928995969438615,no_tremor
347,3667753,2.303,-0.5044042571677868,-0.42503501040803665,0.6908311232372562,-6.5280896151801135,-6.281584907270174,4.062533074198399,no_tremor
348,3667767,2.317,-0.5049910723317492,-0.4248313042765744,0.6906564875597978,-6.533951342129895,-6.227971703879419,4.037089906597186,no_tremor
