sample,t_ms,t_s,ax,ay,az,gx,gy,gz,tremor
0,3872739,0.0,-0.46723402890767335,-0.4443803052188414,0.6800098624792659,2.699463966088392,2.4866792219450424,-3.4292712569255603,no_tremor
1,3872744,0.005,-0.46730315824228696,-0.44439223856834215,0.6799524574905744,2.9443740596333328,2.5486581177392744,-3.581905505722436,no_tremor
2,3872753,0.014,-0.46737688913737446,-0.44442377023205387,0.6798938168804209,3.188156216395444,2.613211039873654,-3.7438362548180617,no_tremor
3,3872758,0.019,-0.4674402547614769,-0.44448612400489723,0.6798473484619714,3.4288752008888195,2.6800282699204043,-3.9131794231278287,no_tremor
4,3872763,0.024,-0.46747183068607345,-0.4445899131198777,0.6798311041394234,3.6644664681380386,2.7487251619912265,-4.087781513029138,no_tremor
5,3872768,0.029,-0.46744889651182403,-0.44474355933919535,0.679863221610493,3.892741277738148,2.818836601624034,-4.265215146193859,no_tremor
6,3872777,0.038,-0.46735056651334334,-0.4449530950772157,0.6799593988078975,4.11139295781073,2.889811854981107,-4.442776227217907,no_tremor
7,3872792,0.053,-0.46715873582368556,-0.4452226172565247,0.6801323110959652,4.318004338049511,2.961009898935616,-4.617482846023995,no_tremor
8,3872797,0.058,-0.4668578496302664,-0.4455548363725881,0.6803919958484849,4.51005636345133,3.031695314032199,-4.786076028911696,no_tremor
9,3872802,0.063,-0.46643430727434626,-0.44595148947752944,0.6807464867510262,4.6849378920906215,3.101034812262903,-4.945022445712231,no_tremor
10,3872807,0.068,-0.46587590067792584,-0.4464135851497422,0.681202370546963,4.8399566713899365,3.168094460933759,-5.090519176892594,no_tremor
11,3872811,0.072,-0.4651714121133593,-0.44694152037089585,0.6817651792933881,4.972351477715212,3.2318376537298885,-5.218500639816012,no_tremor
12,3872816,0.077,-0.46431037275096815,-0.44753511735210477,0.682439631791537,5.079305393510101,3.2911238711510316,-5.324647767674983,no_tremor
13,3872841,0.102,-0.4632829455377989,-0.44819361654431433,0.6832297642557036,5.15796018429412,3.344708264662715,-5.404399527861683,no_tremor
14,3872846,0.107,-0.4620798937629157,-0.44891564879788276,0.6841389879436617,5.205431724751344,3.3912420920166872,-5.452966858763421,no_tremor
15,3872851,0.112,-0.46069260506860793,-0.4496991999263105,0.6851701018331516,5.218826409311288,3.4292740263733346,-5.465349094719726,no_tremor
16,3872856,0.117,-0.4591131498853622,-0.45054157487552254,0.6863252792695204,5.19525846891173,3.457252361118994,-5.4363529370123596,no_tremor
17,3872861,0.122,-0.4573343604829992,-0.4514393652389196,0.6876060407255352,5.131868102984494,3.473528135981632,-5.360614013202914,no_tremor
18,3872865,0.126,-0.4553499218024806,-0.4523884219929295,0.6890132202836352,5.025840324660434,3.476359215755093,-5.232621047825346,no_tremor
19,3872875,0.136,-0.45315446844514495,-0.45338383437367324,0.6905469305803092,4.874424407625791,3.4639153574616612,-5.046742645370034,no_tremor
20,3872885,0.146,-0.450743684192549,-0.4544199153568536,0.6922065291846172,4.674953814460828,3.434284303581019,-4.797256662750584,no_tremor
21,3872895,0.156,-0.448114401636615,-0.45549019400269886,0.6939905883094004,4.424866478188015,3.385478937950236,-4.478382123307908,no_tremor
22,3872899,0.16,-0.44526470020945347,-0.4565874148545574,0.6958968691032327,4.121725301027958,3.315445537083158,-4.084313597290553,no_tremor
23,3872904,0.165,-0.4421940013044224,-0.4577035445619485,0.6979223013726252,3.763238727149057,3.2220731429865883,-3.609257943832252,no_tremor
24,3872909,0.17,-0.43890315939354885,-0.45882978589763007,0.7000629693326672,3.3472812395773914,3.1032040748940344,-3.047473276553167,no_tremor
25,3872914,0.175,-0.4353945481458532,-0.4599565993328785,0.7023141038171317,2.8719136254479847,2.9566455881419134,-2.393309980143003,no_tremor
26,3872924,0.185,-0.4316721405838445,-0.46107373231567234,0.704670081258486,2.335402848866195,2.780182679627797,-1.6412535706691502,no_tremor
27,3872928,0.189,-0.4277415823123077,-0.4621702563591337,0.7071244296520085,1.7362413674912742,2.571592031085952,-0.7859691595743747,no_tremor
28,3872933,0.194,-0.423610256834677,-0.4632346119923669,0.7096698416336434,1.0731657276011615,2.3286570740525994,0.17765274927998242,no_tremor
29,3872938,0.199,-0.41928734195129885,-0.46425466155463957,0.7122981947215665,0.34517427209032947,2.049184154515566,1.2544494294332842,no_tremor
30,3872967,0.228,-0.4147838562199938,-0.4652177497294933,0.715000578693418,-0.448456203868449,1.7310197709202924,2.4489383971526335,no_tremor
31,3872972,0.233,-0.4101126944585302,-0.46611077162112124,0.7177673299935164,-1.3081550133191593,1.3720688550897024,3.7652695290297173,no_tremor
32,3872981,0.242,-0.4052886512832973,-0.4669202480749995,0.7205880729878867,-2.2340435146398097,0.9703140591457603,5.207177215646103,no_tremor
33,3872986,0.247,-0.40032843170728444,-0.46763240784247795,0.7234517678124683,-3.225922580733045,0.5238359999069456,6.777932961281814,no_tremor
34,3872991,0.252,-0.3952506478601684,-0.4682332760885351,0.7263467644947125,-4.283261749849583,0.03083439382438041,8.480298865226391,no_tremor
35,3872996,0.257,-0.3900758009416459,-0.46870876864531996,0.729260862972411,-5.405190200830057,-0.5103500093040243,10.316482443968956,no_tremor
36,3873001,0.262,-0.38482624757653044,-0.46904479132198207,0.7321813785851251,-6.5904896868936005,-1.1012128148074294,12.288093272786472,no_tremor
37,3873006,0.267,-0.37952614980908206,-0.4692273434934654,0.7350952125710827,-7.837589550688265,-1.7430628459822988,14.396101937878054,no_tremor
38,3873015,0.276,-0.3742014080579612,-0.4692426251074353,0.7379889270641508,-9.144563929309355,-2.4369986650370286,16.64080179534487,no_tremor
39,3873020,0.281,-0.3688795764555499,-0.46907714616981894,0.740848824050245,-10.509131242052282,-3.183884967046852,19.021774030687762,no_tremor
40,3873035,0.296,-0.3635897601192943,-0.46871783769652897,0.7436610277097123,-11.928656035776841,-3.9843290922978603,21.5378565016629,no_tremor
41,3873040,0.301,-0.3583624940506461,-0.46815216305329177,0.7464115695418928,-13.40015324228592,-4.838657931743304,24.1871168281063,no_tremor
42,3873044,0.305,-0.3532296035304324,-0.46736822854923676,0.7490864756407962,-14.920294879252621,-5.746895527741328,26.966830165573715,no_tremor
43,3873049,0.31,-0.3482240460780029,-0.466354892105773,0.7516718554672417,-16.4854192024755,-6.708741696839516,29.873462066978412,no_tremor
44,3873054,0.315,-0.34337973526412785,-0.46510186879316073,0.754153991443117,-18.09154229394972,-7.723552022257633,32.90265679842849,no_tremor
45,3873059,0.32,-0.33873134691274026,-0.46359983201541893,0.7565194286771046,-19.734372047267595,-8.790319580137094,36.04923143048127,no_tremor
46,3873085,0.346,-0.33431410849251325,-0.46184050913131774,0.7587550641173665,-21.409324488141944,-9.90765877458517,39.30717597145215,no_tremor
47,3873090,0.351,-0.3301635727834148,-0.4598167703261765,0.7608482344149501,-23.111542342902478,-11.073791660803943,42.66965974470665,no_tremor
48,3873095,0.356,-0.3263153772005935,-0.4575227095967244,0.7627868017737937,-24.835915742798854,-12.286537132278735,46.12904414053346,no_tremor
49,3873100,0.361,-0.3228049904593681,-0.4549537167793421,0.764559237062924,-26.577104929326218,-13.543303336912512,49.67690180128903,no_tremor
50,3873105,0.366,-0.3196674485602001,-0.45210653963925906,0.7661546994773708,-28.329564807404743,-14.841083667945242,53.30404222989481,no_tremor
51,3873114,0.375,-0.31693708235282453,-0.4489793351421336,0.7675631120571037,-30.087571178566343,-16.176456647488283,57.000543745327505,no_tremor
52,3873129,0.39,-0.31464723919898924,-0.4455717091469163,0.7687752324053442,-31.845248473284734,-17.545589981844547,60.755791641176394,no_tremor
53,3873134,0.395,-0.3128300014892342,-0.4418847438873763,0.769782717985293,-33.59659878917567,-18.944249017044033,64.55852233402888,no_tremor
54,3873139,0.4,-0.31151590497418263,-0.4379210127469891,0.7705781854150243,-35.335532031211464,-20.36780976016525,68.39687322062221,no_tremor
55,3873144,0.405,-0.31073366003559927,-0.4336845819764325,0.7711552632229747,-37.055896943307154,-21.811276559282494,72.25843790033261,no_tremor
56,3873149,0.41,-0.3105098791386949,-0.4291809991542477,0.7715086375709229,-38.751512817542974,-23.269304456573245,76.13032636381509,no_tremor
57,3873154,0.415,-0.31086881377113496,-0.42441726835023535,0.7716340904977942,-40.41620166513223,-24.736226149838647,79.99922969771352,no_tremor
58,3873159,0.42,-0.31183210418643936,-0.4194018121195049,0.7715285302863434,-42.043820629092835,-26.2060834204395,83.85148880684191,no_tremor
59,3873163,0.424,-0.31341854523134716,-0.414144420633876,0.7711900136066032,-43.62829441143758,-27.672662811310264,87.67316660639499,no_tremor
60,3873168,0.429,-0.315643871448365,-0.4086561884464454,0.7706177591464515,-45.16364747794781,-29.12953526675787,91.45012308435996,no_tremor
61,3873178,0.439,-0.31852056450482036,-0.4029494395830522,0.7698121525030354,-46.64403579159709,-30.57009937528106,95.16809257622802,no_tremor
62,3873215,0.476,-0.32205768580620703,-0.39703764185753004,0.7687747421820796,-48.06377781191322,-31.987627787224042,98.81276253170519,no_tremor
63,3873220,0.481,-0.3262607369021843,-0.39093531150819966,0.7675082266388544,-49.417384484521214,-33.37531631187007,102.36985299361925,no_tremor
64,3873225,0.486,-0.33113154998723165,-0.38465790943639677,0.7660164323983178,-50.69958793904182,-34.72633513762825,105.82519596743913,no_tremor
65,3873229,0.49,-0.3366682104370755,-0.3782217304744724,0.7643042834145666,-51.90536862211758,-36.03388157003174,109.16481385336238,no_tremor
66,3873234,0.495,-0.3428650129135435,-0.37164378720536106,0.7623777619692471,-53.02998061834003,-37.29123364866762,112.37499614905755,no_tremor
67,3873239,0.5,-0.34971245212415364,-0.36494168989596215,0.7602438615584535,-54.068974950001255,-38.49180398474198,115.44237369958759,no_tremor
68,3873244,0.505,-0.35719724884797494,-0.3581335241012463,0.7579105323684903,-55.01822068864532,-39.6291931528985,118.35398985300091,no_tremor
69,3873249,0.51,-0.36530241134369595,-0.35123772745728365,0.7553866200831265,-55.87392375260488,-40.69724197218035,121.09736796203826,no_tremor
70,3873254,0.515,-0.374007331745374,-0.344272967118057,0.7526817988904,-56.632643304531825,-41.690082019833596,123.66057475019511,no_tremor
71,3873278,0.539,-0.38328791653151895,-0.33725801920739934,0.7498064996593867,-57.291305701867074,-42.602183735839176,126.0322791352543,no_tremor
72,3873288,0.549,-0.39311674963157883,-0.3302116515552791,0.7467718343324812,-57.84721599066979,-43.42840149507239,128.20180617804763,no_tremor
73,3873293,0.554,-0.4034632862241372,-0.32315251086653285,0.743589517623783,-58.298066967677194,-44.164015050615056,130.15918590123758,no_tremor
74,3873298,0.559,-0.41429407480415753,-0.3160990153284032,0.7402717871263432,-58.641945865335416,-44.80476679088315,131.895196803968,no_tremor
75,3873303,0.564,-0.42557300467419934,-0.30906925350097336,0.7368313229081092,-58.87733873911256,-45.34689430810551,133.40140398226504,no_tremor
76,3873307,0.568,-0.43726157565825846,-0.3020808901573787,0.7332811676194002,-59.003132656097996,-45.78715784531356,134.67019184787011,no_tremor
77,3873334,0.595,-0.44931918654404385,-0.29515107955966025,0.7296346480488947,-59.018615799974945,-46.12286227004672,135.69479151478714,no_tremor
78,3873348,0.609,-0.4617034385216986,-0.28829638648427247,0.7259052989578281,-58.923475621145634,-46.35187331394411,136.46930299006561,no_tremor
79,3873353,0.614,-0.47437044970534903,-0.28153271515939027,0.722106789900314,-58.71779517208729,-46.47262791978149,136.9887123618984,no_tremor
80,3873358,0.619,-0.48727517671671716,-0.2748752461507272,0.7182528556067991,-58.40204777527248,-46.484138651752865,137.24890422318236,no_tremor
81,3873363,0.624,-0.5003717393019276,-0.2683383811346126,0.7143572303724498,-57.97709017202907,-46.38599224529191,137.2466696014827,no_tremor
82,3873368,0.629,-0.5136137440535019,-0.2619356954229855,0.7104335867576449,-57.44415429462046,-46.17834248863943,136.97970968677552,no_tremor
83,3873373,0.634,-0.5269546035058752,-0.25567989804902413,0.7064954787784504,-56.804837791544806,-45.86189772969574,136.44663565766578,no_tremor
84,3873377,0.638,-0.540347847137775,-0.24958279917873918,0.7025562896443734,-56.061093419627504,-45.437903383440535,135.64696490688507,no_tremor
85,3873382,0.643,-0.5537474211226912,-0.24365528457820199,0.6986291839905818,-55.21521739795728,-44.908119876597574,134.58111395905001,no_tremor
86,3873387,0.648,-0.56710797400128,-0.2379072968342308,0.6947270644527623,-54.269836799557595,-44.274796508750995,133.25038835839,no_tremor
87,3873392,0.653,-0.5803851257959668,-0.23234782299600706,0.6908625323451929,-53.22789603794432,-43.54064173555818,131.65696978195453,no_tremor
88,3873397,0.658,-0.5935357184415782,-0.22698488827640148,0.6870478521270036,-52.09264248864034,-42.70879039345172,129.80390060569707,no_tremor
89,3873407,0.668,-0.6065180457614828,-0.22182555542731064,0.683294919278829,-50.867611271835386,-41.78276838958942,127.69506611817778,no_tremor
90,3873411,0.672,-0.619292061572551,-0.2168759293869768,0.679615231163277,-49.55660921276862,-40.76645537841639,125.33517454095339,no_tremor
91,3873416,0.677,-0.631819564852836,-0.21214116679332706,0.6760198604092629,-48.16369799099318,-39.66404593843355,122.72973497744248,no_tremor
92,3873421,0.682,-0.6440643612549538,-0.20762548996955485,0.6725194303438785,-46.69317648764825,-38.480009749774645,119.88503337443458,no_tremor
93,3873426,0.687,-0.655992400598312,-0.20333220501908886,0.6691240919976117,-45.14956234069516,-37.21905125510006,116.80810654400295,no_tremor
94,3873431,0.692,-0.6675718903252011,-0.19926372371770545,0.6658435022303945,-43.537572721909235,-35.88606926471103,113.50671426019724,no_tremor
95,3873458,0.719,-0.678773385256521,-0.1954215889596545,0.6626868025670838,-41.86210435653088,-34.48611694463118,109.98930941579415,no_tremor
96,3873462,0.723,-0.689569854326112,-0.1918065035975838,0.6596625983895366,-40.128212816320364,-33.02436260602683,106.26500619948524,no_tremor
97,3873472,0.733,-0.6999367252969249,-0.18841836260212702,0.6567789382033282,-38.34109112720252,-31.50605169534707,102.34354623157502,no_tremor
98,3873477,0.738,-0.7098519087509932,-0.18525628853963233,0.6540432927726941,-36.50604774062714,-29.93647036357554,98.23526257459686,no_tremor
99,3873482,0.743,-0.7192958028801969,-0.18231867040913394,0.6514625339906176,-34.62848392141751,-28.320910965472656,93.95104151456621,no_tremor
100,3873487,0.748,-0.7282512807725933,-0.1796032058841841,0.649042913420179,-32.71387060538573,-26.664639802386645,89.50228199262779,no_tremor
101,3873492,0.753,-0.7367036619848589,-0.17710694697417556,0.6467900405114091,-30.767724780478794,-24.972867374259078,84.9008525605682,no_tremor
102,3873497,0.758,-0.7446406702187207,-0.17482634906225272,0.644708860569819,-28.795585448721464,-23.25072134886175,80.15904574080928,no_tremor
103,3873501,0.762,-0.7520523788873658,-0.17275732320288317,0.6428036326320352,-26.80298923483603,-21.503222391195838,75.28952969447406,no_tremor
104,3873506,0.767,-0.7589311462787681,-0.17089529148019167,0.6410779074914872,-24.79544572240595,-19.73526292665463,70.30529714147242,no_tremor
105,3873511,0.772,-0.7652715419099971,-0.16923524514467447,0.6395345062111917,-22.778412620075834,-17.951588842409063,65.21961153491074,no_tremor
106,3873526,0.787,-0.7710702655333499,-0.1677718051653226,0.638175499557554,-20.757270887429833,-16.156784066849873,60.0459505683738,no_tremor
107,3873541,0.802,-0.7763260601137304,-0.1664992847590944,0.6370021888829336,-18.737299980473324,-14.355257910006948,54.79794718801681,no_tremor
108,3873555,0.816,-0.781039619955987,-0.16541175339110764,0.6360150890666258,-16.723653406838352,-12.551235001415806,49.489328389148035,no_tremor
109,3873582,0.843,-0.7852134950241993,-0.16450310167683532,0.6352139141811921,-14.721334807251555,-10.748747629537338,44.13385219181337,no_tremor
110,3873587,0.848,-0.7888519923584734,-0.16376710656224847,0.6345975665703284,-12.735174798618573,-8.951630272066692,38.74524329923881,no_tremor
111,3873592,0.853,-0.7919610753516968,-0.16319749611159837,0.6341641299991859,-10.769808821798234,-7.163516108724502,33.33712803159998,no_tremor
112,3873602,0.863,-0.7945482614974633,-0.16278801320015998,0.6339108674737886,-8.829656231776097,-5.387835320393424,27.92296918424002,no_tremor
113,3873606,0.867,-0.7966225190703832,-0.16253247739577206,0.6338342242371277,-6.918900850819822,-3.6278149910769057,22.51600148374512,no_tremor
114,3873616,0.877,-0.7981941630678006,-0.1624248443208157,0.6339298363497575,-5.041473180866655,-1.8864804361160117,17.129168316595166,no_tremor
115,3873631,0.892,-0.7992747506436851,-0.16245926181451598,0.6341925451605388,-3.2010344446511865,-0.16665778077997404,11.775060393761185,no_tremor
116,3873636,0.897,-0.7998769762113019,-0.16263012226125753,0.6346164178705599,-1.4009625982210308,1.5290223900686342,6.465856995485913,no_tremor
117,3873641,0.902,-0.8000145663821673,-0.16293211051008175,0.6351947742880846,0.3556595698352335,3.1981204950451567,1.2132704134420575,no_tremor
118,3873655,0.916,-0.7997021749360712,-0.16336024687912412,0.6359202197607822,2.0660541663423486,4.838382718202268,-3.9715058293324907,no_tremor
119,3873660,0.921,-0.7989552780651868,-0.16390992481172814,0.63678468415091,3.7277556943085677,6.447735253420253,-9.077844447444786,no_tremor
120,3873665,0.926,-0.7977900701878071,-0.16457694282433524,0.6377794665906763,5.338616305348625,8.02427820613029,-14.095727073761283,no_tremor
121,3873670,0.931,-0.7962233606708736,-0.16535753045746357,0.6388952856242383,6.896808815338991,9.566279313715,-19.015781737050833,no_tremor
122,3873675,0.936,-0.7942724718289293,-0.16624836800938775,0.6401223342176275,8.400827525362562,11.072167629629133,-23.829314789422625,no_tremor
123,3873705,0.966,-0.7919551385818653,-0.1672465998983972,0.6414503390059516,9.849486916676566,12.540527298582214,-28.528337004542546,no_tremor
124,3873710,0.971,-0.7892894101614624,-0.1683498415660365,0.6428686230550371,11.241918310179749,13.970091530902527,-33.10558363380915,no_tremor
125,3873720,0.981,-0.7862935542638755,-0.1695561799040105,0.6443661713492429,12.577564597322448,15.359736862857828,-37.55452827401124,no_tremor
126,3873724,0.985,-0.7829859640538516,-0.1708641672650347,0.6459316981860832,13.856173161209322,16.708477766156786,-41.86939047258264,no_tremor
127,3873734,0.995,-0.7793850684324297,-0.17227280920378463,0.6475537156658757,15.07778711529276,18.01546164446766,-46.045137078759296,no_tremor
128,3873744,1.005,-0.7755092459750786,-0.17378154618435915,0.6492206025075488,16.242734994528686,19.279964228167096,-50.07747743755845,no_tremor
129,3873749,1.01,-0.7713767429242946,-0.1753902295775215,0.6509206724900094,17.35161904148522,20.501385352028986,-53.962852612280116,no_tremor
130,3873753,1.014,-0.7670055955768269,-0.1770990923462564,0.6526422419005701,18.405302237171647,21.679245076743108,-57.69841890578142,no_tremor
131,3873758,1.019,-0.7624135573439123,-0.17890871487646307,0.6543736954589537,19.404894231303135,22.813180096915318,-61.282026029290996,no_tremor
132,3873763,1.024,-0.7576180306905983,-0.18081998644939162,0.6561035502720941,20.351736327488535,23.90294036707801,-64.71219033843765,no_tremor
133,3873768,1.029,-0.7526360040867786,-0.18283406287566029,0.6578205174589291,21.247385674964637,24.948385872678184,-67.98806361677477,no_tremor
134,3873773,1.034,-0.7474839940365845,-0.18495232082139315,0.6595135611651926,22.09359881081445,25.949483473384443,-71.10939793476905,no_tremor
135,3873777,1.038,-0.7421779922005194,-0.1871763093600388,0.6611719547664763,22.89231468625927,26.906303750029462,-74.07650714604992,no_tremor
136,3873782,1.043,-0.736733417589379,-0.18950769928349426,0.662785334134655,23.645637298270636,27.81901779324757,-76.89022560334168,no_tremor
137,3873787,1.048,-0.7311650737913107,-0.1919482307070954,0.6643437479190585,24.35581803339573,28.687893880421996,-79.55186468494117,no_tremor
138,3873797,1.058,-0.7254871111923719,-0.1944996595070964,0.6658377048701197,25.025237814069026,29.513293996630065,-82.06316771945343,no_tremor
139,3873802,1.063,-0.7197129941646706,-0.19716370313706832,0.6672582183097783,25.65638911873547,30.29567016371573,-84.42626388224508,no_tremor
140,3873829,1.09,-0.7138554732214616,-0.1999419863806645,0.6685968479293912,26.25185792617978,31.03556054871354,-86.64362161299732,no_tremor
141,3873838,1.099,-0.707926562170504,-0.20283598761124857,0.6698457391706695,26.81430561267017,31.733585327661284,-88.71800207256818,no_tremor
142,3873853,1.114,-0.7019375203278527,-0.20584698614208818,0.6709976605134736,27.346450810407863,32.390442281240404,-90.65241312331285,no_tremor
143,3873858,1.119,-0.6958988398737674,-0.20897601126127066,0.6720460390470707,27.85105122095274,33.006902091969515,-92.45006428450262,no_tremor
144,3873863,1.124,-0.6898202384303393,-0.21222379354926932,0.6729849947268819,28.33088537061674,33.58380329817222,-94.11432308563867,no_tremor
145,3873868,1.129,-0.683710656910758,-0.2155907190700927,0.6738093737070493,28.788734296503584,34.12204684083801,-95.64867321363111,no_tremor
146,3873873,1.134,-0.6775782626333727,-0.21907678700617472,0.6745147810867259,29.227363159753114,34.62259012166474,-97.05667482148384,no_tremor
147,3873877,1.138,-0.6714304576159229,-0.22268157127140853,0.6750976133183733,29.649502793748184,35.08644047977571,-98.34192733376668,no_tremor
148,3873882,1.143,-0.6652738918750755,-0.22640418658679848,0.6755550904077047,30.05783120726673,35.51464799449693,-99.50803504685233,no_tremor
149,3873887,1.148,-0.6591144814621743,-0.23024325944267343,0.6758852878969371,30.454955074406335,35.908297533205584,-100.5585757794289,no_tremor
150,3873892,1.153,-0.6529574308751127,-0.23419690430753196,0.6760871684750753,30.843391253955232,36.26849998598831,-101.49707278137099,no_tremor
151,3873897,1.158,-0.6468072594046826,-0.23826270538471625,0.676160612909353,31.22554839084414,36.59638266185199,-102.32697005758924,no_tremor
152,3873902,1.163,-0.6406678309073018,-0.24243770416714433,0.6761064498475393,31.603708662224427,36.89307886400338,-103.05161120932264,no_tremor
153,3873907,1.168,-0.634542386450005,-0.24671839299228668,0.6759264839064009,31.980009741826418,37.159716713511244,-103.6742218394745,no_tremor
154,3873911,1.172,-0.6284335792528822,-0.25110071474736845,0.6756235213400329,32.35642706952166,37.39740734987988,-104.19789551157405,no_tremor
155,3873916,1.177,-0.6223435113626199,-0.25558006881539375,0.6752013924741929,32.73475652859196,37.607232700786824,-104.62558319473024,no_tremor
156,3873921,1.182,-0.6162737715307953,-0.2601513232868169,0.6746649699993248,33.11659765044642,37.790233076997545,-104.9600860713597,no_tremor
157,3873926,1.187,-0.6102254738426133,-0.2648088333908041,0.6740201821351661,33.503337484427995,37.947394906949384,-105.20405153244604,no_tremor
158,3873958,1.219,-0.6041992967441727,-0.26954646602427557,0.6732740196133701,33.89613528820864,38.07963897380138,-105.35997213784681,no_tremor
159,3873963,1.224,-0.5981955222432714,-0.27435763017602466,0.6724345353726836,34.295908212162146,38.18780955040992,-105.43018727802662,no_tremor
160,3873967,1.228,-0.5922140751963507,-0.2792353129576786,0.671510835828828,34.70331816964067,38.272664835425196,-105.41688724155198,no_tremor
161,3873972,1.233,-0.5862545627203609,-0.28417212086483384,0.6705130625776817,35.11876010445037,38.334869064989974,-105.32211937366654,no_tremor
162,3873977,1.238,-0.5803163138613124,-0.28916032580221435,0.6694523634258428,35.54235188597644,38.37498660512861,-105.1477960066182,no_tremor
163,3873996,1.257,-0.5743984197007523,-0.2941919153167863,0.6683408517229253,35.97392607910912,38.39347822905391,-104.89570384915147,no_tremor
164,3874001,1.262,-0.5684997740900045,-0.29925864639282185,0.6671915530950493,36.41302384734268,38.3906996681018,-104.56751453625476,no_tremor
165,3874006,1.267,-0.562619115177448,-0.3043521020764016,0.6660183388475809,36.85889124956909,38.366902410571036,-104.16479605831213,no_tremor
166,3874016,1.277,-0.5567550678428207,-0.30946375012205574,0.6648358455189157,37.310478180749705,38.322236621549614,-103.68902481054042,no_tremor
167,3874021,1.282,-0.5509061870802686,-0.31458500280150126,0.663659380328128,37.76644018226149,38.256755977181356,-103.14159802829288,no_tremor
168,3874026,1.287,-0.5450710022867713,-0.31970727699131024,0.6625048125625299,38.22514331050521,38.17042415270943,-102.52384640024496,no_tremor
169,3874031,1.292,-0.5392480623258303,-0.32482205366521566,0.6613884512821032,38.68467220500218,38.06312267576343,-101.83704667854589,no_tremor
170,3874035,1.296,-0.5334359811599046,-0.329920935955079,0.6603269100600632,39.142841441949365,37.93465985336382,-101.0824341322319,no_tremor
171,3874040,1.301,-0.5276334837896061,-0.33499570500585246,0.659336959821749,39.59721019803349,37.784780499248086,-100.26121471745378,no_tremor
172,3874046,1.307,-0.5218394522112744,-0.34003837292525163,0.6584353711820345,40.04510018525855,37.613176222222975,-99.37457686536438,no_tremor
173,3874078,1.339,-0.5160529711121754,-0.3450412322087164,0.6576387480098365,40.483616754231704,37.41949608151787,-98.42370281587736,no_tremor
174,3874102,1.363,-0.5102733730632923,-0.34999690109585097,0.6569633542591112,40.90967300316913,37.20335746601285,-97.40977945257362,no_tremor
175,3874107,1.368,-0.5045002830313536,-0.3548983643799608,0.6564249363837364,41.32001667438557,36.96435710142851,-96.33400861890998,no_tremor
176,3874112,1.373,-0.4987336620885164,-0.3597390092475743,0.6560385438761145,41.71125957154137,36.70208212090846,-95.19761691502997,no_tremor
177,3874117,1.378,-0.4929738502195535,-0.36451265577741104,0.6558183506147169,42.07990919112253,36.41612114180962,-94.00186498498618,no_tremor
178,3874126,1.387,-0.48722160809464954,-0.36921358178911196,0.6557774797661031,42.42240222925825,36.10607527692072,-92.74805630660185,no_tremor
179,3874131,1.392,-0.48147815759455,-0.3738365418089244,0.6559278349706446,42.735139597305206,35.771568981559085,-91.43754549402107,no_tremor
180,3874136,1.397,-0.4757452207621413,-0.3783767800141026,0.6562799404647673,43.01452255547438,35.41226060976647,-90.07174611921988,no_tremor
181,3874141,1.402,-0.47002505673180217,-0.3828300371272293,0.6568427926708882,43.25698955378195,35.02785253089525,-88.65213805388312,no_tremor
182,3874146,1.407,-0.4643204960724513,-0.3871925513506014,0.6576237256291161,43.45905335466731,34.61810064692123,-87.18027432655147,no_tremor
183,3874156,1.417,-0.45863497188453684,-0.3914610535519681,0.6586282924575103,43.61733800212645,34.18282315312848,-85.65778748219849,no_tremor
184,3874161,1.422,-0.4529725469233649,-0.3956327570279939,0.6598601648122386,43.7286151983686,33.721908401327305,-84.08639542358101,no_tremor
185,3874165,1.426,-0.4473379359857985,-0.3997053422728774,0.6613210520745719,43.78983965142163,33.23532175598338,-82.46790670657454,no_tremor
186,3874170,1.431,-0.4417365227962379,-0.4036769372599474,0.6630106417156696,43.79818296661025,32.72311137893729,-80.80422525544417,no_tremor
187,3874175,1.436,-0.4361743706604108,-0.4075460937992238,0.6649265619802234,43.751065671361644,32.185412934683384,-79.09735445908422,no_tremor
188,3874202,1.463,-0.4306582262196698,-0.4113117605620811,0.6670643676868152,43.64618698500461,31.622453269838495,-77.34940060675258,no_tremor
189,3874207,1.468,-0.4251955157305698,-0.4149732533668929,0.6694175495719734,43.4815519718861,31.034553179435953,-75.56257562231846,no_tremor
190,3874212,1.473,-0.41979433340849964,-0.4185302233025382,0.6719775672191222,43.2554957477475,30.42212941757433,-73.73919905807347,no_tremor
191,3874216,1.477,-0.41446342150144216,-0.4219826232390437,0.6747339052322103,42.96670444758493,29.78569612810749,-71.88169930942324,no_tremor
192,3874221,1.482,-0.40921214189151267,-0.4253306732455192,0.6776741519563799,42.61423270875146,29.12586585677304,-69.99261400795558,no_tremor
193,3874226,1.487,-0.4040504391516259,-0.4285748254097387,0.6807840997262887,42.19751747423704,28.443350265834564,-68.07458954341551,no_tremor
194,3874231,1.492,-0.3989887951099278,-0.43171572853090506,0.6840478653382208,41.716387975328914,27.73896061921503,-66.13037965805967,no_tremor
195,3874236,1.497,-0.39403817509457356,-0.434754193134393,0.6874480291910456,41.171071808046754,27.01360805154344,-64.16284305238973,no_tremor
196,3874241,1.502,-0.3892099661450222,-0.43769115723174684,0.6909657913190319,40.562197072033655,26.268303585063453,-62.17493994086571,no_tremor
197,3874245,1.506,-0.38451590758200177,-0.44052765321916004,0.6945811423436764,39.89079059232203,25.504157817641463,-60.169727500651526,no_tremor
198,3874250,1.511,-0.3799680144257118,-0.4432647762725402,0.6982730472012497,39.15827229276915,24.722380175773235,-58.150354166172676,no_tremor
199,3874260,1.521,-0.3755784942402655,-0.4459036545576766,0.7020196393587304,38.3664458352872,23.924277610393265,-56.120052737358606,no_tremor
200,3874265,1.526,-0.37135965806216253,-0.4484454215315945,0.7057984231155925,37.517485681732936,23.111252610984536,-54.08213228928104,no_tremor
201,3874270,1.531,-0.36732382614298487,-0.4508911905683319,0.7095864815060464,36.61392077478549,22.284800423817043,-52.03996889366137,no_tremor
202,3874275,1.536,-0.36348322930388505,-0.4532420321020652,0.7133606872702932,35.65861506866476,21.446505381088468,-49.99699518583469,no_tremor
203,3874280,1.541,-0.3598499067650821,-0.45549895344542624,0.717097914358452,34.65474516911553,20.598036277476538,-47.95668883248039,no_tremor
204,3874289,1.55,-0.3564356013810059,-0.4576628814125293,0.7207752474692949,33.60577536544376,19.74114076718537,-45.92255997573058,no_tremor
205,3874294,1.555,-0.3532516532833816,-0.4597346478548379,0.7243701872077746,32.51543035739439,18.877638794770277,-43.8981377489128,no_tremor
206,3874299,1.56,-0.35030889301024687,-0.46171497820278007,0.7278608485694361,31.38766599800783,18.009415112423167,-41.88695597855172,no_tremor
207,3874326,1.587,-0.3476175352749655,-0.4636044830954043,0.7312261506239411,30.22663839120517,17.138410970578914,-39.89253820628172,no_tremor
208,3874330,1.591,-0.3451870745984518,-0.46540365317164567,0.734445995468434,29.036671699307174,16.26661509397569,-37.91838218222843,no_tremor
209,3874335,1.596,-0.3430261840791568,-0.4671128570859921,0.7375014347435418,27.822225028206482,15.39605406850843,-35.96794399553883,no_tremor
210,3874340,1.601,-0.3411426185958457,-0.46873234279422066,0.7403748222358418,26.587858762049542,14.52878226353782,-34.04462201416048,no_tremor
211,3874345,1.606,-0.3395431237179599,-0.47026224212837425,0.7430499513168604,25.33820071255802,13.66687140146058,-32.151740803128,no_tremor
212,3874350,1.611,-0.3382333515366753,-0.4717025786436601,0.7455121761813471,24.07791243221042,12.81239986679044,-30.292535181319753,no_tremor
213,3874355,1.616,-0.3372177845350168,-0.473053278675051,0.7477485160441352,22.811656018803856,11.967441826953479,-28.47013456529463,no_tremor
214,3874359,1.62,-0.33649966849934776,-0.4743141854906737,0.749747741637191,21.544061713503865,11.134056220627624,-26.68754773785595,no_tremor
215,3874364,1.625,-0.33608095534732957,-0.4754850763752561,0.7515004435204783,20.27969656636095,10.31427565877184,-24.947648168682715,no_tremor
216,3874369,1.63,-0.33596225661594153,-0.4765656824222726,0.7529990818867658,19.023034413624018,9.510095279126647,-23.253160004268988,no_tremor
217,3874374,1.635,-0.3361428082214491,-0.4775557107599302,0.7542380177062625,17.778427381501743,8.723461596269514,-21.606644834198462,no_tremor
218,3874379,1.64,-0.33662044697326404,-0.47845486888543676,0.7552135252261917,16.55007910267504,7.956261394560034,-20.01048933054646,no_tremor
219,3874384,1.645,-0.3373915991959008,-0.4792628907356069,0.7559237860163326,15.342019805763425,7.210310718682442,-18.46689384744535,no_tremor
220,3874389,1.65,-0.3384512816871384,-0.47997956408100195,0.7563688649357795,14.1580834142864,6.487344025096345,-16.977862059084288,no_tremor
221,3874398,1.659,-0.3397931151149312,-0.4806047587963089,0.7565506685882774,13.00188676991814,5.78900356767454,-15.545191706903818,no_tremor
222,3874403,1.664,-0.34140934982932486,-0.48113845553215734,0.7564728870309335,11.876811074096842,5.11682910216125,-14.170466520495347,no_tremor
223,3874408,1.669,-0.34329090393771106,-0.48158077429387386,0.7561409196992064,10.78598562138486,4.472248005668303,-12.855049371183872,no_tremor
224,3874413,1.674,-0.3454274133619197,-0.48193200242202944,0.75556178670329,9.732273876931702,3.8565659173496534,-11.600076711265316,no_tremor
225,3874418,1.679,-0.3478072934642198,-0.4821926214694299,0.754744026829758,8.718261929441418,3.2709580133725376,-10.406454344516353,no_tremor
226,3874423,1.684,-0.3504178116970234,-0.48236333248031354,0.7536975837403759,7.746249331319797,2.716461033028223,-9.274854565396296,no_tremor
227,3874447,1.708,-0.35324517059905813,-0.4824450792000265,0.7524336819917633,6.81824232001634,2.1939661731721105,-8.205714696681568,no_tremor
228,3874452,1.713,-0.3562746003310463,-0.4824390687765815,0.7509646946010458,5.935949398674052,1.7042129646829782,-7.199237048663241,no_tremor
229,3874457,1.718,-0.3594904598207315,-0.48234678955782806,0.7493040039496306,5.100779238528719,1.2477842366043452,-6.255390316123894,no_tremor
230,3874462,1.723,-0.3628763454773011,-0.48217002563749484,0.7474658578449039,4.313840848472748,0.8251022605977144,-5.373912419543356,no_tremor
231,3874467,1.728,-0.3664152063459541,-0.4819108678577984,0.7454652225450659,3.575945938852845,0.4364261507608803,-4.554314782854293,no_tremor
232,3874472,1.733,-0.3700894645080398,-0.4815717210334737,0.7433176344981854,2.8876133886858377,0.08185057349596914,-3.7958880224180858,no_tremor
233,3874476,1.737,-0.37388113948962387,-0.4811553072202936,0.7410390524608066,2.249075709805512,-0.2386941989361247,-3.097709002989964,no_tremor
234,3874481,1.742,-0.3777719754179151,-0.48066466490943727,0.738645711553591,1.6602873884433438,-0.5254408779490959,-2.4586491985718233,no_tremor
235,3874486,1.747,-0.38174356965724043,-0.48010314408701454,0.736153980689669,1.1209349739586292,-0.7787823973536195,-1.8773842810002446,no_tremor
236,3874491,1.752,-0.38577750166175,-0.4794743971556197,0.7335802246817215,0.6304487753286173,-0.9992678255127274,-1.3524048477774406,no_tremor
237,3874495,1.756,-0.38985546079909594,-0.478782365772081,0.7309406722009523,0.1880160182430711,-1.18759699213971,-0.8820281924425207,no_tremor
238,3874500,1.761,-0.3939593719267256,-0.47803126371275306,0.7282512906284473,-0.2074046907578738,-1.3446138868925557,-0.46441101405697827,no_tremor
239,3874505,1.766,-0.39807151753911946,-0.47722555593481764,0.7255276687093667,-0.5570677513366445,-1.4712989020826095,-0.09756295595030812,no_tremor
240,3874510,1.771,-0.4021746553493504,-0.4763699340589581,0.7227849077943893,-0.8624239684421986,-1.5687600061788274,0.22063914200872195,no_tremor
241,3874524,1.785,-0.40625213022098083,-0.47546928855491605,0.720037522331517,-1.125103124782249,-1.6382229478823913,0.4924363976331633,no_tremor
242,3874529,1.79,-0.4102879794264001,-0.4745286779656833,0.7172993501547738,-1.346895886646812,-1.681020601977731,0.7201725693330215,no_tremor
243,3874539,1.8,-0.41426703027618694,-0.47355329555650966,0.7145834730037225,-1.5297352000257796,-1.6985815782833198,0.906278390399214,no_tremor
244,3874543,1.804,-0.418174989242682,-0.4725484338189361,0.7119021475973228,-1.6756773297947793,-1.6924182245490447,1.0532556766380083,no_tremor
245,3874568,1.829,-0.42199852179065245,-0.471519447295218,0.7092667474755038,-1.786882690081259,-1.6641141629270153,1.1636613277652177,no_tremor
246,3874573,1.834,-0.42572532222805337,-0.4704717142131948,0.7066877157106767,-1.8655966093813547,-1.6153115057259222,1.2400913407798166,no_tremor
247,3874578,1.839,-0.4293441729992535,-0.4694105974354221,0.704174528479172,-1.9141301699057391,-1.5476978963061283,1.2851649507675917,no_tremor
248,3874582,1.843,-0.43284499296157397,-0.4683414052296063,0.7017356693700958,-1.93484125696601,-1.4629935132607976,1.30150901063191,no_tremor
249,3874597,1.858,-0.4362188743140108,-0.4672693523613333,0.6993786141981034,-1.930115950748959,-1.3629381625137793,1.2917427154526855,no_tremor
250,3874602,1.863,-0.4394581079837285,-0.4661995219968615,0.6971098259796519,-1.9023503892157634,-1.2492785675421805,1.2584627697315915,no_tremor
251,3874607,1.868,-0.44255619741885477,-0.4651368288855113,0.6949347596323974,-1.8539332265664932,-1.123755956114312,1.2042290874557873,no_tremor
252,3874612,1.873,-0.4455078608822233,-0.46408598426911435,0.6928578758670748,-1.7872288061139492,-0.9880940329542686,1.1315511062523116,no_tremor
253,3874617,1.878,-0.44830902248681653,-0.4630514629401585,0.6908826636620988,-1.7045611590807812,-0.8439874205159182,1.0428747883374803,no_tremor
254,3874621,1.882,-0.4509567923559601,-0.4620374728403432,0.6890116706439247,-1.6081989315971363,-0.6930906440956055,0.9405703731620346,no_tremor
255,3874636,1.897,-0.4534494364254905,-0.46104792755707014,0.6872465406408355,-1.500341331192893,-0.5370077325575537,0.8269209401337191,no_tremor
256,3874641,1.902,-0.455786336526985,-0.4600864220368563,0.6855880576337858,-1.383105172042694,-0.3772825010300099,0.7041118344463894,no_tremor
257,3874650,1.911,-0.45796794149715314,-0.45915621179155075,0.684036195294719,-1.2585130862348615,-0.21538957601969017,0.5742210044356618,no_tremor
258,3874655,1.916,-0.4599957101459063,-0.45826019582528055,0.6825901712801856,-1.1284829572459207,-0.05272621643242255,0.43921029491292907,no_tremor
259,3874660,1.921,-0.46187204698297235,-0.4574009034574785,0.6812485054365368,-0.9948186217349106,0.1093950234074881,0.3009177378879488,no_tremor
260,3874665,1.926,-0.46360023165043673,-0.45658048516133315,0.6800090810732918,-0.8592018763720514,0.26975275011470456,0.16105088016084873,no_tremor
261,3874689,1.95,-0.46518434303804074,-0.4558007074793958,0.6788692084743508,-0.723185817201977,0.42722227576966915,0.02118118609909437,no_tremor
262,3874694,1.955,-0.46662917907201584,-0.455062952020554,0.6778256898427096,-0.5881895293647914,0.5807802265994403,-0.11726044718034605,no_tremor
263,3874699,1.96,-0.46794017316944003,-0.4543682184859285,0.6768748849121329,-0.4554941342427701,0.7295081986773759,-0.2529870266361211,no_tremor
264,3874714,1.975,-0.4691233083411808,-0.4537171316154501,0.6760127765063896,-0.3262401893760197,0.8725954498790655,-0.3848576193317679,no_tremor
265,3874723,1.984,-0.4701850299096664,-0.4531099518919281,0.675235035379765,-0.201426424920858,1.0093406227128274,-0.5118782995297271,no_tremor
266,3874728,1.989,-0.47113215778470635,-0.4525465897864301,0.6745370837282766,-0.0819097904046621,1.1391524970428457,-0.6332018655832506,no_tremor
267,3874733,1.994,-0.4719717992126064,-0.45202662328026855,0.6739141568166518,0.03159322236028502,1.2615497761841528,-0.7481263141904064,no_tremor
268,3874738,1.999,-0.472711262881763,-0.45154931835785916,0.6733613622200859,0.1385040205598879,1.3761599154057769,-0.8560920701555532,no_tremor
269,3874743,2.004,-0.47335797523225426,-0.45111365213324534,0.6728737362317151,0.23837816158191258,1.482717008315506,-0.9566779821766399,no_tremor
270,3874747,2.008,-0.4739193997777456,-0.45071833825149815,0.6724462970371676,0.3309004651768302,1.5810587528263274,-1.0495961090154469,no_tremor
271,3874752,2.013,-0.47440296020522493,-0.45036185419333713,0.6720740943072889,0.4158790437475635,1.6711225237879386,-1.1346853347826407,no_tremor
272,3874762,2.023,-0.4748159679715584,-0.45004247010532095,0.671752254909746,0.4932383155308509,1.75294058416049,-1.211903866154166,no_tremor
273,3874767,2.028,-0.4751655550655536,-0.4497582787768869,0.6714760244898719,0.5630110742263414,1.8266344712018177,-1.2813206781433084,no_tremor
274,3874771,2.032,-0.4754586125499787,-0.44950722638762397,0.6712408047206103,0.6253296976114003,1.892408598478351,-1.3431059893644504,no_tremor
275,3874776,2.037,-0.4757017354395282,-0.44928714365205324,0.6710421860702315,0.6804165859626539,1.9505431184565287,-1.397520863424297,no_tremor
276,3874781,2.042,-0.47590117440756624,-0.4490957769939829,0.6708759759839978,0.7285739284897095,2.001386094380299,-1.444906050465089,no_tremor
277,3874786,2.047,-0.4760627947460661,-0.44893081938794704,0.6707382224217162,0.7701729027844572,2.0453450349644666,-1.485670201308887,no_tremor
278,3874811,2.072,-0.4761920429289266,-0.4487899405115782,0.6706252327369531,0.8056424190573044,2.0828778519014226,-1.5202776047703013,no_tremor
279,3874816,2.077,-0.4762939210480453,-0.44867081586054836,0.6705335879256923,0.8354575284470956,2.1144833088519874,-1.5492356152573064,no_tremor
280,3874821,2.082,-0.4763729693028055,-0.4485711544875066,0.6704601523126453,0.8601276236963794,2.14069104244504,-1.573081951999674,no_tremor
