sample,t_ms,t_s,ax,ay,az,gx,gy,gz,tremor
0,3707558,0.0,-0.47657517098297064,-0.3980976452397752,0.7089991264957234,1.4097161443911435,-0.8927329168306054,0.013233386484971766,no_tremor
1,3707568,0.01,-0.4767963503354264,-0.3980343821140251,0.7090903695337283,1.2460573401483759,-0.7850577005454435,0.01896945972765122,no_tremor
2,3707582,0.024,-0.4771058917554205,-0.39793922249244174,0.7092063150012641,1.0841885224624572,-0.6793277474114291,0.02553908136764435,no_tremor
3,3707587,0.029,-0.4775140570804628,-0.3978045983671206,0.7093426774703423,0.9250450031564457,-0.5758819835037006,0.03241786643220715,no_tremor
4,3707592,0.034,-0.4780161171105396,-0.3976272645480725,0.7094887420217035,0.7695886315583218,-0.4750332553163486,0.039026071948250335,no_tremor
5,3707601,0.043,-0.47859907456923845,-0.3974072425542639,0.709631653136332,0.6188024580925694,-0.37706408053793755,0.04473048295729878,no_tremor
6,3707606,0.048,-0.479248175336718,-0.3971461842686635,0.7097595239963977,0.47368496034084767,-0.28222252912132434,0.04884692868925012,no_tremor
7,3707625,0.067,-0.4799504755446809,-0.39684621408689036,0.7098626955020716,0.33524384500310345,-0.19071827804074526,0.050643446780878426,no_tremor
8,3707630,0.072,-0.48069600741902063,-0.39650936195875214,0.7099338287330011,0.20448944150574527,-0.10271887942529052,0.049344112228167286,no_tremor
9,3707635,0.077,-0.4814776656855213,-0.3961373963508406,0.7099675233772678,0.0824277062710708,-0.01834627956081926,0.04413354597749362,no_tremor
10,3707639,0.081,-0.4822906236166754,-0.3957318572188243,0.709959855951058,-0.02994713830389356,0.06232637366301987,0.03416211525363717,no_tremor
11,3707644,0.086,-0.4831316893685804,-0.395294161680224,0.7099079937822005,-0.13166029919349084,0.139277594953607,0.018551833825193334,no_tremor
12,3707649,0.091,-0.4839987577201721,-0.3948257191673612,0.7098099178995668,-0.22176440338742726,0.21254005383988248,-0.0035970345196527998,no_tremor
13,3707674,0.116,-0.48489038893868425,-0.3943280310574092,0.709664240951276,-0.2993477366909516,0.28220264730216144,-0.03319867170067213,no_tremor
14,3707684,0.126,-0.4858054996141822,-0.39380276836874206,0.7094700952594062,-0.36354267630933423,0.3484121017684116,-0.07117370850231042,no_tremor
15,3707689,0.131,-0.48674313877466496,-0.393251828683005,0.709227068423909,-0.4135342573751908,0.41137405131799454,-0.11844054892039067,no_tremor
16,3707694,0.136,-0.4877023244905755,-0.39267737577131206,0.7089351694536642,-0.4485688105464838,0.4713535388514415,-0.17590603517968928,no_tremor
17,3707699,0.141,-0.4886819217393455,-0.39208186555146207,0.7085948136161024,-0.4679626069464168,0.5286748890594007,-0.24445547971539577,no_tremor
18,3707703,0.145,-0.48968054782760284,-0.39146806142220253,0.7082068181558511,-0.47111044689504233,0.5837209053084926,-0.3249420987191708,no_tremor
19,3707708,0.15,-0.490696496085584,-0.39083904131170705,0.7077724037835671,-0.4574941292609187,0.6369313459996516,-0.4181758911190255,no_tremor
20,3707713,0.155,-0.491727671771365,-0.39019819815481344,0.7072931986645352,-0.42669073880857433,0.6888006396805463,-0.524912015922028,no_tremor
21,3707718,0.16,-0.49277153636901766,-0.3895492350286629,0.7067712428251681,-0.37838068977877115,0.7398748033781175,-0.6458387288157875,no_tremor
22,3707723,0.165,-0.49382505799239473,-0.38889615582027315,0.7062089916611356,-0.3123554650466881,0.7907475361895204,-0.781564946024363,no_tremor
23,3707728,0.17,-0.4948846666311683,-0.38824325204639404,0.705609317723927,-0.22852499150931385,0.8420554700129369,-0.9326075105659807,no_tremor
24,3707737,0.179,-0.49594621365853747,-0.3875950862694841,0.7049755102824132,-0.1269245939171327,0.8944725704315869,-1.099378243670389,no_tremor
25,3707742,0.184,-0.4970049354730139,-0.3869564724322691,0.7043112723657784,-0.007721471203419932,0.948703691941478,-1.2821708718379827,no_tremor
26,3707752,0.194,-0.49805542144589177,-0.3863324533509258,0.7036207151336611,0.12877935848492397,1.005477301960703,-1.4811479275712909,no_tremor
27,3707757,0.199,-0.4990915865416541,-0.38572827555193284,0.702908349512719,0.28212969522234116,1.0655373969733737,-1.6963277292935295,no_tremor
28,3707762,0.204,-0.5001066491031856,-0.38514936160210683,0.7021790751008551,0.45173342523532856,1.129634641963716,-1.9275715534751876,no_tremor
29,3707771,0.213,-0.5010931143679476,-0.3846012800600413,0.7014381663802282,0.6368424640506121,1.1985167716746221,-2.1745711192881654,no_tremor
30,3707796,0.238,-0.5020427643183074,-0.3840897131666406,0.7006912563041668,0.8365534166075936,1.272918300124574,-2.436836512817958,no_tremor
31,3707801,0.243,-0.5029466544775044,-0.3836204223903267,0.6999443173355813,1.0498049939209175,1.353549594145885,-2.7136846837255515,no_tremor
32,3707805,0.247,-0.5037951182480288,-0.3831992119469188,0.6992036400183107,1.275376224954424,1.4410853778657946,-3.004228652137341,no_tremor
33,3707810,0.252,-0.5045777793556265,-0.38283189042348703,0.6984758091598295,1.5118855027496685,1.5361527475244336,-3.3073675672096283,no_tremor
34,3707815,0.257,-0.5052835729129372,-0.38252423064828417,0.6977676776953357,1.7577905050379932,1.639318788506666,-3.621777760780619,no_tremor
35,3707820,0.262,-0.5059007755545623,-0.3822819279642151,0.6970863382913169,2.0113890308437488,1.751077897488476,-3.9459049393509114,no_tremor
36,3707825,0.267,-0.5064170450222585,-0.3821105570806353,0.696439092733435,2.2708207954152,1.871838921094413,-4.2779576552403356,no_tremor
37,3707829,0.271,-0.5068194694964553,-0.38201552769710073,0.6958334191310733,2.5340702257362975,2.0019122279771593,-4.615902193340508,no_tremor
38,3707839,0.281,-0.5070946268793813,-0.38200203911239866,0.6952769369608892,2.7989702975592,2.141496833883734,-4.957459003648368,no_tremor
39,3707849,0.291,-0.5072286541362462,-0.3820750340519064,0.6947773699655816,3.0632074525993893,2.290667699709488,-5.300100802009447,no_tremor
40,3707853,0.295,-0.5072073266942534,-0.3822391519649115,0.6943425069231168,3.324327631932371,2.4493633220268234,-5.6410524525631995,no_tremor
41,3707863,0.305,-0.5070161477845491,-0.3824986820596615,0.6939801603070149,3.5797434590041317,2.617373735785984,-5.977292735409058,no_tremor
42,3707868,0.31,-0.5066404474896529,-0.3828575163564714,0.6936981228708295,3.82674260250161,2.7943290509253473,-6.305558091799229,no_tremor
43,3707873,0.315,-0.5060654911294773,-0.38331910304778,0.6935041222098545,4.062497344823786,2.9796886481541383,-6.622348426417027,no_tremor
44,3707882,0.324,-0.5052765964847875,-0.3838864004590732,0.6934057733797815,4.284075375563221,3.1727311627259653,-6.923935031944023,no_tremor
45,3707892,0.334,-0.5042592592206582,-0.3845618319072207,0.6934105296844193,4.488451821241897,3.372545387209259,-7.206370685329343,no_tremor
46,3707922,0.364,-0.5029992857370503,-0.3853472417545846,0.6935256317813472,4.672522512891018,3.5780222245409394,-7.465501948174467,no_tremor
47,3707927,0.369,-0.5014829325417228,-0.38624385296032787,0.6937580552944012,4.833118482305417,3.7878478211288775,-7.696983685666387,no_tremor
48,3707932,0.374,-0.49969705111433965,-0.3872522264371177,0.6941144571645247,4.967021665987426,4.000498006471452,-7.896295799960208,no_tremor
49,3707937,0.379,-0.49762923711107704,-0.3883722225339323,0.694601121015703,5.070981782620662,4.2142341605309905,-8.058762155358455,no_tremor
50,3707942,0.384,-0.49526798264703076,-0.38960296498443325,0.6952239018605921,5.1417343350869915,4.427100623175746,-8.17957165414777,no_tremor
51,3707947,0.389,-0.49260283029015695,-0.3909428076838916,0.6959881705209534,5.176019671582426,4.6369237521232165,-8.253801403007639,no_tremor
52,3707952,0.394,-0.48962452730672945,-0.3923893046832131,0.6968987581905557,5.170603022644083,4.841312727471459,-8.276441890039445,no_tremor
53,3707961,0.403,-0.4863251786161525,-0.3939391838133691,0.6979599016218551,5.122295412311532,5.0376621919584466,-8.242424072012865,no_tremor
54,3707966,0.408,-0.4826983968442884,-0.39558832437511793,0.6991751894712249,5.027975322580836,5.2231568063478715,-8.146648251178046,no_tremor
55,3707971,0.413,-0.47873944781092276,-0.3973317393453665,0.7005475103889831,4.884610971201724,5.394777789145392,-7.984014601075845,no_tremor
56,3707976,0.418,-0.47444538974992256,-0.39916356256124624,0.7020790034876357,4.689283044419739,5.54931149971294,-7.7494551804723555,no_tremor
57,3707981,0.423,-0.46981520454106795,-0.401077041344526,0.7037710118619421,4.439207709305189,5.683360113704058,-7.437967253433138,no_tremor
58,3707985,0.427,-0.46484991923131763,-0.40306453502115724,0.7056240398648814,4.131759715459026,5.793354428881256,-7.044647712258587,no_tremor
59,3707990,0.432,-0.45955271614123094,-0.40511751977253724,0.7076377148618792,3.7644953834255532,5.875568826933871,-6.564728379456812,no_tremor
60,3707995,0.437,-0.4539290298902477,-0.4072266002257246,0.7098107541895023,3.335175267143927,5.9261384023093315,-5.993611945564384,no_tremor
61,3708000,0.442,-0.4479866297333578,-0.4093815281488872,0.7121409380324588,2.841786270273398,5.941078252307469,-5.326908281601728,no_tremor
62,3708005,0.447,-0.44173568568227906,-0.4115712285656252,0.7146250889029085,2.28256299124166,5.91630490438729,-4.560470848676606,no_tremor
63,3708015,0.457,-0.43518881698751966,-0.41378383353783593,0.7172590583582934,1.656008069148505,5.847659837486453,-3.690432913244291,no_tremor
64,3708020,0.462,-0.4283611216844648,-0.41600672379222475,0.7200377215283499,0.9609113017194791,5.7309350342440855,-2.713243264988302,no_tremor
65,3708044,0.486,-0.42127018605738875,-0.41822657828155824,0.7229549799396783,0.19636730720243173,5.561900479804882,-1.6257011250284523,no_tremor
66,3708049,0.491,-0.41393607304947105,-0.42042943167991126,0.7260037730292817,-0.6382084948624771,5.336333499617859,-0.42498992491346815,no_tremor
67,3708054,0.496,-0.40638128884161084,-0.42260073971361517,0.7291760986304257,-1.5430658025249233,5.0500498025708564,0.8912903686891315,no_tremor
68,3708059,0.501,-0.3986307270327622,-0.4247254521286616,0.7324630425995949,-2.5181074575582425,4.698936066355494,2.325092712655577,no_tremor
69,3708069,0.511,-0.3907115900743843,-0.4267880929924854,0.735854817635978,-3.5628797707173154,4.278983869505235,3.877894560100004,no_tremor
70,3708073,0.515,-0.38265328783935487,-0.4287728479234516,0.739340811225753,-4.676565317277036,3.786324740888972,5.550671875088299,no_tremor
71,3708078,0.52,-0.37448731344250324,-0.4306636577342089,0.7429096425207522,-5.857978348341974,3.217266064993457,7.343875907984223,no_tremor
72,3708088,0.53,-0.3662470966778289,-0.4324443178648769,0.7465492278323249,-7.105562933151978,2.568327551882088,9.257413032574897,no_tremor
73,3708093,0.535,-0.35796783569821716,-0.43409858286937547,0.7502468542845572,-8.417393913552365,1.8362779550396227,11.290627920398466,no_tremor
74,3708098,0.54,-0.34968630783898436,-0.43561027510472156,0.753989261025981,-9.791180715476877,1.0181716982261986,13.442290293763314,no_tremor
75,3708112,0.554,-0.34144066077918195,-0.43696339666144146,0.7577627272465567,-11.224274025125235,0.11138505307113128,15.710585456167305,no_tremor
76,3708117,0.559,-0.3332701855456811,-0.43814224346707864,0.761553166089632,-12.713675298964837,-0.886348508327633,18.093108746372792,no_tremor
77,3708137,0.579,-0.32521507319285936,-0.4391315203993501,0.7653462233913678,-14.256049034497103,-1.9769041769353501,20.586864000660025,no_tremor
78,3708142,0.584,-0.31731615732726165,-0.4399164561679637,0.7691273800299969,-15.847737682088578,-3.1617332902387534,23.188266039193234,no_tremor
79,3708167,0.609,-0.3096146449754699,-0.44048291667285083,0.7728820565341106,-17.484779029876933,-4.441832848295703,25.893147121294206,no_tremor
80,3708172,0.614,-0.30215183859015166,-0.440817515529057,0.7765957184946736,-19.16292584924739,-5.817717477352573,28.696767246553655,no_tremor
81,3708177,0.619,-0.29496885222539326,-0.4409077204687084,0.780253981262235,-20.87766755345881,-7.289394246104516,31.59382812097206,no_tremor
82,3708186,0.628,-0.2881063250628846,-0.4407419543872605,0.7838427124000862,-22.624253601031654,-8.856340711204817,34.578490565618445,no_tremor
83,3708191,0.633,-0.28160413552240715,-0.4403096898890957,0.7873481304114511,-24.397718369595154,-10.51748651941771,37.644395121465486,no_tremor
84,3708196,0.638,-0.27550111914704606,-0.43960153629861054,0.7907568983604906,-26.192907232058044,-12.271198828126003,40.784685595358724,no_tremor
85,3708201,0.643,-0.26983479333134075,-0.4386093182295128,0.7940562111518497,-28.00450357990718,-14.115271731512657,43.99203529457161,no_tremor
86,3708206,0.648,-0.2646410917777902,-0.4373261449411264,0.7972338754081765,-29.827056553517732,-16.04691980384692,47.25867570844698,no_tremor
87,3708211,0.653,-0.2599541113392156,-0.4357464698521193,0.8002783810772294,-31.655009254022445,-18.062775799200878,50.57642741270031,no_tremor
88,3708216,0.658,-0.25580587364274604,-0.43386613972671073,0.8031789640996918,-33.4827272245965,-20.15889248224109,53.93673299120233,no_tremor
89,3708221,0.663,-0.2522261036034446,-0.431682433194142,0.8059256596675448,-35.30452700091528,-22.330748510138772,57.330691787201,no_tremor
90,3708225,0.667,-0.24924202662722922,-0.42919408840712175,0.8085093457948012,-37.11470454133288,-24.573258243539108,60.74909630804765,no_tremor
91,3708230,0.672,-0.24687818597830252,-0.4264013197872973,0.8109217771035084,-38.90756335706925,-26.88078533689009,64.18247011349558,no_tremor
92,3708235,0.677,-0.245156281451083,-0.4233058239443276,0.8131556088959936,-40.67744217105441,-29.24715994551371,67.62110701745688,no_tremor
93,3708245,0.687,-0.24409503014772183,-0.4199107749893977,0.8152044117388315,-42.418741940942866,-31.665699386751193,71.0551114267454,no_tremor
94,3708255,0.697,-0.24371004982886624,-0.4162208095941616,0.8170626769258663,-44.12595208775473,-34.12923210298886,74.47443962845246,no_tremor
95,3708260,0.702,-0.2440137649886738,-0.41224200227207075,0.8187258133184401,-45.79367577756208,-36.63012479483404,77.86894182264093,no_tremor
96,3708264,0.706,-0.24501533551806487,-0.40798183147975303,0.8201901361821823,-47.416654110285045,-39.160312624479985,81.22840468275211,no_tremor
97,3708291,0.733,-0.24672060757437633,-0.4034491372490631,0.8214528487509487,-48.98978907699052,-41.71133243208088,84.54259421531947,no_tremor
98,3708296,0.738,-0.2491320860761306,-0.39865407116098317,0.8225120173464864,-50.508165154786646,-44.27435895536164,87.80129868459967,no_tremor
99,3708301,0.743,-0.25224892808471205,-0.39360803955136914,0.8233665409602479,-51.96706941722188,-46.84024408128194,90.99437136904749,no_tremor
100,3708306,0.748,-0.2560669562104651,-0.38832364088087934,0.8240161162527151,-53.36201005042058,-49.39955917293853,94.11177292964979,no_tremor
101,3708311,0.753,-0.2605786910793653,-0.3828145981938832,0.8244611989395321,-54.68873318310998,-51.94264049574748,97.14361319668046,no_tremor
102,3708316,0.758,-0.26577340181255193,-0.3770956875313048,0.8247029625136355,-55.94323796181704,-54.45963771522144,100.08019221643848,no_tremor
103,3708321,0.763,-0.27163717340388943,-0.3711826630606485,0.8247432552059772,-57.12178982859971,-56.94056536230141,102.91204043478267,no_tremor
104,3708326,0.768,-0.27815298983247677,-0.3650921795595625,0.8245845560243493,-58.22093198556622,-59.375357071211,105.629957924085,no_tremor
105,3708331,0.773,-0.28530083172080584,-0.3588417127535902,0.8242299306390712,-59.237495056543885,-61.75392229953635,108.22505258237358,no_tremor
106,3708335,0.777,-0.29305778734811927,-0.3524494778780795,0.8236829878123748,-60.168604980273244,-64.06620515093755,110.68877724695798,no_tremor
107,3708355,0.797,-0.30139817585481166,-0.3459343467198196,0.8229478369993841,-61.01168919051824,-66.30224484570294,113.01296566890922,no_tremor
108,3708360,0.802,-0.3102936815290326,-0.3393157633043412,0.8220290476842536,-61.764481156106584,-68.45223732837596,115.1898672896268,no_tremor
109,3708365,0.807,-0.31971349815124755,-0.33261365833497686,0.8209316109538075,-62.42502336804894,-70.506597468838,117.21218074879482,no_tremor
110,3708369,0.811,-0.329624482483726,-0.3258483624609109,0.8196609037482817,-62.99166887167942,-72.45602130630536,119.07308603818645,no_tremor
111,3708374,0.816,-0.33999131612167427,-0.31904051845155124,0.8182226561583263,-63.46308144970163,-74.29154780179043,120.76627520065622,no_tremor
112,3708379,0.821,-0.35077667505668136,-0.3122109923798853,0.8166229220541633,-63.83823456774639,-76.00461959263431,122.2859814581194,no_tremor
113,3708384,0.826,-0.3619414064235936,-0.3053807839636704,0.8148680532343099,-64.1164091979561,-77.58714226874471,123.62700663494316,no_tremor
114,3708389,0.831,-0.3734447119924294,-0.29857093627599945,0.812964677168205,-64.29719063825945,-79.03154170414511,124.7847467233207,no_tremor
115,3708416,0.858,-0.3852443380155169,-0.2918024451118848,0.8109196782825852,-64.38046444527407,-80.33081897487489,125.75521541542685,no_tremor
116,3708421,0.863,-0.39729677104100714,-0.2850961683799012,0.8087401826116943,-64.36641159711434,-81.47860237510206,126.53506540542463,no_tremor
117,3708426,0.868,-0.40955743926019544,-0.2784727359685651,0.8064335455067234,-64.25550299875825,-82.46919601271466,127.12160724690698,no_tremor
118,3708430,0.872,-0.4219809188795273,-0.27195246060249345,0.8040073419943926,-64.04849343685547,-83.29762443443555,127.51282554366263,no_tremor
119,3708435,0.877,-0.43452114491439603,-0.26555525024122417,0.8014693593014759,-63.74641508259975,-83.9596727105359,127.70739225689103,no_tremor
120,3708445,0.887,-0.4471316257028801,-0.2593005225801737,0.7988275910274729,-63.3505706303591,-84.45192140762332,127.70467692805103,no_tremor
121,3708450,0.892,-0.4597656603401818,-0.2532071221937882,0.7960902324488118,-62.86252614630475,-84.77177589687811,127.50475363767985,no_tremor
122,3708455,0.897,-0.47237655814491514,-0.24729324082349058,0.7932656764659544,-62.284103685598986,-84.91748948594505,127.10840454163942,no_tremor
123,3708459,0.901,-0.48491785919560354,-0.24157634126316205,0.7903625097473804,-61.61737371909068,-84.8881799281046,126.5171198455412,no_tremor
124,3708464,0.906,-0.49734355492904664,-0.23607308523557732,0.7873895086688801,-60.8646473913673,-84.68383895364089,125.73309409666217,no_tremor
125,3708469,0.911,-0.5096083077755977,-0.2307992655869083,0.7843556346823461,-60.02846861198662,-84.30533458273823,124.75921869229137,no_tremor
126,3708474,0.916,-0.5216676688158163,-0.22576974305638262,0.7812700287692804,-59.11160596120787,-83.75440611048344,123.59907052514191,no_tremor
127,3708479,0.921,-0.5334782924678103,-0.22099838780812128,0.7781420046391685,-58.117044370969566,-83.03365179476089,122.25689671061524,no_tremor
128,3708484,0.926,-0.5449981472412018,-0.21649802584542913,0.7749810403240264,-57.04797652186181,-82.1465094183249,120.73759536768473,no_tremor
129,3708489,0.931,-0.5561867216087566,-0.2122803903671901,0.7717967678026698,-55.90779387834007,-81.09723002818168,119.04669245516409,no_tremor
130,3708493,0.935,-0.5670052240398704,-0.20835607807403037,0.7685989602682483,-54.70007726869759,-79.89084527120178,117.1903146979094,no_tremor
131,3708498,0.94,-0.5774167762052369,-0.20473451039098545,0.7653975166380034,-53.42858690510224,-78.53312883972048,115.17515867293089,no_tremor
132,3708503,0.945,-0.5873865982985667,-0.20142389954596598,0.7622024429029653,-52.09725173431636,-77.03055261099999,113.00845616403957,no_tremor
133,3708508,0.95,-0.5968821853343662,-0.19843121943169145,0.7590238299344443,-50.71015801330068,-75.39023810623279,110.69793593667828,no_tremor
134,3708513,0.955,-0.6058734731800397,-0.1957621811849137,0.7558718274089162,-49.27153701673292,-73.61990390645015,108.25178213301129,no_tremor
135,3708540,0.982,-0.6143329929779701,-0.19342121344165453,0.7527566135858955,-47.78575180517196,-71.72780964625586,105.67858954120805,no_tremor
136,3708545,0.987,-0.6222360125242619,-0.19141144726935427,0.7496883607738696,-46.257283010581986,-69.72269716777679,102.9873160496763,no_tremor
137,3708550,0.992,-0.6295606631187703,-0.1897347058301142,0.7466771964419779,-44.69071362500104,-67.61372936557646,100.1872326500556,no_tremor
138,3708560,1.002,-0.6362880504159684,-0.18839149888232282,0.7437331600698626,-43.090712802355526,-65.41042719865432,97.2878713926713,no_tremor
139,3708564,1.006,-0.6424023479111796,-0.18738102226853046,0.7408661559635863,-41.46201870002188,-63.12260529731103,94.29897171881606,no_tremor
140,3708569,1.011,-0.6478908718918983,-0.18670116255803004,0.7380859023928411,-39.80942039805879,-60.76030655719632,91.23042559708054,no_tremor
141,3708574,1.016,-0.6527441369459562,-0.18634850701289457,0.7354018775184858,-38.137738944885335,-58.33373609320981,88.0922218821155,no_tremor
142,3708579,1.021,-0.656955891413615,-0.1863183590305363,0.7328232626763606,-36.45180759184953,-55.85319492142155,84.89439029960606,no_tremor
143,3708584,1.026,-0.6605231324679207,-0.18660475918969613,0.7303588836612673,-34.75645129604854,-53.329013744780845,81.64694544494714,no_tremor
144,3708589,1.031,-0.6634461007827329,-0.18720051199474605,0.7280171507135852,-33.05646558962257,-50.77148723459625,78.35983116782657,no_tremor
145,3708594,1.036,-0.6657282549848861,-0.18809721837805296,0.7258059979513234,-31.35659493291173,-48.19080922164581,75.04286570232779,no_tremor
146,3708599,1.041,-0.6673762262779076,-0.189285313982637,0.7237328230144165,-29.661510687145032,-45.59700923544595,71.70568789332596,no_tremor
147,3708614,1.056,-0.668399753768331,-0.19075411320654387,0.7218044276979466,-27.975788859381037,-42.999890854266326,68.3577048661241,no_tremor
148,3708618,1.06,-0.6688116011266455,-0.19249185894434775,0.7200269603490745,-26.30388778871362,-40.40897234816329,65.00804148882438,no_tremor
149,3708623,1.065,-0.6686274552842063,-0.19448577790801358,0.7184058607910341,-24.650125958733046,-37.83343010888886,61.66549198551953,no_tremor
150,3708633,1.075,-0.6678658079215234,-0.19672214134766425,0.7169458085186288,-23.01866013660985,-35.2820453609681,58.33847406980473,no_tremor
151,3708664,1.106,-0.6665478205614453,-0.19918633092262775,0.7156506748853602,-21.413464053308356,-32.76315463613939,55.03498597783613,no_tremor
152,3708669,1.111,-0.6646971741595606,-0.20186290939661405,0.7145234799742968,-19.838307851021753,-30.284604468129483,51.762566783127156,no_tremor
153,3708674,1.116,-0.6623399041925091,-0.20473569575328263,0.713566354812945,-18.296738529250625,-27.85371072391272,48.52826036357647,no_tremor
154,3708679,1.121,-0.6595042223804858,-0.20778784425773944,0.7127805095536734,-16.79206161483845,-25.477222927570573,45.33858335597177,no_tremor
155,3708683,1.125,-0.6562203263306425,-0.21100192693277153,0.7121662081912371,-15.327324261873603,-23.161293854230813,42.19949737335913,no_tremor
156,3708688,1.13,-0.6525201985369052,-0.21436001887848802,0.7117227503248428,-13.905299958544711,-20.911454581711823,39.11638568658272,no_tremor
157,3708693,1.135,-0.6484373963047417,-0.2178437858385384,0.7114484603941631,-12.528474985832412,-18.732595096498645,36.09403449617508,no_tremor
158,3708698,1.14,-0.6440068342770862,-0.22143457340170478,0.711340684728852,-11.199036741316977,-16.628950466246582,33.136618851831926,no_tremor
159,3708703,1.145,-0.639264561314439,-0.2251134972217644,0.711395796652169,-9.918864011929992,-14.604092517137543,30.247693215735556,no_tremor
160,3708708,1.15,-0.6342475335253496,-0.22886153363989867,0.7116092097741514,-8.689519252739887,-12.660926892035336,27.430186613419593,no_tremor
161,3708717,1.159,-0.6289933852519701,-0.232659610102453,0.7119753995014102,-7.512242905059394,-10.801695313217243,24.68640227189004,no_tremor
162,3708722,1.164,-0.6235401997891575,-0.2364886947828211,0.7124879326823399,-6.387949766200064,-9.027982829157969,22.018021608733093,no_tremor
163,3708727,1.169,-0.6179262815558646,-0.2403298848399461,0.7131395052018991,-5.317227404713479,-7.340729785965223,19.42611240638832,no_tremor
164,3708732,1.174,-0.6121899313473721,-0.2441644927775919,0.7139219872427579,-4.300336598568011,-5.740248228522896,16.91114098062782,no_tremor
165,3708736,1.178,-0.6063692261819325,-0.24797413040787597,0.7148264758424654,-3.337213759293146,-4.226242403140474,14.472988130067383,no_tremor
166,3708741,1.183,-0.6005018051236813,-0.2517407899683439,0.715843354300798,-2.427475292827856,-2.797833003234824,12.110968633882623,no_tremor
167,3708746,1.188,-0.594624662324352,-0.25544692199195473,0.7169623579273959,-1.5704238377074342,-1.4535847744422987,9.823854048285346,no_tremor
168,3708751,1.193,-0.5887739483876884,-0.2590755095813778,0.7181726455657769,-0.7650563129642072,-0.19153707824633925,7.609898539684779,no_tremor
169,3708756,1.198,-0.5829847810286305,-0.2626101387908838,0.7194628762838235,-0.01007370092231433,0.990762993910113,5.466867485110521,no_tremor
170,3708761,1.203,-0.577291065878019,-0.266035064868873,0.7208212905803826,0.6961075169027942,2.0962253595892983,3.3920685693242842,no_tremor
171,3708786,1.228,-0.5717253281742714,-0.2693352741596306,0.7222357954202372,1.355342359867016,3.1281799251203526,1.382385112588454,no_tremor
172,3708790,1.232,-0.5663185559855022,-0.2724965415024558,0.7236940523736092,1.969742881163355,4.090338168818527,-0.5656886291176096,no_tremor
173,3708795,1.237,-0.5611000555152181,-0.27550548299962174,0.7251835681015997,2.5416623393614,4.986753660314532,-2.4560104426434335,no_tremor
174,3708800,1.242,-0.5560973189556373,-0.27834960405361026,0.7266917863979855,3.0736781237722726,5.821781819196331,-4.2927516643732355,no_tremor
175,3708805,1.247,-0.5513359052592869,-0.28101734260185207,0.7282061809741268,3.5685735585531893,6.600039191443512,-6.080357469726905,no_tremor
176,3708810,1.252,-0.5468393341009626,-0.28349810750617843,0.7297143481601861,4.029318718773644,7.326362503072053,-7.823506210304978,no_tremor
177,3708814,1.256,-0.5426289932024112,-0.28578231208517874,0.7312040986935241,4.45905039739823,8.005767735745893,-9.527068074552938,no_tremor
178,3708824,1.266,-0.5387240590969146,-0.2878614028105037,0.7326635477742085,4.86105136503411,8.643409457520915,-11.196063356217374,no_tremor
179,3708829,1.271,-0.535141431324871,-0.28972788322239784,0.7340812025881788,5.238729064887757,9.24454063262504,-12.835620618988727,no_tremor
180,3708834,1.276,-0.531895679977081,-0.2913753331547876,0.7354460465313087,5.595593884267755,9.81447312673799,-14.450935045430029,no_tremor
181,3708838,1.28,-0.5289990064404765,-0.2927984233951016,0.7367476194131326,5.935237141204769,10.35853911805418,-16.047227254289552,no_tremor
182,3708843,1.285,-0.5264612171506239,-0.293992925937075,0.737976092977352,6.261308920028262,10.882053618577276,-17.6297028631915,no_tremor
183,3708848,1.29,-0.5242897101145951,-0.2949557200139256,0.7391223411458934,6.5774958832115615,11.390278303047767,-19.20351306320866,no_tremor
184,3708853,1.295,-0.522489473934198,-0.2956847941221637,0.7401780044712981,6.887499179460176,11.888386832743567,-20.773716457084117,no_tremor
185,3708858,1.3,-0.5210630990301596,-0.2961792442609398,0.7411355483653004,7.1950125607961875,12.3814318468742,-22.345242393491315,no_tremor
186,3708863,1.305,-0.5200108007394125,-0.29643926861698555,0.7419883147566372,7.50370081405869,12.874313775563552,-23.922856006135106,no_tremor
187,3708868,1.31,-0.5193304539268979,-0.29646615892038003,0.7427305669161854,7.817178603563115,13.371751606514122,-25.511125139247465,no_tremor
188,3708872,1.314,-0.5190176387173845,-0.2962622886818937,0.7433575272709168,8.138989810601338,13.878255713118262,-27.114389310189164,no_tremor
189,3708877,1.319,-0.5190656969095269,-0.2958310984995868,0.7438654081090905,8.472587442208228,14.398102825266918,-28.736730825422562,no_tremor
190,3708908,1.35,-0.5194657985826192,-0.2951770785923711,0.744251435157312,8.821314167630357,14.93531319600165,-30.381948128824853,no_tremor
191,3708913,1.355,-0.5202070183471772,-0.2943057486835001,0.7445138640850538,9.188383528164563,15.493629989276952,-32.05353142355608,no_tremor
192,3708918,1.36,-0.5212764206282964,-0.2932236353195303,0.7446519900618565,9.576861856306431,16.076500889517636,-33.75464057531642,no_tremor
193,3708923,1.365,-0.5226591533143047,-0.2919382466718191,0.7446661505521579,9.989650935055845,16.68706191537636,-35.48808528181494,no_tremor
194,3708928,1.37,-0.5243385490616267,-0.29045804482897325,0.7445577215769709,10.429471428677079,17.328123408826006,-37.25630748348216,no_tremor
195,3708933,1.375,-0.5262962335247433,-0.28879241555017987,0.7443291076965746,10.898847121441216,18.00215816432378,-39.061365991071966,no_tremor
196,3708938,1.38,-0.5285122397767531,-0.2869516354113291,0.7439837259735071,11.40009000854674,18.711291658738904,-40.90492331124457,no_tremor
197,3708942,1.384,-0.5309651281971626,-0.2849468362389308,0.7435259841628635,11.935286291246669,19.45729434052294,-42.788234657318,no_tremor
198,3708947,1.389,-0.5336321111243285,-0.28278996669230844,0.7429612533514292,12.5062833352464,20.241575937072366,-44.71213913713529,no_tremor
199,3708952,1.394,-0.5364891815960662,-0.28049375082427647,0.7422958352335918,13.114677657504075,21.065181742554312,-46.677053112631846,no_tremor
200,3708957,1.399,-0.5395112455296602,-0.2780716434268479,0.7415369241757044,13.76180401129493,21.928790853535872,-48.6829657260036,no_tremor
201,3708967,1.409,-0.5426722567190663,-0.2755377819542395,0.7406925641870259,14.448725642330494,22.832716325088178,-50.72943658541408,no_tremor
202,3708971,1.413,-0.5459453540506572,-0.27290693481351647,0.7397716008896675,15.176225789846816,23.776907224530525,-52.815595599110196,no_tremor
203,3708976,1.418,-0.5493030003588778,-0.2701944458266462,0.7387836285667261,15.94480050612979,24.760952563177845,-54.94014494117117,no_tremor
204,3708981,1.423,-0.5527171223602062,-0.2674161746990963,0.7377389323704426,16.754652865949637,25.784087088327134,-57.101363125680436,no_tremor
205,3708986,1.428,-0.5561592511188125,-0.26458843338100074,0.7366484257922415,17.605688633799886,26.845198917729288,-59.297111159568296,no_tremor
206,3708991,1.433,-0.5596006625104706,-0.26172791827739,0.7355235835328496,18.49751345180533,27.942838995330455,-61.5248407383074,no_tremor
207,3708996,1.438,-0.5630125171618133,-0.25885163835264713,0.7343763699603484,19.42943160461782,29.075232338508428,-63.78160444312962,no_tremor
208,3709000,1.442,-0.566365999348517,-0.2559768392787653,0.7332191634028382,20.400446409152668,30.240291032903052,-66.0640678918219,no_tremor
209,3709005,1.447,-0.5696324543369456,-0.2531209238940343,0.7320646765859568,21.409262266294363,31.43562891140204,-68.36852378450213,no_tremor
210,3709031,1.473,-0.5727835236478415,-0.25030136936466624,0.7309258735894356,22.454288398660612,32.65857782889834,-70.69090776949619,no_tremor
211,3709036,1.478,-0.5757912777073918,-0.24753564157091631,0.7298158837571658,23.533644283394246,33.90620541487093,-73.02681603414548,no_tremor
212,3709041,1.483,-0.5786283453325294,-0.24484110736178816,0.7287479130483107,24.645166772917516,35.17533415492565,-75.37152450577086,no_tremor
213,3709046,1.488,-0.5812680394790882,-0.24223494542478388,0.7277351533604219,25.78641888197224,36.462561625551686,-77.72000953528298,no_tremor
214,3709051,1.493,-0.583684478670504,-0.23973405658702593,0.7267906903890434,26.954700207991188,37.764281688030295,-80.0669699339448,no_tremor
215,3709055,1.497,-0.585852703526466,-0.23735497439704362,0.7259274106143537,28.147058943755653,39.07670643897704,-82.40685024102639,no_tremor
216,3709060,1.502,-0.5877487878274165,-0.23511377683687557,0.7251579080277823,29.360305435000193,40.39588871501293,-84.73386511131157,no_tremor
217,3709065,1.507,-0.5893499435819796,-0.2330259999900281,0.7244943912333811,30.59102723013864,41.71774495517151,-87.04202472201237,no_tremor
218,3709070,1.512,-0.5906346196093669,-0.23110655444971584,0.7239485915813191,31.835605563976454,43.038078234881866,-89.3251611066327,no_tremor
219,3709075,1.517,-0.5915825932062433,-0.22936964519909978,0.7235316730135374,33.09023321101965,44.352601299105245,-91.57695532850545,no_tremor
220,3709080,1.522,-0.592175054535742,-0.22782869563459576,0.7232541443222245,34.35093363535869,45.65695944007522,-93.79096540919937,no_tremor
221,3709085,1.527,-0.5923946834530582,-0.22649627633726305,0.7231257745374798,35.6135813522976,46.94675308783939,-95.96065492625547,no_tremor
222,3709094,1.536,-0.5922257185646083,-0.22538403912766447,0.7231555121684263,36.873923402211474,48.217560009331635,-98.07942219000113,no_tremor
223,3709099,1.541,-0.5916540184029283,-0.22450265686779955,0.7233514090196552,38.12760182087709,49.464957042680616,-100.14062990075692,no_tremor
224,3709104,1.546,-0.5906671146837833,-0.22386176940063357,0.7237205492904331,39.37017697490677,50.68454132544278,-102.13763517771218,no_tremor
225,3709109,1.551,-0.5892542576919412,-0.22346993594382386,0.7242689846365192,40.597151618217694,51.87195100555135,-104.06381984202568,no_tremor
226,3709114,1.556,-0.5874064539150877,-0.223334594179811,0.7250016758339244,41.80399551666639,53.022885449053305,-105.91262083072147,no_tremor
227,3709119,1.561,-0.5851164961102182,-0.223462026210078,0.7259224416320871,42.986170482081164,54.13312497603671,-107.67756061372484,no_tremor
228,3709124,1.566,-0.5823789860437952,-0.22385733146807252,0.727033915323438,44.139155652116656,55.19855016248582,-109.3522774821838,no_tremor
229,3709128,1.57,-0.5791903501972718,-0.2245244066143188,0.7283375094900446,45.25847284759689,56.21516073892597,-110.93055557164391,no_tremor
230,3709156,1.598,-0.575548848774751,-0.2254659323700918,0.7298333893183773,46.33971183444702,57.17909409570022,-112.4063544799868,no_tremor
231,3709161,1.603,-0.571454578389588,-0.22668336718478327,0.7315204548017454,47.37855531374202,58.0866433705519,-113.77383833905886,no_tremor
232,3709166,1.608,-0.5669094688372988,-0.22817694758036874,0.7333963320772827,48.370803462064565,58.93427505137568,-115.02740420190966,no_tremor
233,3709170,1.612,-0.5619172743741185,-0.22994569497911949,0.7354573740703956,49.31239784671412,59.71864598373083,-116.16170961556548,no_tremor
234,3709175,1.617,-0.5564835599053362,-0.23198742880149145,0.7376986705435844,50.19944454686978,60.43661963713913,-117.17169926235867,no_tremor
235,3709180,1.622,-0.5506156824437655,-0.23429878561924533,0.7401140675676587,51.02823632140265,61.085281460110075,-118.05263056860201,no_tremor
236,3709185,1.627,-0.5443227681333287,-0.23687524415933972,0.7426961963513347,51.7952736748575,61.66195314061644,-118.80009819375738,no_tremor
237,3709190,1.632,-0.5376156850559581,-0.23971115597045753,0.7454365112809462,52.497284684105,62.16420558457999,-119.41005732336774,no_tremor
238,3709195,1.637,-0.5305070119608752,-0.2427997815802958,0.7483253369373734,53.1312434587812,62.58987042925779,-119.87884569450759,no_tremor
239,3709200,1.642,-0.5230110029803197,-0.2461333319833161,0.7513519237744419,53.69438711843304,62.93704992208124,-120.20320428425634,no_tremor
240,3709205,1.647,-0.5151435483296145,-0.2497030153019508,0.7545045120638756,54.18423117834477,63.20412501944035,-120.38029659077107,no_tremor
241,3709209,1.651,-0.5069221309352689,-0.2534990884566799,0.7577704036378491,54.59858324517228,63.38976159376649,-120.4077264339581,no_tremor
242,3709214,1.656,-0.49836577889444555,-0.2575109136602218,0.7611360408923789,54.935554933731815,63.49291467889879,-120.2835541994209,no_tremor
243,3709219,1.661,-0.48949501364302545,-0.261727019517511,0.764587092453847,55.19357192799558,63.51283072963116,-120.00631144581503,no_tremor
244,3709224,1.666,-0.4803317936969558,-0.2661351664663942,0.7681085448573474,55.371382122421934,63.44904791750163,-119.57501379236227,no_tremor
245,3709229,1.671,-0.4708994538307105,-0.27072241623536175,0.7716847995395643,55.468061793873,63.30139452768858,-118.98917200092639,no_tremor
246,3709234,1.676,-0.4612226395650291,-0.27547520492622407,0.7752997744104413,55.48301976908894,63.069985558960624,-118.24880116695248,no_tremor
247,3709238,1.68,-0.45132723685163595,-0.2803794192537531,0.7789370092361257,55.415999567232404,62.755217658981095,-117.35442793654184,no_tremor
248,3709253,1.695,-0.4412402968650547,-0.2854204753932999,0.7825797740391194,55.26707951059233,62.35776255038985,-116.30709567316397,no_tremor
249,3709290,1.732,-0.4309899558414983,-0.2905833998042793,0.7862111796986672,55.03667080914076,61.878559118062846,-115.10836750684386,no_tremor
250,3709294,1.736,-0.4206053499398516,-0.2958529113174855,0.789814289914122,54.72551363733901,61.31880433398674,-113.76032721000765,no_tremor
251,3709299,1.741,-0.410116525130629,-0.30121350370631894,0.7933722336761565,54.33467123556603,60.67994319476692,-112.26557785427295,no_tremor
252,3709304,1.746,-0.3995543421308858,-0.3066495279166977,0.7968683173758391,53.86552208384856,59.963657842647315,-110.6272382068754,no_tremor
253,3709309,1.751,-0.3889503763867193,-0.3121452731149487,0.800286135670996,53.319750211042646,59.17185603910334,-108.84893682206189,no_tremor
254,3709314,1.756,-0.37833681306444794,-0.3176850457280909,0.8036096802248875,52.69933371682603,58.30665916196192,-106.93480377431104,no_tremor
255,3709319,1.761,-0.36774633696317305,-0.32325324569257424,0.8068234454365435,52.00653159619317,57.370389900190965,-104.88945997232447,no_tremor
256,3709323,1.765,-0.35721201722456997,-0.3288344391906948,0.809912530297681,51.243868967215136,56.3655598215782,-102.71800399043333,no_tremor
257,3709328,1.77,-0.34676718670619633,-0.33441342723464473,0.8128627355398261,50.41412081406649,55.29485698480138,-100.42599635968043,no_tremor
258,3709343,1.785,-0.3364453159129831,-0.33997530955383576,0.8156606552780646,49.5202943698264,54.16113375688922,-98.01944127395743,no_tremor
259,3709348,1.79,-0.32627988145335146,-0.3455055433499794,0.8182937624146073,48.5656102770047,52.967394978068505,-95.50476568541569,no_tremor
260,3709353,1.795,-0.3163042291007724,-0.35098999660530755,0.8207504871346383,47.55348267634995,51.71678658686511,-92.88879578616334,no_tremor
261,3709358,1.8,-0.30655143169069404,-0.3564149957610559,0.8230202879054385,46.487498384405555,50.4125847784453,-90.1787308989814,no_tremor
262,3709362,1.804,-0.29705414225356347,-0.36176736772258156,0.8250937144721577,45.37139532727294,49.058185720716374,-87.38211482836904,no_tremor
263,3709367,1.809,-0.28784444296350103,-0.3670344762871933,0.8269624624228861,44.20904040390929,47.657095800548824,-84.50680475546332,no_tremor
264,3709377,1.819,-0.2789536906582162,-0.3722042532207919,0.828619418964873,43.004406959369454,46.21292232161696,-81.56093779727465,no_tremor
265,3709403,1.845,-0.27041235985094786,-0.377265224319075,0.8300586996080133,41.7615520575962,44.72936452964309,-78.55289539222333,no_tremor
266,3709408,1.85,-0.2622498843023596,-0.3822065308695723,0.8312756754907932,40.484593752739954,43.21020480499613,-75.49126571760668,no_tremor
267,3709413,1.855,-0.2544944983424682,-0.3870179469773288,0.8322669911148536,39.177688562770044,41.65929984286393,-72.38480438448893,no_tremor
268,3709423,1.865,-0.2471730792257892,-0.3916898932303555,0.8330305722913273,37.845009344346096,40.080571641530454,-69.24239368469902,no_tremor
269,3709427,1.869,-0.24031099186920254,-0.39621344716686857,0.8335656241600656,36.49072375243867,38.477998137465704,-66.0730006800218,no_tremor
270,3709432,1.874,-0.23393193736916432,-0.4005803509731764,0.8338726192291802,35.11897344564179,36.85560335511875,-62.88563442750424,no_tremor
271,3709437,1.879,-0.2280578067301849,-0.40478301679672196,0.8339532754943821,33.73385417344303,35.217446972962016,-59.68930263138352,no_tremor
272,3709442,1.884,-0.22270854126264777,-0.40881453000893736,0.8338105248267075,32.339396858006765,33.56761324237311,-56.49296800537564,no_tremor
273,3709447,1.889,-0.21790200112321137,-0.41266865070034564,0.8334484719531611,30.93954976142017,31.910199231990006,-53.30550462280189,no_tremor
274,3709452,1.894,-0.213653843470986,-0.4163398136370254,0.8328723444882151,29.538161810225777,30.249302407407644,-50.135654529858314,no_tremor
275,3709461,1.903,-0.20997741169225417,-0.41982312685385115,0.8320884345974626,28.13896713284466,28.589007593906807,-46.99198490100696,no_tremor
276,3709471,1.913,-0.20688363710040325,-0.4231143690068087,0.8311040329829638,26.745570852675247,26.93337340655545,-43.88284602417916,no_tremor
277,3709476,1.918,-0.2043809544415841,-0.42620998555582246,0.8299273559699337,25.361436170137466,25.28641826401701,-40.81633041410021,no_tremor
278,3709481,1.923,-0.2024752324280725,-0.4291070838035498,0.8285674665446626,23.989872759630366,23.65210612452242,-37.80023336021097,no_tremor
279,3709486,1.928,-0.20116972038088007,-0.4318034267776484,0.8270341902432599,22.63402650091063,22.034332090125712,-34.84201521825352,no_tremor
280,3709490,1.932,-0.20046501189412522,-0.43429742591643344,0.8253380268208474,21.29687055820909,20.436908018109932,-31.94876575182588,no_tremor
281,3709495,1.937,-0.20035902624104657,-0.4365881325010167,0.8234900586436982,19.98119781488016,18.863548260451378,-29.12717082481526,no_tremor
282,3709500,1.942,-0.20084700803030167,-0.43867522776961976,0.8215018567461246,18.689614667223715,17.317855629395087,-26.383481740205053,no_tremor
283,3709526,1.968,-0.20192154539529794,-0.4405590116496491,0.8193853854834777,17.424536178696183,15.803307664195774,-23.723487516372845,no_tremor
284,3709531,1.973,-0.20357260676287764,-0.44224039004849147,0.8171529066957336,16.188182594215235,14.323243254651866,-21.152490387098368,no_tremor
285,3709536,1.978,-0.205787596007983,-0.4437208606543163,0.8148168842747597,14.982577210558878,12.880849664599383,-18.67528480018083,no_tremor
286,3709541,1.983,-0.20855142556976008,-0.44500249721441165,0.8123898900024965,13.809545588678565,11.479149995303244,-16.296140163280363,no_tremor
287,3709546,1.988,-0.21184660689482995,-0.4460879322818091,0.8098845114956507,12.670716075687132,10.120991134207634,-14.018787540224272,no_tremor
288,3709551,1.993,-0.21565335739336408,-0.4469803384505381,0.8073132630538249,11.56752158202731,8.809032245702069,-11.8464104411167,no_tremor
289,3709556,1.998,-0.21994972294435666,-0.44768340813298124,0.8046885001618264,10.501202538518015,7.545733874179345,-9.781639783768412,no_tremor
290,3709560,2.002,-0.22471171486434674,-0.4482013319655771,0.8020223383432595,9.472810941991757,6.3333477441492025,-7.826553038270201,no_tremor
291,3709565,2.007,-0.22991346015293398,-0.44853877595771363,0.799326577001491,8.483215387475397,5.1739073568141425,-5.9826775034945205,no_tremor
292,3709570,2.012,-0.2355273637424846,-0.4487008575199454,0.7966126288158226,7.533106978354598,4.069219495716118,-4.25099760528513,no_tremor
293,3709574,2.016,-0.24152428140293822,-0.4486931205194143,0.7938914551856735,6.623006002572108,3.0208567634623704,-2.6319660524742,no_tremor
294,3709579,2.021,-0.24787370188169586,-0.44852150951135233,0.7911735081347427,5.753269261655709,2.03015127566482,-1.1255186398523673,no_tremor
295,3709589,2.031,-0.25454393679125564,-0.4481923432856732,0.7884686790020591,4.924097939409645,1.098189637131986,0.2689075525325226,no_tremor
296,3709594,2.036,-0.2615023166940434,-0.4477122878480061,0.7857862541595594,4.1355458979630075,0.22580931923733408,1.552352846762969,no_tremor
297,3709599,2.041,-0.2687153917784515,-0.44708832892739514,0.7831348779085395,3.3875282906304225,-0.5864034546184903,2.7263108495059702,no_tremor
298,3709603,2.045,-0.27614913547934133,-0.4463277440717333,0.7805225226220632,2.679830384071008,-1.338114227472587,3.7927018568990696,no_tremor
299,3709608,2.05,-0.2837691493776923,-0.4454380743609473,0.7779564661190274,2.012116487023675,-2.0292391686482785,4.753844122624197,no_tremor
300,3709613,2.055,-0.2915408677216466,-0.4444270957410642,0.775443276179657,1.3839388902059016,-2.659942242568599,5.61242333872781,no_tremor
301,3709618,2.06,-0.29942975994317894,-0.44330278996295186,0.7729888020429065,0.7947467324209752,-3.2306306871638926,6.371460684447205,no_tremor
302,3709623,2.065,-0.30740152959496075,-0.44207331510013365,0.770598172664044,0.24389472126824577,-3.7419488372539833,7.034279801969806,no_tremor
303,3709652,2.094,-0.3154223081932163,-0.4407469756219585,0.7682758014552504,-0.2693483480397516,-4.194770363381105,7.604473058652868,no_tremor
304,3709657,2.099,-0.3234588425186957,-0.43933219201154433,0.766025397182087,-0.7457913168351569,-4.590189029720714,8.085867450249868,no_tremor
305,3709662,2.104,-0.33147867399871606,-0.4378374699404012,0.7638499806417555,-1.1863126572955862,-4.929508102332479,8.48249048788311,no_tremor
306,3709667,2.109,-0.3394503088743796,-0.4362713690397039,0.7617519067022038,-1.591852753736417,-5.21422855724209,8.798536393787078,no_tremor
307,3709671,2.113,-0.34734337795638753,-0.4346424713375336,0.759732891232516,-1.9634064821613633,-5.4460362450843816,9.038332908744302,no_tremor
308,3709681,2.123,-0.3551287848933942,-0.43295934945923187,0.7577940424058244,-2.3020160977169413,-5.626788167653231,9.20630898864854,no_tremor
309,3709686,2.128,-0.3627788420154785,-0.4312305347134249,0.7559358958099796,-2.6087644401848307,-5.758498016123441,9.30696363927809,no_tremor
310,3709691,2.133,-0.370267392967097,-0.4294644852090961,0.7541584527629377,-2.8847684686048414,-5.843321114119442,9.344836107436873,no_tremor
311,3709696,2.138,-0.3775699215055976,-0.42766955416865904,0.7524612212030259,-3.1311731364367454,-5.883538902052437,9.324477613615706,no_tremor
312,3709701,2.143,-0.38466364601063896,-0.42585395861725034,0.7508432585112145,-3.349145617752222,-5.881543092013815,9.250424777400399,no_tremor
313,3709706,2.148,-0.3915275994226809,-0.42402574863876963,0.7493032156241604,-3.5398698927383263,-5.8398196149432025,9.127174853686293,no_tremor
314,3709716,2.158,-0.3981426944990616,-0.4221927773944909,0.7478393818128337,-3.7045416974332115,-5.760932473921379,8.959162866737216,no_tremor
315,3709720,2.162,-0.40449177443769957,-0.42036267210046224,0.7464497295309064,-3.8443638382797642,-5.6475076093951415,8.750740700613571,no_tremor
316,3709725,2.167,-0.4105596490661325,-0.41854280615518435,0.7451319587781273,-3.9605418671998067,-5.502216874322727,8.506158177937158,no_tremor
317,3709730,2.172,-0.4163331169241643,-0.4167402725988415,0.7438835404745155,-4.054280108124583,-5.3277622104158615,8.229546133813562,no_tremor
318,3709735,2.177,-0.42180097367985686,-0.41496185906978666,0.7427017583991617,-4.126778021893506,-5.126860111471606,7.924901468185734,no_tremor
319,3709740,2.182,-0.42695400740970624,-0.41321402440412824,0.7415837493106938,-4.179226893541356,-4.902226456211368,7.596074138583192,no_tremor
320,3709769,2.211,-0.43178498134404203,-0.41150287700188753,0.7405265409332767,-4.212806824186319,-4.6565617905061645,7.24675603646041,no_tremor
321,3709774,2.216,-0.43628860472907477,-0.4098341550601063,0.7395270875605409,-4.228684008518839,-4.392537136517253,6.88047167383683,no_tremor
322,3709779,2.221,-0.44046149249152766,-0.4082132087509431,0.7385823030975176,-4.228008277848534,-4.1127804029980615,6.500570592553066,no_tremor
323,3709784,2.226,-0.4443021144171722,-0.40664498440230584,0.737689091424157,-4.211910887939855,-3.8198634656176766,6.110221396550687,no_tremor
324,3709789,2.231,-0.4478107345776701,-0.4051340107209322,0.7368443740203309,-4.181502530953936,-3.516289978365759,5.712407298891502,no_tremor
325,3709793,2.235,-0.45098934176436634,-0.4036843870840558,0.7360451148400787,-4.137871551821101,-3.204483967988029,5.3099230699622835,no_tremor
326,3709798,2.24,-0.4538415717125611,-0.4022997739166344,0.7352883424626125,-4.082082350715062,-2.886779254543197,4.905373270966918,no_tremor
327,3709803,2.245,-0.45637262192293915,-0.400983385166692,0.7345711695802244,-4.015173954308435,-2.565409733272173,4.501171656918915,no_tremor
328,3709808,2.25,-0.4585891599059314,-0.3997379828911034,0.7338908099094467,-3.9381587391412753,-2.242500546125743,4.099541635975196,no_tremor
329,3709813,2.255,-0.46049922568795354,-0.3985658739671544,0.7332445926319933,-3.852021291306413,-1.920060166056595,3.7025176773044888,no_tremor
330,3709822,2.264,-0.46211212942393837,-0.3974689089502709,0.7326299744863219,-3.757717388142065,-1.5999734142800035,3.3119475675283723,no_tremor
331,3709827,2.269,-0.46343834495674024,-0.3964484831040449,0.7320445496392435,-3.65617308942453,-1.2839954297634524,2.929495425384858,no_tremor
332,3709832,2.274,-0.46448940014969325,-0.395505539633426,0.7314860574701046,-3.5482839269381072,-0.9737466095196223,2.5566453947257672,no_tremor
333,3709837,2.279,-0.4652777647936381,-0.3946405751537857,0.7309523883982525,-3.4349141817865187,-0.6707085361208143,2.1947059465237166,no_tremor
334,3709842,2.284,-0.4658167368551859,-0.3938536474258524,0.7304415878788334,-3.3168962385938583,-0.37622090463346447,1.8448147309214384,no_tremor
335,3709847,2.289,-0.46612032779144524,-0.3931443853784832,0.7299518586841852,-3.1950300054099112,-0.09147945541753746,1.507943930428698,no_tremor
336,3709861,2.303,-0.4662031476117713,-0.3925120014282053,0.7294815615802339,-3.0700823881827577,0.18246508720513754,1.184906074832065,no_tremor
337,3709866,2.308,-0.4660802903238642,-0.39195530608757984,0.7290292145014124,-2.942786809540987,0.44470707699620177,0.8763602866358463,no_tremor
338,3709896,2.338,-0.465767220364346,-0.39147272483519524,0.7285934903253519,-2.81384276383568,0.6944850214842876,0.5828189323708399,no_tremor
339,3709901,2.343,-0.4652796605864337,-0.3910623171996984,0.7281732133508837,-2.6839154039379487,0.9311796896954051,0.3046546594261981,no_tremor
340,3709905,2.347,-0.4646334823608094,-0.39072179798904927,0.7277673545892657,-2.553635159236298,1.1543112745596185,0.04210779960555108,no_tremor
341,3709915,2.357,-0.46384459833830105,-0.39044856057345656,0.7273750259868365,-2.423597387344423,1.3635356361278939,-0.2047058810571696,no_tremor
342,3709925,2.367,-0.462928858420409,-0.3902397021053337,0.7269954737044044,-2.2943620637187605,1.5586396557308304,-0.4357871113338351,no_tremor
343,3709930,2.372,-0.4619019494819364,-0.39009205053227564,0.7266280705820436,-2.166453514280536,1.7395357365251065,-0.6512447544733975,no_tremor
344,3709934,2.376,-0.46077929938605944,-0.3900021932311402,0.7262723079163647,-2.0403601969632668,1.9062554925994413,-0.8512871979449719,no_tremor
345,3709939,2.381,-0.45957598582409565,-0.38996650706513636,0.7259277866706896,-1.9165345387533546,2.058942676881971,-1.0362135405572865,no_tremor
346,3709958,2.4,-0.4583066504986783,-0.38998118964328427,0.7255942082276763,-1.7953928344950971,2.197845407612366,-1.2064046315304437,no_tremor
347,3709963,2.405,-0.4569854191492745,-0.3900422915436932,0.7252713647802874,-1.6773152121858148,2.3233077640171906,-1.3623140219773648,no_tremor
348,3709968,2.41,-0.4556258278922084,-0.3901457492490179,0.7249591294425423,-1.5626456676198892,2.4357608333631102,-1.5044588935477237,no_tremor
349,3709973,2.415,-0.45424075631220073,-0.39028741853402943,0.7246574461484635,-1.4516921705856347,2.535713302652406,-1.6334110319692319,no_tremor
350,3709978,2.42,-0.45284236769766995,-0.3904631080409419,0.7243663193980493,-1.3447268459657362,2.6237416977753494,-1.749787914866234,no_tremor
351,3709982,2.424,-0.45144205675774557,-0.39066861277698606,0.7240858039042443,-1.2419862350972701,2.7004803801045503,-1.8542439831293407,no_tremor
352,3709987,2.429,-0.4500504050967854,-0.39089974726939736,0.7238159941951811,-1.143671644214713,2.766611414816884,-1.9474621631076836,no_tremor
353,3710012,2.454,-0.44867714465452435,-0.39115237811420933,0.7235570142311655,-1.0499495871809312,2.8228544265488,-2.0301457034038135,no_tremor
354,3710017,2.459,-0.4473311292488568,-0.39142245565607725,0.7233090071052958,-0.9609523294619066,2.869956556550694,-2.103010385545905,no_tremor
355,3710022,2.464,-0.44602031428487837,-0.3917060445364607,0.7230721249089781,-0.8767785400585778,2.9086826318331154,-2.1667771624742733,no_tremor
356,3710027,2.469,-0.44475174461864553,-0.3919993528472058,0.7228465188570432,-0.7974940579895308,2.9398056516621844,-2.2221652727998933,no_tremor
357,3710032,2.474,-0.4435315504876104,-0.39229875962671273,0.7226323297795892,-0.7231327796198882,2.964097690722376,-2.269885872518491,no_tremor
358,3710036,2.478,-0.44236495134310116,-0.3926008404373418,0.7224296790973905,-0.6536976723443174,2.982321311052447,-2.3106362192286203,no_tremor
359,3710041,2.483,-0.44125626734555495,-0.3929023907662026,0.7222386604038018,-0.5891619186799559,2.9952215656859216,-2.3450944362240254,no_tremor
360,3710046,2.488,-0.4402089382125814,-0.3932004469975595,0.7220593317781172,-0.5294701928368448,3.0035186658208137,-2.3739148747473564,no_tremor
361,3710051,2.493,-0.43922554904504385,-0.39349230471440966,0.7218917089531175,-0.47454006985493113,3.0079013717012675,-2.3977240829648565,no_tremor
362,3710056,2.498,-0.43830786269837896,-0.39377553410012134,0.7217357594529807,-0.42426356596863657,3.0090211567911442,-2.4171173811184916,no_tremor
363,3710060,2.502,-0.43745685821612496,-0.3940479922290796,0.7215913978069799,-0.37850880805395903,3.0074871857518892,-2.4326560343943955,no_tremor
364,3710065,2.507,-0.43667277480047906,-0.3943078320585561,0.7214584819297342,-0.33712182957645426,3.003862138791043,-2.444865007945535,no_tremor
365,3710070,2.512,-0.4359551607606017,-0.39455350796266,0.7213368107405755,-0.2999284901394699,2.998658907558582,-2.454231281843244,no_tremor
366,3710075,2.517,-0.4353029268528884,-0.39478377768315953,0.7212261230731901,-0.2667365152787956,2.9923381802827014,-2.4612026979340094,no_tremor
367,3710080,2.522,-0.4347144034077801,-0.39499770061093176,0.7211260979025393,-0.23733765225673897,2.9853069252701823,-2.4661873066226727,no_tremor
368,3710085,2.527,-0.43418740062391836,-0.3951946323553952,0.7210363558897659,-0.21150993608318763,2.9779177714376757,-2.4695531801168116,no_tremor
369,3710089,2.531,-0.4337192714014841,-0.3953742156069901,0.7209564622181924,-0.18902005791931756,2.9704692723823447,-2.4716286594592907,no_tremor
370,3710094,2.536,-0.43330697608119956,-0.3955363673490497,0.7208859306656925,-0.1696258257104065,2.963207027634796,-2.472703005001754,no_tremor
371,3710099,2.541,-0.4329471484524589,-0.3956812625297491,0.7208242288318566,-0.15307870470438348,2.9563256218787046,-2.473027422953229,no_tremor
372,3710104,2.546,-0.4326361623920392,-0.39580931436183314,0.7207707844137071,-0.13912642366118308,2.94997133009588,-2.472816443534705,no_tremor
373,3710108,2.55,-0.4323701984924539,-0.39592115147719914,0.7207249924022463,-0.12751563093742269,2.9442455236735334,-2.472249628759472,no_tremor
374,3710138,2.58,-0.4321453100348508,-0.39601759222491,0.7206862230544817,-0.11799458278974753,2.93920869953953,-2.471473590167997,no_tremor
