sample,t_ms,t_s,ax,ay,az,gx,gy,gz,tremor
0,4117825,0.0,-0.383958403588981,-0.2839976009253287,0.8206842823336393,-1.1215814963751916,31.40850210108274,-1.777218248732575,tremor
1,4117830,0.005,-0.384808553274815,-0.28395416288042385,0.8209506981003547,-1.189906851729601,37.40244279980882,-1.6869451652158285,tremor
2,4117835,0.01,-0.3860879401303354,-0.2839004178971698,0.8212992362081691,-1.2832131165113831,43.641930977226075,-1.5839868486380138,tremor
3,4117860,0.035,-0.3878941376325699,-0.2838395683474175,0.8217220540408503,-1.402089391912766,50.09632481583758,-1.4680456089293386,tremor
4,4117865,0.04,-0.3902631080563893,-0.2837780009374922,0.822190554053997,-1.5469569022521965,56.73146988580098,-1.3388836216395854,tremor
5,4117870,0.045,-0.39318400973199497,-0.28372304930028847,0.8226668293014838,-1.7180603382635133,63.509802452138885,-1.1963239150657075,tremor
6,4117874,0.049,-0.3966223481824821,-0.28368144027003983,0.8231128995120994,-1.9154610002053498,70.39049321645054,-1.0402501810238967,tremor
7,4117879,0.054,-0.40053659107972195,-0.28365870090329914,0.8234950512294062,-2.1390319231197847,77.32963284822614,-0.8706053239538705,tremor
8,4117884,0.059,-0.4048865401382949,-0.2836591484190398,0.8237847798481326,-2.3884551443504747,84.28046029555793,-0.6873886857743927,tremor
9,4117889,0.064,-0.40963607495783066,-0.2836861040726283,0.8239581820859416,-2.6632212485803586,91.1936344513828,-0.49065190877412423,tremor
10,4117894,0.069,-0.4147530559759461,-0.2837421339156262,0.8239949492825764,-2.9626312985689274,98.0175492907173,-0.2804934250221676,tremor
11,4117898,0.073,-0.42020817375785396,-0.2838292421918451,0.8238774685867858,-3.285801230263738,104.69869208882488,-0.057051587719012406,tremor
12,4117908,0.083,-0.425973636954355,-0.28394900448459315,0.8235901779075405,-3.631668758523309,111.18204378220717,0.17950351246814636,tremor
13,4117912,0.087,-0.4320220545496572,-0.2841026501629885,0.8231191675088531,-3.9990028037637373,117.41151994500393,0.4289794739829019,tremor
14,4117918,0.093,-0.43832560583174984,-0.2842911081864876,0.8224519749543163,-4.386415410002561,123.33045022255595,0.6911721503227963,tremor
15,4117922,0.097,-0.4448554842459648,-0.2845150284994848,0.8215775174716601,-4.792376080797965,128.88209339083102,0.9658772178854971,tremor
16,4117927,0.102,-0.4515815680467108,-0.2847747880680538,0.820486116520603,-5.215228411705106,134.01018449544557,1.2529025728901717,tremor
17,4117932,0.107,-0.4584722680618977,-0.2850704877912643,0.8191695814882451,-5.653208847055761,138.6595097688952,1.5520813490705938,tremor
18,4117937,0.112,-0.4654945105704164,-0.2854019444364051,0.8176213293152156,-6.10446733633509,142.77650423287767,1.8632853130143623,tremor
19,4117942,0.117,-0.4726138227519137,-0.2857686803293437,0.8158365239539758,-6.567089611775696,146.30986607070525,2.186438359661619,tremor
20,4117946,0.121,-0.4797944963620793,-0.28616991260661684,0.8138122243489815,-7.039120753989118,149.21118101261493,2.5215297959291805,tremor
21,4117951,0.126,-0.4869998114818954,-0.28660454324742235,0.8115475327428177,-7.518589656800355,151.435549126033,2.8686270660541004,tremor
22,4117956,0.131,-0.4941923065081287,-0.28707115073421136,0.8090437370950389,-8.003533947119832,152.94220555562316,3.227887540584349,tremor
23,4117987,0.162,-0.5013340833617538,-0.28756798395967664,0.8063044426511068,-8.492024862941316,153.6951259313463,3.5995689663225883,tremor
24,4117992,0.167,-0.5083871385720411,-0.2880929588523846,0.8033356884938866,-8.98219154767863,153.66360639931187,3.9840381624901173,tremor
25,4117997,0.172,-0.5153137117762449,-0.288643658097816,0.8001460454349613,-9.472244193757813,152.82280762438603,4.381777555907408,tremor
26,4118002,0.177,-0.5220766435318881,-0.28921733426258284,0.7967466919792755,-9.960495478895563,151.15425179502157,4.793389181859195,tremor
27,4118007,0.182,-0.5286397343943038,-0.28981091657258845,0.7931514654005264,-10.44537979443496,148.64626171616044,5.219595838992625,tremor
28,4118012,0.187,-0.5349680971412052,-0.2904210215445564,0.7893768852394211,-10.925469859236765,145.2943314944394,5.6612391690542285,tremor
29,4118016,0.191,-0.541028493957453,-0.2910439676246312,0.7854421468036346,-11.399490422984696,141.10141903573873,6.119274522955998,tremor
30,4118021,0.196,-0.5467896504192341,-0.2916757939504896,0.7813690825160906,-11.866328863840756,136.07815154526756,6.594762560689225,tremor
31,4118026,0.201,-0.5522225383056888,-0.29231228332706427,0.7771820892296704,-12.325042559841634,130.24293644545523,7.088857604156338,tremor
32,4118031,0.206,-0.5573006196711733,-0.2929489894905189,0.7729080199006648,-12.774862960223642,123.62197162088661,7.602792815385068,tremor
33,4118036,0.211,-0.562000045277024,-0.2935812687269273,0.7685760382887565,-13.215196316037343,116.24915065734768,8.137862312824877,tremor
34,4118041,0.216,-0.5662998014446357,-0.29420431590396884,0.7642174356311747,-13.645621065972637,108.16586073074339,8.695400377256556,tremor
35,4118046,0.221,-0.57018180068069,-0.2948132049558167,0.7598654085366316,-14.06588192208452,99.42067297130664,9.276757948004114,tremor
36,4118050,0.225,-0.5736309130556377,-0.29540293382241184,0.7555547976885704,-14.475880762241905,90.0689274242596,9.883276674650695,tremor
37,4118055,0.23,-0.5766349372773631,-0.29596847377573365,0.7513217873781388,-14.875664511928546,80.17221709239944,10.516260865322499,tremor
38,4118060,0.235,-0.5791845126462636,-0.29650482296360525,0.7472035664540414,-15.265410289403395,69.79777791600823,11.17694774898421,tremor
39,4118065,0.24,-0.5812729755230291,-0.29700706386809195,0.7432379520280482,-15.645408195084842,59.017793847610754,11.866476532986468,tremor
40,4118070,0.245,-0.5828961664771025,-0.29747042421810954,0.7394629782518994,-16.016042241374926,47.90862832485591,12.585856777432163,tremor
41,4118075,0.25,-0.5840521967857267,-0.2978903407259233,0.7359164537065556,-16.377770027254627,36.549995338025155,13.335936618915552,tremor
42,4118080,0.255,-0.5847411852812447,-0.29826252484875604,0.7326354924153681,-16.731101842647483,25.024084848019832,14.117371357754953,tremor
43,4118105,0.28,-0.5849649785429141,-0.29858302962416383,0.729656025169364,-17.076579924464237,13.414658478106311,14.930592880171513,tremor
44,4118109,0.284,-0.5847268689131894,-0.29884831650335014,0.7270122996331307,-17.414758570965475,1.806132103970681,15.77578033104318,tremor
45,4118114,0.289,-0.5840313255529032,-0.2990553210175516,0.7247363793781846,-17.74618574983188,-9.717337940969266,16.652832402876626,tremor
46,4118119,0.294,-0.5828837534834899,-0.2992015160600712,0.7228576532648912,-18.07138670896201,-21.07274900584568,17.56134158524162,tremor
47,4118124,0.299,-0.5812902941424081,-0.2992849715447096,0.7214023671763342,-18.39084993033338,-32.179112031610536,18.500570738367312,tremor
48,4118129,0.304,-0.5792576784526569,-0.29930440919904233,0.7203931898676512,-18.705015582006652,-42.958264687126245,19.469432406647815,tremor
49,4118133,0.308,-0.5767931400262015,-0.2992592512551663,0.71984882369369,-19.014266448117528,-53.335627486753836,20.466471351275864,tremor
50,4118138,0.313,-0.573904392214149,-0.2991496618007618,0.7197836693900294,-19.318921168647027,-63.24089496794916,21.489850836951685,tremor
51,4118144,0.319,-0.5705996686026262,-0.29897657954492246,0.7202075521080074,-19.61922950955024,-72.60865622664353,22.537343244496697,tremor
52,4118148,0.323,-0.5668878225130006,-0.298741740738791,0.7211255137365106,-19.9153693163569,-81.37894113951714,23.606325593020753,tremor
53,4118153,0.328,-0.5627784773463658,-0.2984476909812433,0.7225376743613753,-20.207444782781504,-89.49769038110583,24.69378053524433,tremor
54,4118158,0.333,-0.5582822164406294,-0.2980977846536531,0.7244391636765019,-20.495485683831376,-96.91714882698429,25.79630332775284,tremor
55,4118163,0.338,-0.5534107986849157,-0.2976961707906946,0.726820121392718,-20.779447268465766,-103.59618310242688,26.91011516516584,tremor
56,4118167,0.342,-0.5481773846137813,-0.2972477643331076,0.7296657642637947,-21.05921057000648,-109.50052488871712,28.031083102805333,tremor
57,4118172,0.347,-0.5425967571621793,-0.2967582019446776,0.7329565162838578,-21.334582967980186,-114.60294215309702,29.154746589455602,tremor
58,4118177,0.352,-0.5366855217013974,-0.29623378192009686,0.7366681978855165,-21.60529891919837,-118.88334075511612,30.27635041558173,tremor
59,4118182,0.357,-0.5304622713337053,-0.29568138816114187,0.7407722695352977,-21.871020863450806,-122.32879894654651,31.390883683372618,tremor
60,4118187,0.362,-0.5239477055902908,-0.29510839874128525,0.7452361249187811,-22.131340393750968,-124.93353717786341,32.49312424732691,tremor
61,4118191,0.366,-0.5171646935075782,-0.2945225801867639,0.7500234288615185,-22.38577985636231,-126.6988254109443,33.57768796535,tremor
62,4118196,0.371,-0.5101382753768305,-0.2939319692380002,0.7550944951729262,-22.633794606712375,-127.63282987560468,34.63908203043721,tremor
63,4118201,0.376,-0.5028956010789354,-0.2933447444743861,0.7604066996642465,-22.874776190756062,-127.75040095185683,35.67176160376067,tremor
64,4118228,0.403,-0.4954658066286667,-0.29276909073868446,0.7659149236236282,-23.108056746811723,-127.0728036573002,36.67018892619325,tremor
65,4118233,0.408,-0.4878798341356429,-0.29221305973205486,0.7715720229902364,-23.33291492890124,-125.62739212444386,37.62889404144372,tremor
66,4118238,0.413,-0.4801702035582367,-0.29168443041244346,0.7773293183340383,-23.548583631286526,-123.44722955502792,38.54253622604929,tremor
67,4118243,0.418,-0.4723707470452951,-0.29119057287378913,0.7831371005251861,-23.754259732660273,-120.57065554724423,39.405965202941395,tremor
68,4118248,0.423,-0.4645163180561978,-0.2907383192010268,0.7889451467007559,-23.9491159724832,-117.04080346326698,40.21428122648362,tremor
69,4118253,0.428,-0.4566424877529522,-0.29033384442206966,0.7947032408545194,-24.13231493276629,-112.90507159036817,40.962893166702514,tremor
70,4118258,0.433,-0.4487852405093971,-0.289982560178845,0.8003616931300198,-24.303024947146948,-108.21455313796753,41.64757377862256,tremor
71,4118263,0.438,-0.440980679014792,-0.28968902318232115,0.8058718517166444,-24.46043761361238,-103.02343149954346,42.264511407174815,tremor
72,4118273,0.448,-0.43326474757985517,-0.28945685995251536,0.811186601147803,-24.603786459539805,-97.38834860399008,42.810357440190465,tremor
73,4118278,0.453,-0.42567298005696286,-0.2892887088075654,0.8162608407889872,-24.73236620707672,-91.36775548806108,43.28226887829932,tremor
74,4118282,0.457,-0.4182402764097947,-0.28918617957785386,0.8210519373933531,-24.84555202286666,-85.02125531936001,43.67794544555924,tremor
75,4118287,0.462,-0.4110007095502687,-0.2891498310957737,0.8255201458126344,-24.942818117291427,-78.40894986203656,43.99566072882252,tremor
76,4118292,0.467,-0.4039873617381775,-0.2891791661559988,0.8296289923024591,-25.023755087800822,-71.59080071240969,44.23428691677921,tremor
77,4118297,0.472,-0.3972321877385699,-0.28927264335496516,0.8333456153647293,-25.08808547283672,-64.62601649929131,44.39331281246801,tremor
78,4118302,0.477,-0.39076590016784146,-0.2894277049962672,0.8366410597203399,-25.135677083074672,-57.57247663103103,44.47285490689084,tremor
79,4118307,0.482,-0.38461787113617013,-0.289640820083338,0.8394905197815551,-25.16655378526093,-50.48620106495654,44.47366141258248,tremor
80,4118312,0.487,-0.3788160435107981,-0.28990754130403595,0.841873529858141,-25.180903512199425,-43.42087397843945,44.39710925480933,tremor
81,4118317,0.492,-0.3733868449778327,-0.2902225748338654,0.8437740992335565,-25.179083353210203,-36.42742718764917,44.245194104289595,tremor
82,4118322,0.497,-0.36835509865505667,-0.2905798617324391,0.8451807911255335,-25.16162164984607,-29.553686794550377,44.020513616142225,tremor
83,4118349,0.524,-0.36374392535471534,-0.29097266966470625,0.8460867453401141,-25.129217094082097,-22.844083984654503,43.72624412131247,tremor
84,4118354,0.529,-0.3595746346829089,-0.29139369362559203,0.8464896451036571,-25.082734906663447,-16.339428340598595,43.3661110975598,tremor
85,4118359,0.534,-0.3558666048250889,-0.2918351642663051,0.8463916291223567,-25.02320025968503,-10.076739762921047,42.94435382061123,tremor
86,4118364,0.539,-0.35263715378410404,-0.2922889623015824,0.8457991504334103,-24.951789193681186,-4.089133417202191,42.46568465901345,tremor
87,4118369,0.544,-0.34990140760084,-0.2927467373216969,0.8447227841626391,-24.869817358380136,1.5942487677893393,41.93524353349527,tremor
88,4118374,0.549,-0.3476721733298639,-0.2932000291590153,0.8431769869604063,-24.778726970500532,6.948266713510961,41.3585481220398,tremor
89,4118378,0.553,-0.34595982601308456,-0.29364038979453155,0.8411798116771705,-24.680072425138814,11.951777265072598,40.741440459511765,tremor
90,4118383,0.558,-0.3447722194528337,-0.2940595036641008,0.8387525817428013,-24.57550501510788,16.587601426394663,40.090030650895216,tremor
91,4118388,0.563,-0.34411463017241783,-0.29444930415836273,0.8359195306768197,-24.46675720277876,20.842468566622717,39.410638478351075,tremor
92,4118393,0.568,-0.3439897425878927,-0.2948020841142633,0.8327074131047327,-24.355626849904468,24.70694132659262,38.70973372108661,tremor
93,4118397,0.572,-0.34439768121135833,-0.29511059816818525,0.8291450945027335,-24.243961740085634,28.175323751051483,37.993876014473415,tremor
94,4118402,0.577,-0.3453360928561165,-0.2953681549720238,0.825263127554856,-24.13364462428176,31.245553928156475,37.26965505037312,tremor
95,4118407,0.582,-0.3468002785611576,-0.29556869745208475,0.821093323411425,-24.026578887320333,33.919081222460306,36.54363187129919,tremor
96,4118412,0.587,-0.34878337156116757,-0.2957068695055957,0.816668326234747,-23.924674790487934,36.20072713480164,35.82228194691418,tremor
97,4118417,0.592,-0.35127655436285793,-0.2957780677749329,0.8120211991831521,-23.829836118741003,38.09852800889801,35.11194064992398,tremor
98,4118421,0.596,-0.35426930509741406,-0.29577847741700203,0.8071850294204154,-23.74394697209482,39.623557323088185,34.418751669913796,tremor
99,4118426,0.601,-0.3577496610224268,-0.29570509110455545,0.8021925588701849,-23.66885839215514,40.78972522589017,33.74861880952863,tremor
100,4118431,0.606,-0.3617044855275077,-0.29555571087422033,0.7970758463065606,-23.606374495213828,41.61355332363537,33.10716148566403,tremor
101,4118436,0.611,-0.366119724396108,-0.29532893289198225,0.791865965033625,-23.55823778572974,42.113923496406,32.49967410459177,tremor
102,4118440,0.615,-0.37098063748975707,-0.29502411575746446,0.7865927389140583,-23.526113356168473,42.311800666841876,31.93108930542616,tremor
103,4118445,0.62,-0.37627199350926077,-0.2946413336213993,0.7812845179190947,-23.511571755459425,42.229930912976776,31.405944895531338,tremor
104,4118472,0.647,-0.38197821806394316,-0.29418131613740645,0.7759679927553718,-23.516070434646092,41.89251800507957,30.928354161394743,tremor
105,4118477,0.652,-0.38808348886921046,-0.2936453780701665,0.7706680465654571,-23.540933844015,41.32488319541947,30.50197914893586,tremor
106,4118482,0.657,-0.3945717762501821,-0.29303534214787397,0.7654076403257061,-23.58733243317997,40.553114634798725,30.130006478458377,tremor
107,4118487,0.662,-0.4014268318005164,-0.29235345933850887,0.7602077275397351,-23.65626095680478,39.60371382377867,29.815125294931768,tremor
108,4118492,0.667,-0.4086321324542962,-0.29160233100665184,0.7550871932819443,-23.74851658568582,38.50324686320809,29.559507052111268,tremor
109,4118496,0.671,-0.4161707908573364,-0.2907848372957931,0.750062812616264,-23.86467736283493,37.27800803192779,29.364786981092518,tremor
110,4118501,0.676,-0.4240254454407899,-0.28990407559430215,0.7451492238287533,-24.005081545221422,35.95370260882106,29.232047285687184,tremor
111,4118506,0.681,-0.4321781448601748,-0.28896331215195925,0.7403589126502478,-24.169808356985925,34.55515504543765,29.161802318941003,tremor
112,4118511,0.686,-0.4406102414527769,-0.2879659489060333,0.7357022045939261,-24.358660666856427,33.10604766589385,29.15398620560427,tremor
113,4118516,0.691,-0.44930230716081104,-0.28691550644022584,0.7311872636011022,-24.571150102483422,31.62869406316578,29.207943565012187,tremor
114,4118521,0.696,-0.4582340831166427,-0.2858156228257269,0.7268200963032221,-24.80648513351931,30.14385030818556,29.322424143931332,tremor
115,4118525,0.7,-0.46738447100957903,-0.2846700669699981,0.7226045623073593,-25.063562692318534,28.670566016966166,29.495582280959695,tremor
116,4118531,0.706,-0.4767315707325282,-0.28348276410632023,0.7185423919430517,-25.34096394341563,27.226076250465663,29.72498218487835,tremor
117,4118535,0.71,-0.4862527649629327,-0.2822578302586466,0.7146332138219238,-25.636954836140976,25.825734167018332,30.00761000586251,tremor
118,4118540,0.715,-0.4959248475936254,-0.2809996119541953,0.710874595310538,-25.949492051741878,24.482983320585536,30.339893592548744,tremor
119,4118545,0.72,-0.5057241895939606,-0.2797127271541042,0.7072620995488625,-26.27623486845977,23.209367509015653,30.717730644866823,tremor
120,4118550,0.725,-0.515626933194401,-0.2784021033370332,0.7037893629009413,-26.614563308478058,22.014575129528918,31.13652569262251,tremor
121,4118555,0.73,-0.5256092034274679,-0.27707300889218855,0.7004481966328364,-26.96160270251534,20.906514096344104,31.591235971748535,tremor
122,4118560,0.735,-0.5356473251322702,-0.2757310744326149,0.6972287161121314,-27.314254524443463,19.891412525655973,32.07642586289909,tremor
123,4118570,0.745,-0.54571803357361,-0.2743823012909613,0.6941194998784206,-27.669233036395273,18.973939616825977,32.58632913212355,tremor
124,4118595,0.77,-0.5557986677952347,-0.2730330552638191,0.6911077795642472,-28.02310698196328,18.15734049646496,33.11491780563082,tremor
125,4118600,0.775,-0.5658673375709389,-0.27169004457400325,0.6881796599418888,-28.372345310131415,17.443578325070188,33.655976161282034,tremor
126,4118604,0.779,-0.5759030570567633,-0.27036028195810813,0.6853203665082538,-28.71336573411025,16.833476835988137,34.203178068323076,tremor
127,4118609,0.784,-0.5858858406092157,-0.26905103168464534,0.6825145162352054,-29.042584837442448,16.32685683826744,34.75016577626663,tremor
128,4118614,0.789,-0.5957967583848786,-0.2677697430953209,0.6797464056228705,-29.35646842692718,15.922661108531228,35.290628240209365,tremor
129,4118619,0.794,-0.6056179511167421,-0.26652397288925816,0.6770003091077226,-29.651580880933498,15.61906338389065,35.81837715261894,tremor
130,4118624,0.799,-0.6153326049017993,-0.2653212988140675,0.6742607801893571,-29.9246323341698,15.41355862382351,36.32741900583803,tremor
131,4118629,0.804,-0.6249248880616516,-0.2641692276828151,0.6715129472942913,-30.172522660207513,15.303033153761023,36.812021710749974,tremor
132,4118633,0.808,-0.6343798532911242,-0.2630751007046092,0.6687427963440762,-30.39238134924694,15.283814634603033,37.26677452228571,tremor
133,4118638,0.813,-0.6436833094912807,-0.2620459990072071,0.6659374322116903,-30.58160252290823,15.351702961398228,37.68664025336152,tremor
134,4118643,0.818,-0.6528216689386807,-0.2610886519594053,0.6630853117179774,-30.737874474683014,15.501984139631794,38.066998984204425,tremor
135,4118648,0.823,-0.6617817767548901,-0.2602093504955876,0.6601764415218736,-30.859203268959366,15.729429895771954,38.4036826895241,tremor
136,4118653,0.828,-0.6705507309372767,-0.25941386713973,0.657202535172741,-30.94393006864953,16.028286254592025,38.69300041242282,tremor
137,4118658,0.833,-0.6791157023855118,-0.25870738386129283,0.6541571246936337,-30.990741990301114,16.392254595228774,38.93175381514156,tremor
138,4118663,0.838,-0.6874637652788748,-0.2580944283122993,0.6510356233208022,-30.998676410833355,16.814468835136093,39.117243137730114,tremor
139,4118667,0.842,-0.6955817486906569,-0.25757881843478575,0.6478353374074978,-30.967118779641083,17.287472431627457,39.24726380150533,tremor
140,4118672,0.847,-0.703456120336067,-0.25716361493070045,0.644555426983979,-30.89579412975111,17.80319884844501,39.32009410860558,tremor
141,4118677,0.852,-0.7110729127244259,-0.2568510806901683,0.6411968160322734,-30.784752634021743,18.35295898974663,39.33447471254468,tremor
142,4118682,0.857,-0.7184177006376715,-0.2566426460124029,0.6377620551710872,-30.63434971642536,18.927438820668407,39.28958076185159,tremor
143,4118687,0.862,-0.7254756367383295,-0.2565388783504056,0.6342551411410431,-30.44522140039872,19.51670994526023,39.18498783706639,tremor
144,4118692,0.867,-0.7322315492339675,-0.2565394553748098,0.6306812992140477,-30.218255743390372,20.110255295531093,39.02063299192806,tremor
145,4118718,0.893,-0.7386701019854198,-0.2566431403755404,0.6270467363853685,-29.95456134149919,20.697011321546228,38.79677234916422,tremor
146,4118723,0.898,-0.7447760134511505,-0.2568477593760608,0.6233583748563429,-29.655433953561676,21.265427204540284,38.51393676325923,tremor
147,4118728,0.903,-0.7505343267861067,-0.25715017977645194,0.6196235766981565,-29.32232226757127,21.80354070012163,38.17288702302374,tremor
148,4118732,0.907,-0.7559307197912589,-0.2575462908044098,0.615849871432941,-28.956793729240733,22.299069320550306,37.77456991893159,tremor
149,4118737,0.912,-0.7609518407506043,-0.25803098647952016,0.612044698339002,-28.56050121962219,22.739514741247024,37.3200762685976,tremor
150,4118742,0.917,-0.7655856547588604,-0.25859815216061466,0.6082151745212452,-28.135151248215465,23.112277610697458,36.81060172885797,tremor
151,4118752,0.927,-0.7698217848943678,-0.2592406560600946,0.6043678983231742,-27.682474228495828,23.40477939153699,36.24741097369579,tremor
152,4118757,0.932,-0.7736518333097646,-0.25995034740081135,0.600508795726666,-27.204197301989648,23.604587508999064,35.63180560773708,tremor
153,4118762,0.937,-0.7770696687387997,-0.2607180631804324,0.5966430152204923,-26.70202004825107,23.699539988088432,34.96509601394736,tremor
154,4118766,0.941,-0.7800716688085615,-0.26153364579157384,0.592774874405275,-26.177593256281064,23.677865968628744,34.24857719023475,tremor
155,4118776,0.951,-0.782656907694905,-0.26238597399282343,0.5889078594727959,-25.63250075980449,23.528298996510827,33.48350850495948,tremor
156,4118781,0.956,-0.7848272819100056,-0.263263009886791,0.5850446767231627,-25.068244187382838,23.24018073988864,32.67109719448172,tremor
157,4118786,0.961,-0.7865875692752984,-0.26415186457976275,0.5811873534881261,-24.486230375533708,22.803553673930804,31.81248533869424,tremor
158,4118791,0.966,-0.7879454183839117,-0.2650388850189126,0.5773373842139563,-23.887761151770306,22.209242211459742,30.908739985095977,tremor
159,4118796,0.971,-0.7889112681101231,-0.26590976408788936,0.5734959160229061,-23.274025211900593,21.448922632640873,29.96084605081949,tremor
160,4118801,0.976,-0.7894981990092322,-0.26674967537909583,0.5696639668270741,-22.64609187661305,20.51518291242651,28.969701618983645,tremor
161,4118806,0.981,-0.7897217207871783,-0.2675434331713836,0.5658426680287726,-22.004906596155156,19.401574122169276,27.936115265735964,tremor
162,4118811,0.986,-0.7895995023929677,-0.2682756770672915,0.5620335230241711,-21.35128815971752,18.10265548490685,26.860805110921604,tremor
163,4118815,0.99,-0.7891510536477687,-0.2689310795378059,0.558238672142649,-20.68592764106267,16.61403540536317,25.744399376841127,tremor
164,4118841,1.016,-0.7883973695789983,-0.2694945733452428,0.5544611543090272,-20.00938916148624,14.932410900126193,24.587438357210225,tremor
165,4118846,1.021,-0.7873605506200657,-0.26995159453909773,0.5507051556260196,-19.322112575239554,13.05560784041069,23.390377828674353,tremor
166,4118851,1.026,-0.7860634133087431,-0.27028833554603826,0.5469762352896187,-18.624418199840704,10.982624278201108,22.15359406699467,tremor
167,4118856,1.031,-0.7845291067262931,-0.27049200193232326,0.5432815198580626,-17.916513751299174,8.713678814219291,20.877390749480295,tremor
168,4118861,1.036,-0.782780749383643,-0.2705510658230278,0.5396298579765502,-17.198503709483713,6.250265456847002,19.56200812587112,tremor
169,4118866,1.041,-0.7808410995334262,-0.27045550877306457,0.536031929224187,-16.470401403036366,3.595215744422799,18.20763491074587,tremor
170,4118871,1.046,-0.7787322691778072,-0.2701970470801543,0.5325003027127295,-15.732144119541184,0.7527681225743834,16.814423377482058,tremor
171,4118876,1.051,-0.7764754886915778,-0.2697693330444718,0.5290494432851954,-14.983611482487925,-2.271356264700123,15.382508103479037,tremor
172,4118881,1.056,-0.7740909253333138,-0.26916812643724475,0.5256956654758116,-14.224647189743097,-5.4698730647051965,13.912028723097517,tremor
173,4118886,1.061,-0.7715975552759418,-0.2683914313694135,0.5224570376435566,-13.455084002547885,-8.833852023753394,12.403156895481423,tremor
174,4118895,1.07,-0.7690130854063235,-0.2674395947891567,0.5193532407308329,-12.67477164629044,-12.352635443676773,10.85612750695743,tremor
175,4118900,1.075,-0.7663539182392062,-0.26631536393195143,0.5164053877871225,-11.883607070305622,-16.013761817037814,9.27127392225328,tremor
176,4118905,1.08,-0.763635151053376,-0.2650239011585595,0.5136358116074825,-11.081566337281712,-19.80289922188495,7.649066888256132,tremor
177,4118910,1.085,-0.7608705989334138,-0.2635727557163896,0.5110678284693517,-10.26873728005161,-23.703793395660366,5.990156481364359,tremor
178,4118915,1.09,-0.7580728308561165,-0.26197179303045526,0.5087254859697128,-9.445351968440079,-27.698235475112117,4.2954162741182556,tremor
179,4118920,1.095,-0.7552532082644425,-0.2602330831609085,0.5066333024053629,-8.611817962829873,-31.76605415426134,2.565988684146259,tremor
180,4118925,1.1,-0.7524219166175303,-0.2583707510435073,0.5048160040993521,-7.768747292522665,-35.88513648593158,0.8033302733887062,tremor
181,4118930,1.105,-0.7495879820591489,-0.25640079203791866,0.503298265684498,-6.91698209304707,-40.03148077926222,-0.9907443925027638,tremor
182,4118934,1.109,-0.7467592674791258,-0.2543408571179819,0.5021044567489202,-6.0576158778838955,-44.17928409067804,-2.8140218193883277,tremor
183,4118939,1.114,-0.7439424447357804,-0.25221001271800053,0.5012583965690975,-5.192009513213183,-48.30106573758702,-4.663853131549359,tremor
184,4118966,1.141,-0.7411429425517763,-0.2500284807759639,0.5007831170395011,-4.321801107848184,-52.36782714784937,-6.537123604501151,tremor
185,4118971,1.146,-0.7383648724614715,-0.2478173648684715,0.5007006324902351,-3.448909215048488,-56.34924726363693,-8.43022960910322,tremor
186,4118975,1.15,-0.7356109379771685,-0.24559836848869634,0.5010317140123681,-2.57552895326184,-60.21391173390278,-10.339064234515934,tremor
187,4118980,1.155,-0.732882334567809,-0.24339351145094265,0.501795665331172,-1.7041208729010302,-63.929573344793546,-12.259012629459061,tremor
188,4118985,1.16,-0.7301786498030979,-0.2412248501031002,0.5030100972669015,-0.8373926146048135,-67.46344058683584,-14.184957814600976,tremor
189,4118990,1.165,-0.7274977739136951,-0.23911420651707446,0.5046906983714486,0.021726383499654126,-70.78249089442923,-16.111297400811285,tremor
190,4118995,1.17,-0.7248358310226898,-0.23708291116310745,0.5068510002972133,0.8701166683630228,-73.85380483388667,-18.031971327479084,tremor
191,4119000,1.175,-0.7221871405005449,-0.2351515628204467,0.5095021376816,1.7045063946091366,-76.64491730102777,-19.940500430295724,tremor
192,4119004,1.179,-0.7195442164196572,-0.2333398086878317,0.5126526036792813,2.5215139768492305,-79.1241815903054,-21.83003536681521,tremor
193,4119009,1.184,-0.7168978110885345,-0.23166614687260995,0.5163080036410848,3.3176948430805764,-81.26114199886514,-23.69341517513035,tremor
194,4119014,1.189,-0.714237006295458,-0.23014775268517576,0.5204708107444213,4.089591290956866,-83.02691041840502,-25.523234519656473,tremor
195,4119019,1.194,-0.7115493533639549,-0.22880032946538723,0.5251401285615025,4.833784423263085,-84.39454213962398,-27.31191849048762,tremor
196,4119024,1.199,-0.7088210605996847,-0.2276379840334612,0.5303114665505125,5.5469471455898445,-85.33940585237929,-29.051803669973694,tremor
197,4119029,1.204,-0.7060372243727006,-0.22667312630000522,0.5359765352167337,6.225897234904949,-85.83954258250162,-30.73522406289686,tremor
198,4119034,1.209,-0.7031820981011556,-0.22591639209634967,0.5421230681679522,6.867649522196758,-85.87600808434534,-32.35460040647545,tremor
199,4119039,1.214,-0.7002393919188279,-0.22537658790279588,0.5487346784483286,7.469466269556912,-85.43319303394277,-33.90253133462192,tremor
200,4119043,1.218,-0.6971925948977762,-0.22506065586230567,0.5557907563617394,8.028904860708245,-84.4991152743185,-35.37188486638574,tremor
201,4119048,1.223,-0.6940253113725029,-0.22497365727248514,0.5632664154885515,8.543861967759764,-83.06567838842224,-36.75588871743034,tremor
202,4119053,1.228,-0.6907216031317862,-0.22511877264966937,0.5711324927698909,9.012613413376473,-81.1288910482481,-38.048217990208414,tremor
203,4119058,1.233,-0.6872663299259283,-0.22549731645288262,0.5793556074027991,9.433849024517375,-78.68904193095035,-39.243078877245296,tremor
204,4119063,1.238,-0.6836454817649023,-0.22610876463584334,0.5878982818918569,9.806701875952749,-75.75082551045901,-40.335287105788844,tremor
205,4119091,1.266,-0.6798464977159575,-0.22695079335026416,0.5967191269852002,10.130771448692755,-72.32341472341669,-41.320339952814784,tremor
206,4119096,1.271,-0.6758585671853435,-0.2280193273344444,0.6057730904554816,10.406140375979277,-68.42047736570692,-42.194480759595486,tremor
207,4119101,1.276,-0.6716729108020234,-0.22930859675897552,0.6150117678785344,10.633384609380904,-64.06013409447094,-42.9547549726536,tremor
208,4119105,1.28,-0.6672830388214359,-0.23081120153136417,0.6243837718622939,10.813576997139895,-59.26485707307031,-43.59905683764758,tremor
209,4119110,1.285,-0.6626849853073051,-0.23251818225470308,0.6338351547290978,10.948284410881866,-54.061309557272345,-44.12616598126752,tremor
210,4119115,1.29,-0.6578775162317262,-0.2344190971826713,0.643309878536719,11.039558670932614,-48.480128007882584,-44.53577323608099,tremor
211,4119120,1.295,-0.6528623091814933,-0.23650210462548119,0.6527503255421877,11.089921595239613,-42.555649554889435,-44.8284951925609,tremor
212,4119125,1.3,-0.6476441017445067,-0.23875405036195796,0.662097841729912,11.10234452891587,-36.325588777194184,-45.00587709912813,tremor
213,4119134,1.309,-0.6422308050383544,-0.24116055972633516,0.6712933057949824,11.08022270353003,-29.830668765046372,-45.070383874753546,tremor
214,4119139,1.314,-0.6366335783733807,-0.24370613418396458,0.6802777159473852,11.027344735625157,-23.114212270557037,-45.025379149939944,tremor
215,4119144,1.319,-0.6308668608301298,-0.24637425239751495,0.6889927870345144,10.947857515449275,-16.221699391589706,-44.875092410495654,tremor
216,4119154,1.329,-0.6249483556638393,-0.2491474760111713,0.69738155071655,10.846226676095322,-9.200298637834152,-44.624574483808495,tremor
217,4119159,1.334,-0.6188989639783858,-0.25200756062722257,0.7053889517211961,10.727192787918366,-2.098378367125582,-44.27964177920521,tremor
218,4119164,1.339,-0.6127426650492976,-0.2549355726841043,0.7129624335046681,10.595723409467423,5.034994544716498,-43.846809872782515,tremor
219,4119168,1.343,-0.6065063419930476,-0.2579120131210577,0.7200525069173421,10.456961156066402,12.150562288205673,-43.333217212825915,tremor
220,4119173,1.348,-0.6002195531193573,-0.26091694878203275,0.7266132956920482,10.316168023130265,19.199383948239237,-42.7465399131568,tremor
221,4119178,1.353,-0.5939142511790214,-0.2639301524309845,0.7326030527359318,10.178666313930144,26.13333812148454,-42.09489879461263,tremor
222,4119183,1.358,-0.587624454725874,-0.2669312520032621,0.7379846413264968,10.049776654777459,32.905615387517194,-41.38676002282979,tremor
223,4119188,1.363,-0.5813858778330057,-0.26989988930443903,0.7427259754156356,9.934753720360549,39.471196111065275,-40.63083086513905,tremor
224,4119215,1.39,-0.5752355263216391,-0.272815887805728,0.7468004133671517,9.838720429772636,45.78730931176907,-39.835952241231055,tremor
225,4119220,1.395,-0.5692112703351125,-0.27565942850913194,0.7501870996357106,9.766601504759828,51.8138684094013,-39.01098985990312,tremor
226,4119225,1.4,-0.5633514043182926,-0.27841123212826735,0.7528712491897382,9.723057400844178,57.51387952540126,-38.16472580292622,tremor
227,4119234,1.409,-0.5576942059881829,-0.2810527451422421,0.754844369940668,9.712419721954728,62.85381773098223,-37.30575242252362,tremor
228,4119239,1.414,-0.5522775055025536,-0.2835663267206836,0.756104419095282,9.738629300950354,67.80396627237451,-36.44237035658232,tremor
229,4119244,1.419,-0.5471382747332285,-0.2859354331441233,0.7566558901777085,9.805178162004964,72.33871350383706,-35.582492345499844,tremor
230,4119249,1.424,-0.5423122445130378,-0.28814479616744065,0.7565098284133699,9.915056567194702,76.43680213224434,-34.73355437465367,tremor
231,4119254,1.429,-0.5378335552388698,-0.2901805917794298,0.7556837731627234,10.070706285312449,80.08152548594919,-33.90243548402149,tremor
232,4119258,1.433,-0.5337344435750352,-0.2920305959731136,0.7542016270902046,10.273981111748185,83.26086587867596,-33.09538739382878,tremor
233,4119263,1.438,-0.5300449654716382,-0.2936843244307483,0.7520934527234161,10.526115526458907,85.9675707364959,-32.31797489983603,tremor
234,4119268,1.443,-0.5267927534988464,-0.29513315341611,0.7493951979765558,10.827702215458109,88.19916298050316,-31.575027798134418,tremor
235,4119273,1.448,-0.5240028047507306,-0.296370419628001,0.7461483530601293,11.178679010622403,89.95788319758525,-30.870604910031354,tremor
236,4119278,1.453,-0.5216972943921998,-0.29739149727851655,0.7423995419596089,11.57832563095771,91.25056236706773,-30.20797059522816,tremor
237,4119283,1.458,-0.5198954093661425,-0.2981938511945476,0.7382000523284209,12.025270439564332,92.08842531128835,-29.58958396606911,tremor
238,4119288,1.463,-0.5186131968610381,-0.29877706527910874,0.7336053082037297,12.517507262722258,92.48682656354934,-29.017100843782405,tremor
239,4119293,1.468,-0.5178634228384708,-0.2991428461886328,0.7286742904274787,13.052422145080483,92.46492195330086,-28.491388324873686,tremor
240,4119298,1.473,-0.5176554371738261,-0.2992950025625293,0.7234689100663021,13.626829731398029,92.04528085220187,-28.012551649545603,tremor
241,4119302,1.477,-0.517995043674738,-0.29923940056383014,0.7180533405154709,14.23701876605827,91.25344566474848,-27.579972883184574,tremor
242,4119307,1.482,-0.5188843752809439,-0.2989838968422106,0.7124933144012243,14.878805985181643,90.11744674235818,-27.19236073464405,tremor
243,4119312,1.487,-0.5203217769621341,-0.2985382503092173,0.7068553919272335,15.547597444912688,88.66728240492496,-26.847810637605647,tremor
244,4119339,1.514,-0.522301701047593,-0.29791401432473036,0.7012062080058059,16.238456091008025,86.93437511431833,-26.543874011414477,tremor
245,4119344,1.519,-0.5248146217491532,-0.29712441104291243,0.6956117064112551,16.94617414674611,84.95101597396037,-26.277635400386952,tremor
246,4119349,1.524,-0.5278469772309039,-0.2961841897641403,0.6901363702746613,17.66534871076526,82.74981047376762,-26.045795982730827,tremor
247,4119353,1.528,-0.5313811484494804,-0.29510947119158365,0.6848424594074739,18.39045885305264,80.36313856763938,-25.84476176752072,tremor
248,4119358,1.533,-0.5353954839207131,-0.29391757949858205,0.6797892660305258,19.115942498235196,77.82264166366363,-25.670734680237864,tremor
249,4119363,1.538,-0.5398643785351326,-0.29262686407723904,0.675032401316436,19.836271480209785,75.1587480189575,-25.519804676261046,tremor
250,4119368,1.543,-0.5447584127097125,-0.29125651276371367,0.6706231255826908,20.546023310400912,72.40024656889044,-25.38804100743025,tremor
251,4119373,1.548,-0.5500445557743736,-0.28982635822795144,0.6666077349032007,21.23994839492879,69.57391756103095,-25.271580790983123,tremor
252,4119378,1.553,-0.5556864347932573,-0.2883566790832429,0.6630270162866819,21.913031644962704,66.70422660507127,-25.16671309109588,tremor
253,4119383,1.558,-0.5616446672268718,-0.28686799712433303,0.6599157823997205,22.56054763682121,63.81308694369761,-25.069956822618245,tremor
254,4119387,1.562,-0.5678772531346985,-0.2853808719547754,0.6573024951447752,23.178108683923956,60.91969293475079,-24.978130925690966,tremor
255,4119392,1.567,-0.5743400201463743,-0.28391569413035,0.6552089853387016,23.76170537396098,58.04042594560424,-24.888415438526174,tremor
256,4119402,1.577,-0.5809871123052925,-0.2824924778431408,0.6536502734017751,24.30773929739029,55.188832124739086,-24.79840231240276,tremor
257,4119406,1.581,-0.587771512196529,-0.2811306541193959,0.6526344934962577,24.81304784755804,52.375669854949415,-24.70613506653809,tremor
258,4119411,1.586,-0.5946455845806656,-0.2798488655240712,0.6521629210857967,25.274921112990437,49.60902312242877,-24.610136669338598,tremor
259,4119416,1.591,-0.60156162911982,-0.27866476347574537,0.6522301015573772,25.691111016531327,46.89447556510597,-24.509425352044516,tremor
260,4119421,1.596,-0.6084724297213332,-0.27759480949047566,0.6528240754691093,26.05983299093175,44.23533859755044,-24.403518399913207,tremor
261,4119426,1.601,-0.6153317885030003,-0.2766540819917708,0.653926694226256,26.379760618670687,41.63292575481479,-24.292424306555642,tremor
262,4119431,1.606,-0.6220950333126013,-0.2758560907301671,0.6555140185576852,26.650013802733547,39.086864264846874,-24.17662399701484,tremor
263,4119436,1.611,-0.6287194889912855,-0.27521260132148956,0.6575567910423564,26.870141169343007,36.5954338659705,-24.05704210439454,tremor
264,4119461,1.636,-0.6351649040192635,-0.2747334729013285,0.660020973085656,27.040097526143303,34.155922060065045,-23.93500950777674,tremor
265,4119466,1.641,-0.6413938256863069,-0.27442651235885623,0.6628683361371349,27.16021730128658,31.764984396188545,-23.81221849662508,tremor
266,4119471,1.646,-0.6473719183607033,-0.2742973489931618,0.6660570965528295,27.231184960159634,29.418998145758145,-23.690672017773064,tremor
267,4119476,1.651,-0.6530682206925709,-0.27434933365098757,0.6695425833200065,27.254003428674842,27.11439802871725,-23.572628492482448,tremor
268,4119481,1.656,-0.6584553386549531,-0.27458346638562303,0.6732779278536778,27.22996154178989,24.84798356228997,-23.460543674108912,tremor
269,4119486,1.661,-0.6635095722630668,-0.2749983563920577,0.6772147651980092,27.160601484659768,22.617189041844767,-23.357010961625146,tremor
270,4119491,1.666,-0.668210974741909,-0.27559021743878676,0.6813039361686745,27.047687104139847,20.420308940715035,-23.264701497703246,tremor
271,4119495,1.67,-0.6725433439581222,-0.2763529012740742,0.6854961802126049,26.89317384205015,18.256673468704705,-23.18630526881634,tremor
272,4119500,1.675,-0.6764941471751278,-0.27727797058266607,0.6897428090213332,26.69918088172581,16.12677104931034,-23.12447429762443,tremor
273,4119505,1.68,-0.6800543816618341,-0.27835481205502816,0.6939963512189705,26.467965913281297,14.032316481273925,-23.08176888576155,tremor
274,4119510,1.685,-0.6832183753697179,-0.27957078905027466,0.6982111587815321,26.20190272314143,11.976265468279003,-23.060607738996065,tremor
275,4119515,1.69,-0.6859835337359029,-0.2809114322310875,0.702343966272962,25.9034616151664,9.962777973642515,-23.06322269407684,tremor
276,4119520,1.695,-0.6883500405806198,-0.2823606654711196,0.7063543945573477,25.57519248949082,7.997134444992525,-23.091618668307376,tremor
277,4119525,1.7,-0.6903205229232869,-0.2839010633296621,0.7102053914177257,25.219710254722294,6.085610328053469,-23.147539362304588,tremor
278,4119529,1.704,-0.6918996911945808,-0.28551413549436644,0.7138636025174318,24.83968214146288,4.235315421510221,-23.232439151354058,tremor
279,4119534,1.709,-0.6930939676174965,-0.28718063283652145,0.7172996673992995,24.437816429385272,2.4540054896130727,-23.347461488474096,tremor
280,4119539,1.714,-0.6939111163295197,-0.2888808691185761,0.720488436732272,24.016852098484986,0.7498741228446908,-23.493424004266434,tremor
281,4119544,1.719,-0.6943598890106043,-0.290595051947069,0.723409108767335,23.579548959355446,-0.8686668982216397,-23.670810322863343,tremor
282,4119548,1.723,-0.6944496992882526,-0.292303616277908,0.7260452849187049,23.128677890567666,-2.3932105396388823,-23.879768423082975,tremor
283,4119553,1.728,-0.694190337961942,-0.2939875536520467,0.7283849464846646,22.66701089471078,-3.8155729452524243,-24.12011516560989,tremor
284,4119558,1.733,-0.6935917391068276,-0.29562873036046994,0.7304203566860162,22.197310763806517,-5.128000263430793,-24.391346388631263,tremor
285,4119584,1.759,-0.6926638044037353,-0.29721018789821746,0.732147894324227,21.722320212416324,-6.323357750524325,-24.69265175686035,tremor
286,4119589,1.764,-0.6914162896908754,-0.2987164193611077,0.7335678273093023,21.24475039354317,-7.3952962182174895,-25.022933353732185,tremor
287,4119594,1.769,-0.6898587539593457,-0.30013361586862286,0.7346840359061854,20.7672687643829,-8.338392205549216,-25.380826874822514,tremor
288,4119599,1.774,-0.6880005671847892,-0.30144987767488185,0.7355036966134867,20.29248632109829,-9.148259611495265,-25.764724261957284,tremor
289,4119604,1.779,-0.6858509699301034,-0.30265538536794834,0.7360369379944741,19.82294427314227,-9.82163183304172,-26.172796733580334,tremor
290,4119609,1.784,-0.6834191749102528,-0.3037425274514764,0.7362964795289002,19.361100272847857,-10.356414642917235,-26.603017387873507,tremor
291,4119614,1.789,-0.6807144988549658,-0.30470598162997525,0.7362972637649146,18.909314350801885,-10.75171106509112,-27.05318282154632,tremor
292,4119619,1.794,-0.6777465120764191,-0.3055427482487396,0.7360560908904669,18.46983473212497,-11.007820349232059,-27.52093346751129,tremor
293,4119623,1.798,-0.6745251931051812,-0.30625213553744696,0.7355912634698786,18.044783726456767,-11.126213811283964,-28.003772577869444,tremor
294,4119628,1.803,-0.6710610765037653,-0.30683569753490425,0.7349222476303602,17.636143899032028,-11.109490805221077,-28.499083948056427,tremor
295,4119633,1.808,-0.6673653833610982,-0.30729712678959736,0.7340693555320399,17.245744745267825,-10.961318425989464,-29.00414858602449,tremor
296,4119638,1.813,-0.6634501258337127,-0.30764210509224554,0.7330534525837388,16.875250109441076,-10.686358713207218,-29.516160578024095,tremor
297,4119643,1.818,-0.6593281792353894,-0.3078781165583779,0.7318956916223608,16.52614660911251,-10.290187119982185,-30.032242399301442,tremor
298,4119648,1.823,-0.6550133174014666,-0.3080142282995381,0.7306172751838627,16.19973334545133,-9.77920581994538,-30.54945987900265,tremor
299,4119653,1.828,-0.6505202092125448,-0.3080608446644603,0.7292392460699454,15.897113184701732,-9.160555046872906,-31.064836970141176,tremor
300,4119658,1.833,-0.6458643761408044,-0.3080294415665031,0.7277823056569034,15.619185875621682,-8.442025117397282,-31.57537041092206,tremor
301,4119662,1.837,-0.6410621124100022,-0.307932287718564,0.7262666587915501,15.36664321504338,-7.631971126782495,-32.0780443019382,tremor
302,4119667,1.842,-0.6361303708094329,-0.30778215965888267,0.7247118836523341,15.139966391414333,-6.739231590546251,-32.56984457102043,tremor
303,4119672,1.847,-0.6310866183845224,-0.3075920572712394,0.7231368245916093,14.939425534723428,-5.773051584339178,-33.04777325918178,tremor
304,4119677,1.852,-0.6259486671860252,-0.30737492609813893,0.7215595056897098,14.765081393566204,-4.743010251483585,-33.508862541277814,tremor
305,4119682,1.857,-0.6207344860562951,-0.30714339214664077,0.7199970625276878,14.616788957716713,-3.6589519340702825,-33.95018839488185,tremor
306,4119707,1.882,-0.6154620001202781,-0.30690951413232415,0.7184656895232993,14.494202757397154,-2.530919672686319,-34.36888384683378,tremor
307,4119712,1.887,-0.6101488852513426,-0.30668455724107674,0.7169806000910467,14.396783509730795,-1.369089460356841,-34.76215174967874,tremor
308,4119717,1.892,-0.6048123652451928,-0.3064787915633294,0.715555996919664,14.32380576162209,-0.18370350236869687,-35.127277056585385,tremor
309,4119722,1.897,-0.5994690196210472,-0.3063013174342929,0.7142050498596102,14.27436620481126,1.0149991006629533,-35.46163856233999,tremor
310,4119727,1.902,-0.5941346097115807,-0.306159919058838,0.7129398793096308,14.247392408320295,2.216855353742588,-35.76272005813924,tremor
311,4119731,1.906,-0.5888239299004174,-0.3060609470511656,0.7117715435646994,14.24165180881902,3.4118554606459353,-36.02812081820077,tremor
312,4119736,1.911,-0.5835506895293102,-0.30600922988864937,0.7107100292681677,14.255760901115922,4.590223629867312,-36.255565309757614,tremor
313,4119741,1.916,-0.5783274292282744,-0.3060080137616396,0.7097642448108483,14.28819466462938,5.742501453930295,-36.44291200525851,tremor
314,4119746,1.921,-0.5731654733692688,-0.3060589298915386,0.7089420171593233,14.337296337405474,6.859632065480803,-36.588161182903924,tremor
315,4119750,1.925,-0.5680749181736517,-0.30616198808688955,0.7082500931126188,14.40128769916843,7.933042768071934,-36.68946163256626,tremor
316,4119755,1.93,-0.563064652885043,-0.30631559511161394,0.7076941463353628,14.478280044452001,8.954723522590088,-36.74511623994562,tremor
317,4119760,1.935,-0.558142409515815,-0.3065165963493164,0.707278791666872,14.566286017713042,9.917298570040524,-36.75358650062105,tremor
318,4119765,1.94,-0.5533148351351244,-0.30676033925743573,0.7070076081432624,14.663232452360454,10.814088599734808,-36.71349611174353,tremor
319,4119770,1.945,-0.5485875796115925,-0.307040757203664,0.7068831718899455,14.766974314547015,11.639161215816856,-36.62363389328216,tremor
320,4119780,1.955,-0.543965391242319,-0.3073504724444871,0.7069070995534086,14.875309806612357,12.387367978999006,-36.48295639112642,tremor
321,4119785,1.96,-0.539452212838651,-0.30768091720932617,0.707080102267899,14.985996635921854,13.054366954858928,-36.2905905968489,tremor
322,4119789,1.964,-0.5350512715988872,-0.3080224720449934,0.7074020493398083,15.096769403152317,13.6366304249872,-36.04583726766778,tremor
323,4119794,1.969,-0.5307651574274774,-0.308364620692572,0.7078720399492918,15.205358013153765,14.131438142874954,-35.748175330634716,tremor
324,4119799,1.974,-0.5265958861496691,-0.30869612075136726,0.7084884802996999,15.309506968120825,14.536857172999824,-35.39726780075926,tremor
325,4119804,1.979,-0.5225449461589853,-0.3090051891869344,0.7092491628748193,15.406995375588075,14.851709886854954,-34.992969539098716,tremor
326,4119830,2.005,-0.5186133292324526,-0.30927970133996935,0.7101513438634274,15.495657500148196,15.075532078995275,-34.53533703703497,tremor
327,4119834,2.009,-0.5148015483501632,-0.30950740149391104,0.7111918144417069,15.573403707353735,15.208523408516864,-34.024640250244886,tremor
328,4119839,2.014,-0.511109647130924,-0.3096761223018486,0.712366961529662,15.638241674909422,15.251492479291723,-33.46137633025105,tremor
329,4119844,2.019,-0.5075372066987923,-0.30977400954317624,0.7136728139215233,15.688297750723985,15.205798864246907,-32.84628492124035,tremor
330,4119849,2.024,-0.5040833562454802,-0.3097897478928279,0.7151050703670531,15.721838295029695,15.073294274978487,-32.18036451310117,tremor
331,4119854,2.029,-0.5007467932246191,-0.3097127827508548,0.7166591072237415,15.737290751379184,14.856264895984335,-31.464889176082696,tremor
332,4119859,2.034,-0.4975258181294932,-0.3095335327755206,0.7183299646239146,15.7332640664411,14.557376656689723,-30.70142485589338,tremor
333,4119863,2.038,-0.4944183873542059,-0.3092435876312867,0.7201123115958303,15.708567948760635,14.179624915536484,-29.891844289578135,tremor
334,4119868,2.043,-0.49142218590058845,-0.3088358856175815,0.722000392135702,15.662230352397016,13.726289690722783,-29.03833952340328,tremor
335,4119873,2.048,-0.4885347198247793,-0.30830486627495757,0.7239879557466502,15.59351251976565,13.200897205645218,-28.14343098634109,tremor
336,4119878,2.053,-0.4857534264536109,-0.3076465937411764,0.7260681773409229,15.501920934126444,12.607188138552061,-27.209972106784214,tremor
337,4119883,2.058,-0.48307579866485334,-0.30685884750260634,0.7282335725438526,15.38721561334673,11.949092590493802,-26.24114856111562,tremor
338,4119887,2.062,-0.4804995180334997,-0.3059411781955098,0.7304759152515186,15.249414306277778,11.23071142918744,-25.240471408559554,tremor
339,4119892,2.067,-0.47802259050714163,-0.30489492719204847,0.7327861647117366,15.088792309311193,10.456303345647084,-24.211763587091934,tremor
340,4119897,2.072,-0.4756434775746176,-0.3037232097957423,0.7351544093844744,14.905877782662971,9.630276691548,-23.159139503769527,tremor
341,4119902,2.077,-0.47336121568333545,-0.30243086292003635,0.7375698343888922,14.701442598086516,8.757184960073301,-22.08697773038688,tremor
342,4119906,2.081,-0.47117551694764626,-0.3010243590947804,0.7400207184822968,14.47648888346003,7.84172463467367,-20.999887092046546,tremor
343,4119911,2.086,-0.4690868449405836,-0.2995116895159187,0.7424944652860598,14.232231542887027,6.8887340530970835,-19.902666693408296,tremor
344,4119917,2.092,-0.467096460511284,-0.2979022196124327,0.7449776719380878,13.97007712600189,5.903191909410935,-18.800260650359615,tremor
345,4119922,2.097,-0.46520643403298,-0.2962065212487778,0.7474562365875038,13.691599502281207,4.890214040266001,-17.697708476202425,tremor
346,4119926,2.101,-0.46341962215368404,-0.29443618621168066,0.7499155042407153,13.398512871286945,3.8550472161385088,-16.600092211969493,tremor
347,4119954,2.129,-0.46173960887126997,-0.2926036260474745,0.7523404485107474,13.092642711333756,2.80305879002682,-15.512481494950611,tremor
348,4119958,2.133,-0.46017061245626056,-0.2907218636142368,0.754715884916318,12.775895333067876,1.7397212507862585,-14.439877828520581,tremor
349,4119963,2.138,-0.4587173612655122,-0.28880432187276944,0.7570267096531087,12.450226746115822,0.6705909881229988,-13.387159340028857,tremor
350,4119968,2.143,-0.4573849427075179,-0.2868646154299324,0.7592581563716263,12.11761154757178,-0.39871910664640725,-12.359027276317144,tremor
351,4119973,2.148,-0.4561786304677816,-0.28491635013901173,0.7613960625729923,11.780012495139587,-1.4625732309247472,-11.359955383444964,tremor
352,4119978,2.153,-0.4551036955990771,-0.28297293565167553,0.7634271368163403,11.439351352078084,-2.515352136681674,-10.39414316393693,tremor
353,4119983,2.158,-0.45416520731324567,-0.28104741522839644,0.7653392179656692,11.097481512769479,-3.5514978547277463,-9.465473828463177,tremor
354,4119987,2.162,-0.4533678293803595,-0.2791523163834477,0.7671215180938556,10.756162855103433,-4.565562814365793,-8.577477582890687,tremor
355,4119992,2.167,-0.4527156180241744,-0.2772995250987482,0.7687648413157342,10.41703922180214,-5.552262299433362,-7.7333007291361575,tremor
356,4119997,2.172,-0.452211827140841,-0.2755001854159519,0.770261771669899,10.081618898814172,-6.506529021590987,-6.935680912131203,tremor
357,4120002,2.177,-0.4518587265703368,-0.27376462523597483,0.7716068241592057,9.751258421495068,-7.42356845751017,-6.1869287113459945,tremor
358,4120007,2.182,-0.45165743900045197,-0.27210230815101183,0.7727965541589985,9.427149985771278,-8.29891348918416,-5.488915646935297,tremor
359,4120011,2.186,-0.45160780084349833,-0.270521810143959,0.77382962159016,9.110312664401642,-9.128476815361719,-4.843068542433194,tremor
360,4120016,2.191,-0.45170825204431225,-0.26903081905877374,0.7747068075207717,8.801587527157169,-9.908599580101573,-4.250370056786102,tremor
361,4120026,2.201,-0.45195575920146336,-0.2676361539200411,0.7754309821982796,8.50163664350992,-10.63609470429723,-3.7113650714303206,tremor
362,4120031,2.206,-0.4523457755718714,-0.2663438005053431,0.7760070249134756,8.210945817509584,-11.308283516817495,-3.2261724990174807,tremor
363,4120035,2.21,-0.4528722404644119,-0.26515895908920223,0.7764416975395615,7.929830781617346,-11.923024465888256,-2.794501976444905,tremor
364,4120040,2.215,-0.45352761921931417,-0.2640861000144635,0.7767434750424216,7.658446475707577,-12.478732941239377,-2.4156748231596854,tremor
365,4120045,2.22,-0.45430298345690745,-0.2631290227236187,0.7769223376775104,7.396798970962086,-12.974391536117174,-2.0886485916715976,tremor
366,4120050,2.225,-0.4551881296332212,-0.26229091409395283,0.7769895309211402,7.144759567757339,-13.409550401403747,-1.8120445138859427,tremor
367,4120076,2.251,-0.45617173225961744,-0.26157440234046747,0.7769573003688827,6.90208059480331,-13.784317666765052,-1.5841771562733566,tremor
368,4120081,2.256,-0.457241526555673,-0.26098160334065706,0.7768386097941252,6.668412453146848,-14.099340206064259,-1.4030856401418683,tremor
369,4120091,2.266,-0.45838451397650615,-0.26051415695076346,0.7766468511886201,6.443321472833338,-14.355775295927645,-1.2665658570121239,tremor
370,4120095,2.27,-0.45958718318003516,-0.2601732516763402,0.7763955557844253,6.226308173405773,-14.55525395841942,-1.1722032015000399,tremor
371,4120100,2.275,-0.46083573871194067,-0.25995963688376045,0.7760981147146566,6.016825537318161,-14.699836999856638,-1.1174054361851424,tremor
372,4120105,2.28,-0.46211632997928875,-0.2598736225527911,0.7757675171504591,5.8142969190788785,-14.79196496475962,-1.0994353767211844,tremor
373,4120110,2.285,-0.46341527381448294,-0.25991506734111147,0.775416112589617,5.6181332287995085,-14.83440341411195,-1.1154431331565358,tremor
374,4120119,2.294,-0.4647192649060246,-0.26008335643316194,0.7750554026267829,5.427749053856049,-14.830185097370277,-1.1624976689687143,tremor
375,4120124,2.299,-0.4660155694219205,-0.26037737125270516,0.774695866132255,5.2425774203663265,-14.782550698671894,-1.2376174515915022,tremor
376,4120129,2.304,-0.4672921981540697,-0.26079545360428263,0.7743468203902242,5.062082946384784,-14.694889878867805,-1.3377999746447315,tremor
377,4120134,2.309,-0.46853805639659696,-0.2613353671475866,0.7740163194539061,4.885773197103257,-14.570684290558484,-1.4600499373917557,tremor
378,4120139,2.314,-0.4697430685176046,-0.2619942592826271,0.7737110897968568,4.713208113881331,-14.413454109282343,-1.6014058747550055,tremor
379,4120148,2.323,-0.4708982758161185,-0.2627686265284287,0.7734365022894074,4.544007448930793,-14.226709410074442,-1.7589650446404097,tremor
380,4120153,2.328,-0.4719959068258211,-0.263654286323649,0.7731965786052617,4.377856191752433,-14.01390744162264,-1.929906400232163,tremor
381,4120158,2.333,-0.4730294197956328,-0.26464635788251406,0.772994029362239,4.214508018353951,-13.77841652785122,-2.1115115032641842,tremor
382,4120163,2.338,-0.4739935176998851,-0.26573925432681195,0.7728303206250351,4.053786828301384,-13.523486976562294,-2.3011832682522244,tremor
383,4120172,2.347,-0.47488413684376257,-0.2669266878106904,0.7727057648539455,3.8955864602832118,-13.252229014600244,-2.496462464186902,tremor
384,4120199,2.374,-0.47569841093552945,-0.26820168878888606,0.7726196319790838,3.7398687003651747,-12.967597417390717,-2.695041935227212,tremor
385,4120204,2.379,-0.4764346133514538,-0.2695566399818848,0.7725702760209948,3.5866597245662604,-12.67238218257339,-2.894778531328913,tremor
386,4120208,2.383,-0.47709208112158275,-0.27098332499576355,0.7725552725749304,3.436045149697912,-12.369204349634478,-3.09370276052866,tremor
387,4120213,2.388,-0.4776711247749554,-0.2724729909922237,0.772571562537783,3.2881638979960055,-12.060515926487389,-3.290026186468552,tremor
388,4120218,2.393,-0.47817292848173004,-0.2740164243027854,0.7726155976830189,3.143201104180541,-11.748602858706603,-3.4821466005025217,tremor
389,4120223,2.398,-0.4785994448773664,-0.2756040374576513,0.7726834840579735,3.001380303922661,-11.43559003958283,-3.6686510020473984,tremor
390,4120227,2.402,-0.4789532885961125,-0.27722596576188907,0.7727711196512759,2.8629551408579847,-11.123447468263329,-3.8483164281374207,tremor
391,4120232,2.407,-0.47923763196625885,-0.27887217130095376,0.7728743233148495,2.7282008183398783,-10.813996791393496,-4.020108686215688,tremor
392,4120237,2.412,-0.4794561056196552,-0.28053255209320144,0.7729889524898482,2.5974055055535876,-10.508917599965535,-4.1831790638807265,tremor
393,4120242,2.417,-0.47961270602166767,-0.2821970540263888,0.7731110078515271,2.470861888340438,-10.209752993221397,-4.336859114551772,tremor
394,4120246,2.421,-0.47971171119819417,-0.2838557832137706,0.7732367235332399,2.3488590348512233,-9.917914061800273,-4.480653646449785,tremor
395,4120251,2.426,-0.47975760527091504,-0.28549911647644083,0.7733626420988471,2.2316747254435856,-9.634683079527507,-4.614232070962142,tremor
396,4120256,2.431,-0.4797550118427961,-0.2871178077926013,0.7734856738953505,2.119568375010647,-9.361215324917396,-4.73741829229133,tremor
397,4120261,2.436,-0.4797086358210872,-0.288703088739897,0.7736031408280253,2.0127746543802014,-9.098539577780231,-4.850179340611367,tremor
398,4120266,2.441,-0.4796232129304862,-0.2902467611808842,0.7737128049575152,1.9114978961469622,-8.847557451010351,-4.952612964383628,tremor
399,4120271,2.446,-0.4795034659506413,-0.29174128069066885,0.7738128826244414,1.8159073498579112,-8.609041819153452,-5.0449344042827144,tremor
400,4120276,2.451,-0.47935406659842855,-0.2931798294866341,0.7739020450662013,1.7261333320641203,-8.383634689036615,-5.127462572566492,tremor
401,4120281,2.456,-0.47917960195073156,-0.2945563778809712,0.7739794067079678,1.6422642983182647,-8.171844918861197,-5.200605858873041,tremor
402,4120286,2.461,-0.4789845443499264,-0.295865733527499,0.7740445024907525,1.5643448467022287,-7.974046226865967,-5.264847777240044,tremor
403,4120291,2.466,-0.47877322383427245,-0.29710357796808784,0.7740972557483109,1.4923746460572425,-7.7904759360693,-5.320732660442244,tremor
404,4120296,2.471,-0.4785498022735815,-0.2982664901971389,0.7741379382645798,1.426308266926328,-7.6212348758112425,-5.368851597097192,tremor
405,4120322,2.497,-0.4783182485556501,-0.2993519571541667,0.7741671242348701,1.3660558792267248,-7.466288804036373,-5.409828794575902,tremor
406,4120326,2.501,-0.4780823143546139,-0.30035837122640074,0.7741856399141913,1.311484767669626,-7.325471630206492,-5.444308536999825,tremor
407,4120331,2.506,-0.4778455102163629,-0.30128501500019117,0.7741945107566851,1.2624216042567296,-7.198490615386507,-5.472942893448708,tremor
408,4120336,2.511,-0.47761108191747376,-0.30213203364900065,0.7741949078194331,1.2186554076865022,-7.084933614892454,-5.496380317409434,tremor
409,4120341,2.516,-0.4773819872884348,-0.30290039549410447,0.7741880951133705,1.1799411126656838,-6.984278322016861,-5.515255263887563,tremor
410,4120346,2.521,-0.4771608739284001,-0.30359184142611767,0.7741753794353172,1.1460036672854759,-6.895903377649514,-5.530178934667172,tremor
411,4120350,2.525,-0.4769500584610184,-0.30420882403160876,0.7741580640196946,1.1165425725782365,-6.819101134146147,-5.5417312444856135,tremor
412,4120355,2.53,-0.47675150817128253,-0.3047544374272112,0.7741374071217749,1.0912367743792633,-6.753091803167549,-5.550454081090536,tremor
413,4120360,2.535,-0.4765668260059424,-0.305232338960514,0.7741145864009331,1.0697498138451682,-6.697038675592267,-5.5568459102549195,tremor
414,4120365,2.54,-0.4763972400022183,-0.3056466640887426,0.774090669724682,1.0517351402102224,-6.6500640752897935,-5.561357753413669,tremor
415,4120370,2.545,-0.47624359822231455,-0.3060019358885277,0.7740665927721003,1.0368414880841457,-6.6112656946915695,-5.564390541259617,tremor
416,4120375,2.55,-0.47610637020956437,-0.3063029707785722,0.7740431435855026,1.0247182212267143,-6.579732955355412,-5.56629382128113,tremor
