sample,t_ms,t_s,ax,ay,az,gx,gy,gz,tremor
0,4143062,0.0,-0.2933694667401875,-0.2803567407383682,0.8392141875025961,-1.1028448212349347,-12.016330737855332,-3.7032837189948404,tremor
1,4143067,0.005,-0.29206310394439944,-0.28046825802785175,0.8403535800885251,-1.0835982634676862,-15.40504190750755,-3.724922741485186,tremor
2,4143072,0.01,-0.29021891361646635,-0.28061918583676476,0.8419703491792023,-1.1129421652287848,-18.344944302844404,-3.7094144284693082,tremor
3,4143077,0.015,-0.2877680364789317,-0.28081033808232614,0.8441272684453038,-1.1916007233587536,-20.81724806856676,-3.6541496538509897,tremor
4,4143082,0.02,-0.2847326667058935,-0.28103437006415094,0.84680513421052,-1.3199720043711762,-22.806252260658454,-3.5566365005973894,tremor
5,4143087,0.025,-0.2811881502476979,-0.28127992301070986,0.8499350775645941,-1.4981186123817958,-24.29955928597431,-3.4145218155274364,tremor
6,4143092,0.03,-0.2772244433140712,-0.2815352511238863,0.853432578615311,-1.7257609841601367,-25.288270368295446,-3.225612234631432,tremor
7,4143097,0.035,-0.2729241210400507,-0.28179006630401027,0.8572174288413928,-2.002273459512456,-25.76715960058495,-2.987894465781522,tremor
8,4143101,0.039,-0.26835449360790453,-0.28203605145154603,0.8612213147602994,-2.3266832743291794,-25.734824002985217,-2.699554615025545,tremor
9,4143106,0.044,-0.2635674902559638,-0.2822667167492186,0.8653884230575631,-2.697672621751371,-25.193806859808134,-2.3589963442956834,tremor
10,4143111,0.049,-0.2586025493901928,-0.2824770474648072,0.8696732468372755,-3.113583922935851,-24.1506914644891,-1.9648576528326396,tremor
11,4143116,0.054,-0.25349002035969326,-0.2826631549612442,0.8740378309199398,-3.5724284412101257,-22.616162271466678,-1.5160260830061179,tremor
12,4143121,0.059,-0.2482540901791205,-0.2828220014063402,0.8784493686562306,-4.071898360421534,-20.605030355193474,-1.0116521653008026,tremor
13,4143126,0.064,-0.24291499861432791,-0.28295120501613097,0.8828783899474435,-4.609382428719264,-18.136220030533583,-0.4511609394092367,tremor
14,4143131,0.069,-0.2374906024588308,-0.2830489110444141,0.8872975063954707,-5.181985241223525,-15.232713521146925,0.16573857947146092,tremor
15,4143136,0.074,-0.23199743219452074,-0.28311371031227384,0.8916805988399784,-5.7865501962803245,-11.921450702298909,0.8390460781189415,tremor
16,4143141,0.079,-0.22645138174800647,-0.2831445898915102,0.8960023299039895,-6.4196861065287525,-8.233181225094322,1.5684648068668479,tremor
17,4143146,0.084,-0.220868144249886,-0.28314090460246966,0.9002378860092736,-7.077797373993582,-4.202266785305834,2.353398615247057,tremor
18,4143151,0.089,-0.21526347693342923,-0.2831023615315152,0.9043628781362505,-7.75711754519554,0.13356803914307966,3.1929511053778916,tremor
19,4143155,0.093,-0.2096533538743829,-0.2830290124272412,0.9083533513423583,-8.453745947252417,4.733537075543627,4.085926810596501,tremor
20,4143160,0.098,-0.2040540471979561,-0.2829212506706682,0.9121858684451772,-9.16368697026881,9.55414555203443,5.030834286569631,tremor
21,4143188,0.126,-0.1984821646441237,-0.2827798107183028,0.9158376440015294,-9.882891407588215,14.549593047181453,6.025891002822842,tremor
22,4143193,0.131,-0.19295466257739227,-0.2826057686649252,0.9192867118838097,-10.607299102238276,19.672223086586026,7.069029947140945,tremor
23,4143203,0.141,-0.18748884738975258,-0.28240054300333084,0.9225121143929365,-11.332881998273207,24.873014363463426,8.157907901555053,tremor
24,4143207,0.145,-0.18210237378931332,-0.28216589487260235,0.9254941037600956,-12.055686596491702,30.10210679617954,9.289915406961553,tremor
25,4143212,0.15,-0.17681324500060364,-0.2819039271622609,0.9282143486767334,-12.771874796057052,35.30935399251699,10.462188487026772,tremor
26,4143217,0.155,-0.17163981701847092,-0.28161708184105194,0.9306561395883227,-13.477762172119967,40.444892332209825,11.671622233230538,tremor
27,4143222,0.16,-0.16660080657714005,-0.2813081348601086,0.9328045871976794,-14.169852876567429,45.459715906986794,12.914886351908654,tremor
28,4143227,0.165,-0.16171530037974227,-0.28098018798139185,0.9346468091518977,-14.844870529478287,50.30624599738418,14.188442742704064,tremor
29,4143232,0.17,-0.15700276140334793,-0.2806366569285408,0.936172100359704,-15.499784670846942,54.938883606877035,15.488565124716441,tremor
30,4143242,0.18,-0.15248302679024306,-0.28028125535969495,0.9373720828742668,-16.131832546538156,59.31453380910738,16.811360661169342,tremor
31,4143246,0.184,-0.1481762910014223,-0.2799179743209035,0.9382408318119111,-16.738536189382977,63.39309129875679,18.15279346300378,tremor
32,4143251,0.189,-0.1441030675912062,-0.279551057045228,0.9387749743611007,-17.31771490486048,67.13787757126158,19.508709783396533,tremor
33,4143256,0.194,-0.14028412321259218,-0.27918496919733976,0.9389737595476539,-17.867493365916896,70.51602156339129,20.87486465649068,tremor
34,4143261,0.199,-0.1367403783104825,-0.27882436489870666,0.938839097031191,-18.386305563861125,73.49877729722023,22.246949690908703,tremor
35,4143266,0.204,-0.13349277038115567,-0.2784740490742481,0.9383755637892714,-18.872894868994152,76.06177398180608,23.620621703048187,tremor
36,4143271,0.209,-0.13056207758649485,-0.2781389368123375,0.9375903780891333,-19.326310447941736,78.18519602970704,24.99153186217908,tremor
37,4143276,0.214,-0.1279687027834608,-0.27782401051064426,0.9364933406574737,-19.745900280753673,79.85389244575212,26.355355011989975,tremor
38,4143280,0.218,-0.12573242051883335,-0.27753427558602806,0.9350967434530049,-20.131301027612324,81.05741697083778,27.707818825989186,tremor
39,4143285,0.223,-0.1238720920986619,-0.2772747154637456,0.9334152469476721,-20.48242501613838,81.79000215523907,29.04473244573346,tremor
40,4143312,0.25,-0.12240535632087057,-0.2770502464455884,0.9314657273540389,-20.79944465805258,82.05047213986612,30.362014244974908,tremor
41,4143317,0.255,-0.12134830568543309,-0.2768656729138676,0.9292670958128952,-21.082774656423023,81.84210026569163,31.655718366944,tremor
42,4143322,0.26,-0.12071515963801864,-0.2767256431938098,0.9268400921674513,-21.333052420181016,81.17241858296559,32.9220597038609,tremor
43,4143327,0.265,-0.12051794737992937,-0.2766346063098925,0.9242070565550872,-21.551117140539617,80.05298674244496,34.15743703073889,tremor
44,4143331,0.269,-0.12076621277319191,-0.2765967698575054,0.9213916825755187,-21.737987987087724,78.49912756852387,35.35845406531502,tremor
45,4143337,0.275,-0.1214667528616232,-0.27661605926649774,0.9184187561777034,-21.89484184708614,76.52963595574627,36.52193829282486,tremor
46,4143342,0.28,-0.12262339969162235,-0.2766960788264006,0.9153138846051248,-22.022990970812558,74.16646679968618,37.64495745980022,tremor
47,4143346,0.284,-0.1242368527154824,-0.2768400749321153,0.9121032197408304,-22.12386081387219,71.43440663950281,38.72483370134959,tremor
48,4143351,0.289,-0.1263045663521657,-0.2770509020568568,0.9088131800146168,-22.1989682978473,68.36073265766403,39.75915532071074,tremor
49,4143356,0.294,-0.12882069448050376,-0.2773309919435047,0.9054701747047057,-22.249900654506657,64.97486172838993,40.745786288350914,tremor
50,4143361,0.299,-0.13177609092118667,-0.2776823264195074,0.9021003340252989,-22.278294982336224,61.30799139803712,41.682873571620135,tremor
51,4143366,0.304,-0.13515836246718865,-0.27810641409179315,0.8987292478887899,-22.28581862497913,57.39273407363874,42.56885244620042,tremor
52,4143371,0.309,-0.13895196886478509,-0.2786042709865039,0.8953817157230287,-22.274150467592147,53.26274532925783,43.40244997538265,tremor
53,4143376,0.314,-0.14313836243382824,-0.2791764049923009,0.892081509265881,-22.24496322488354,48.9523471411545,44.18268686529322,tremor
54,4143381,0.319,-0.14769615884292983,-0.27982280377734847,0.8888511498977697,-22.19990675693467,44.49614705344829,44.908877904884974,tremor
55,4143386,0.324,-0.15260133000143053,-0.28054292570744016,0.8857117018357492,-22.140592401632414,39.92865476792581,45.580631176242626,tremor
56,4143395,0.333,-0.1578274101417198,-0.28133569321679525,0.8826825824071988,-22.068578270674443,35.2838984347404,46.19784618054221,tremor
57,4143400,0.338,-0.16334570695229725,-0.2821994880855867,0.8797813906377283,-21.985355437132085,30.595043943471815,46.76071097977574,tremor
58,4143405,0.343,-0.16912551106356066,-0.28313214816340865,0.8770237555041651,-21.892334961921538,25.89402166831304,47.26969841281048,tremor
59,4143410,0.348,-0.17513429923239274,-0.28413096524383896,0.8744232053874859,-21.790835773602005,21.211166257507223,47.72556140687134,tremor
60,4143437,0.375,-0.18133792911108937,-0.2851926840345325,0.8719910604725305,-21.682073527223636,16.57487602927816,48.12932736549911,tremor
61,4143442,0.38,-0.1877008263125492,-0.28631350246404463,0.8697363500313529,-21.567150701142392,12.011299216399138,48.48229156742167,tremor
62,4143447,0.385,-0.19418616723698878,-0.28748907389127537,0.8676657566259223,-21.447048304844778,7.54405454350347,48.78600946805438,tremor
63,4143452,0.39,-0.20075606332307824,-0.2887145120907393,0.8657835891879927,-21.322619619432466,3.193993275805061,49.04228777830002,tremor
64,4143456,0.394,-0.20737175359602938,-0.2899844001248447,0.8640917866108208,-21.194586348984895,-1.0209910908846496,49.25317421544703,tremor
65,4143461,0.399,-0.21399381242657023,-0.2912928043404717,0.8625899529082254,-21.063537435453355,-5.086100776381644,49.42094586670378,tremor
66,4143466,0.404,-0.22058237839385905,-0.2926332947175979,0.8612754242122406,-20.92993061775341,-8.989716278793512,49.548096156319026,tremor
67,4143471,0.409,-0.22709740832415812,-0.29399897264603747,0.8601433669730767,-20.794096635960546,-12.723422325619296,49.637320450645575,tremor
68,4143476,0.414,-0.2334989582434433,-0.2953825069191798,0.8591869057772962,-20.65624582253832,-16.281977776119472,49.69150037068652,tremor
69,4143481,0.419,-0.23974749040002785,-0.2967761783297287,0.8583972782855057,-20.516476699997863,-19.663231762002574,49.71368690910437,tremor
70,4143486,0.424,-0.24580420291777327,-0.29817193276343823,0.8577640139730549,-20.374786122797868,-22.867989943319895,49.70708246647761,tremor
71,4143491,0.429,-0.25163137624028836,-0.29956144215624775,0.8572751326897655,-20.23108045988917,-25.89983614682701,49.67502192777588,tremor
72,4143496,0.434,-0.2571927285010059,-0.3009361721590492,0.8569173585781062,-20.085187313037988,-28.7649157899802,49.62095289631299,tremor
73,4143500,0.438,-0.26245377043968743,-0.3022874548941597,0.8566763446278737,-19.936867305648278,-31.47168832987262,49.54841519540768,tremor
74,4143505,0.443,-0.26738214956300516,-0.30360656483434517,0.8565369031086087,-19.78582555347782,-34.03065647115657,49.46101974577736,tremor
75,4143510,0.448,-0.27194797294235046,-0.30488479562520826,0.8564832373065775,-19.631722529637944,-36.4540799819576,49.362426933059425,tremor
76,4143515,0.453,-0.27612409834779833,-0.3061135356286258,0.856499170389158,-19.474184142211335,-38.75568167889616,49.25632459043578,tremor
77,4143520,0.458,-0.27988638430889545,-0.3072843400973219,0.8565683678020792,-19.312810937443835,-40.950352456479585,49.146405725857385,tremor
78,4143525,0.463,-0.28321389114144485,-0.30838899819013704,0.856674550335981,-19.147186420347435,-43.053861185840475,49.03634611208224,tremor
79,4143530,0.468,-0.2860890269528637,-0.3094195934781651,0.8568016958262396,-18.976884554029922,-45.0825739515225,48.92978182661223,tremor
80,4143535,0.473,-0.28849763509521353,-0.310368557132267,0.8569342283126775,-18.801476567157135,-47.053185516340314,48.83028677974147,tremor
81,4143562,0.5,-0.29042902240784396,-0.3112287135703422,0.8570571943187628,-18.620537267654342,-48.98246421575618,48.74135020807267,tremor
82,4143567,0.505,-0.29187593075624624,-0.31199331891923027,0.8571564266435406,-18.43365112384491,-50.887009847141776,48.666354047434716,tremor
83,4143577,0.515,-0.2928344575922656,-0.3126560931470455,0.857218696611309,-18.240418418266625,-52.78302277850571,48.60855005015937,tremor
84,4143581,0.519,-0.29330393416070893,-0.31321124708461195,0.8572318560059177,-18.040461787900234,-54.68608173156504,48.57103650026119,tremor
85,4143586,0.524,-0.29328677214268034,-0.31365350573830714,0.8571849698759378,-17.8334334262452,-56.61092764292296,48.5567344213664,tremor
86,4143591,0.529,-0.29278829065683876,-0.31397812929887275,0.857068441057185,-17.619023138645133,-58.57125158413751,48.5683632606216,tremor
87,4143596,0.534,-0.2918165355420656,-0.3141809331029963,0.8568741267099922,-17.396967325306342,-60.57948568932624,48.60841614565593,tremor
88,4143601,0.539,-0.29038210180521873,-0.31425830754919765,0.8565954465189519,-17.16705883466798,-62.64659718464852,48.67913492725555,tremor
89,4143606,0.544,-0.28849796823205587,-0.31420723864367367,0.8562274815453104,-16.929157499976558,-64.78188681314906,48.78248531855663,tremor
90,4143611,0.549,-0.28617935067604205,-0.3140253294836482,0.8557670621264599,-16.683201056061662,-66.9927941253982,48.920132507707855,tremor
91,4143616,0.554,-0.28344357771997863,-0.3137108225987265,0.8552128427322467,-16.429216039077122,-69.28471318703714,49.093417646611584,tremor
92,4143621,0.559,-0.2803099894993308,-0.3132626226865054,0.8545653613458575,-16.16732820652359,-71.66082315502712,49.30333560476942,tremor
93,4143625,0.563,-0.27679985770862636,-0.31268031891986314,0.8538270807568727,-15.89777198768383,-74.12193881857203,49.55051433714063,tremor
94,4143630,0.568,-0.2729363223776495,-0.31196420569520333,0.8530024091479992,-15.620898494531597,-76.66638653673775,49.835196168821895,tremor
95,4143635,0.573,-0.2687443390670412,-0.31111530046242464,0.8520976975341501,-15.337181690717049,-79.28991100529011,50.1572212668873,tremor
96,4143640,0.578,-0.26425062882680095,-0.3101353571596948,0.8511212119768145,-15.04722241849686,-81.98561793473976,50.51601356012133,tremor
97,4143650,0.588,-0.25948362267760716,-0.3090268737965457,0.8500830790409329,-14.751750097986246,-84.74395700841147,50.91056937482914,tremor
98,4143655,0.593,-0.2544733925544208,-0.3077930929027246,0.8489952036633884,-14.451622018745034,-87.55274840336,51.339449061968075,tremor
99,4143660,0.598,-0.24925156159193423,-0.30643799388557597,0.8478711594225631,-14.147820230731911,-90.3972546943218,51.80077187899766,tremor
100,4143688,0.626,-0.2438511882965456,-0.3049662767938856,0.8467260520818227,-13.841446113225786,-93.2602981550666,52.29221435045843,tremor
101,4143693,0.631,-0.2383066214468098,-0.30338333752678104,0.8455763581553464,-13.533712764872272,-96.12242145844496,52.81101226881757,tremor
102,4143697,0.635,-0.2326533252851366,-0.3016952350817762,0.8444397410270538,-13.225935419508946,-98.96208783794833,53.353966424660705,tremor
103,4143702,0.64,-0.226927677365565,-0.2999086519188893,0.8433348477544123,-12.919520146410884,-101.75591525653233,53.91745208891344,tremor
104,4143707,0.645,-0.22116674391941848,-0.2980308488550836,0.8422810900479244,-12.615951130920152,-104.47893825254788,54.49743222355469,tremor
105,4143712,0.65,-0.2154080395000376,-0.2960696160678684,0.8412984130278334,-12.316776843958111,-107.10489088170488,55.089474378559636,tremor
106,4143717,0.655,-0.20968927883056285,-0.2940332217966246,0.8404070552649376,-12.023595392766971,-109.60650438614451,55.688771240043195,tremor
107,4143722,0.66,-0.20404812917975407,-0.2919303602213789,0.8396273033747773,-11.738039301966374,-111.95581373656321,56.290164819846495,tremor
108,4143727,0.665,-0.19852197126174392,-0.28977009980352625,0.8389792441129033,-11.461759911180238,-114.12446790296147,56.888174309777035,tremor
109,4143731,0.669,-0.19314767566115473,-0.28756183311328054,0.8384825165630703,-11.19641150504442,-116.08403954201641,57.47702765400828,tremor
110,4143736,0.674,-0.1879614002238923,-0.2853152288587724,0.838156066660528,-10.943635225794722,-117.80633069400139,58.050696911206636,tremor
111,4143741,0.679,-0.1829984118650266,-0.2830401864830178,0.8380179059801436,-10.705042766371928,-119.2636720220297,58.60293747543496,tremor
112,4143746,0.684,-0.17829293400350965,-0.28074679331982527,0.8380848764648015,-10.482199805153893,-120.42921406512055,59.12733119537365,tremor
113,4143751,0.689,-0.1738780185310534,-0.2784452839140581,0.8383724225843113,-10.276609118749231,-121.27720987123979,59.61733337120813,tremor
114,4143755,0.693,-0.16978543904510943,-0.27614600073582635,0.8388943723003657,-10.0896932920091,-121.78328917356168,60.06632351664126,tremor
115,4143765,0.703,-0.16604560018896358,-0.2738593551765633,0.8396627281619363,-9.922776932414386,-121.92472491123208,60.46765965134819,tremor
116,4143770,0.708,-0.1626874564870536,-0.27159578743645607,0.8406874698552713,-9.777068292678123,-121.68069331249845,60.814735742609805,tremor
117,4143775,0.713,-0.15973843316070216,-0.26936572373283685,0.8419763695704365,-9.653640220700497,-121.03252889363254,61.10104175754697,tremor
118,4143779,0.717,-0.15722434115339673,-0.2671795292198372,0.8435348216158456,-9.553410402473387,-119.96397553005666,61.320225640174726,tremor
119,4143784,0.722,-0.15516927903709626,-0.2650474551497866,0.8453656878184966,-9.477120946928803,-118.46143420064966,61.46615640946294,tremor
120,4143812,0.75,-0.15359551559887816,-0.2629795791454699,0.8474691604052773,-9.425317474223645,-116.51420710688537,61.53298749254805,tremor
121,4143817,0.755,-0.15252334863769335,-0.26098573797598756,0.8498426442844225,-9.398327992186868,-114.11473667780434,61.51521935372617,tremor
122,4143821,0.759,-0.1519709376903766,-0.25907545288886863,0.8524806609364526,-9.39624195986357,-111.25883658319016,61.40776044045317,tremor
123,4143826,0.764,-0.15195411086686225,-0.2572578482697432,0.8553747764546452,-9.4188900286429,-107.94591043541301,61.20598543126939,tremor
124,4143831,0.769,-0.1524861485047773,-0.2555415650919122,0.8585135565938932,-9.465825016287322,-104.17915254040588,60.90578973745322,tremor
125,4143836,0.774,-0.15357754877115443,-0.25393467121319474,0.8618825519288966,-9.536304711398653,-99.96572401463332,60.50363919263603,tremor
126,4143840,0.778,-0.1552357824987669,-0.25244457103934026,0.8654643163282817,-9.62927713164914,-95.31689692061074,59.99661388021874,tremor
127,4143845,0.783,-0.15746504633279604,-0.2510779173892927,0.8692384618759802,-9.743368870763543,-90.24815883986635,59.38244510970146,tremor
128,4143850,0.788,-0.16026602458766429,-0.24984052856690697,0.8731817530888147,-9.876877164554317,-84.77927050071746,58.659544662020174,tremor
129,4143855,0.793,-0.16363567099968496,-0.248737313669777,0.877268242781821,-10.027766282016948,-78.93426966591674,57.82702557540754,tremor
130,4143860,0.798,-0.16756702175464197,-0.24777220905222108,0.8814694512301501,-10.193668801391217,-72.74141539928391,56.88471393033147,tremor
131,4143865,0.803,-0.1720490507392052,-0.24694812861034757,0.8857545893944575,-10.371892261563662,-66.23306801389919,55.83315130826153,tremor
132,4143870,0.808,-0.17706657690853003,-0.24626693018207566,0.8900908259552176,-10.559431585170511,-59.44550141122106,54.673587836326774,tremor
133,4143875,0.813,-0.18260023201666822,-0.24572939987108355,0.8944435967890981,-10.752987552097263,-52.41864610731396,53.407965976520664,tremor
134,4143880,0.818,-0.18862649480666835,-0.24533525553008978,0.8987769543688545,-10.948991463387353,-45.19576296317143,52.03889545864768,tremor
135,4143885,0.823,-0.19511779523154574,-0.24508316999121896,0.9030539534256256,-11.143635978289367,-37.82304944272359,50.56961997546383,tremor
136,4143890,0.828,-0.2020426895330356,-0.24497081392254402,0.9072370681210312,-11.33291193307373,-30.349182067974752,49.00397644621306,tremor
137,4143895,0.833,-0.20936610421744525,-0.24499491743616164,0.9112886349691578,-11.512650762948766,-22.824800584079025,47.346347808002946,tremor
138,4143899,0.837,-0.21704964431785725,-0.24515134879720626,0.9151713148464191,-11.678571954898468,-15.301941151581849,45.60161041525686,tremor
139,4143904,0.842,-0.22505195898391783,-0.24543520781566117,0.9188485666377421,-11.826334767603313,-7.8334276159952205,43.77507721918115,tremor
140,4143932,0.87,-0.23332915551964808,-0.24584093078158897,0.9222851243886929,-11.951593271290506,-0.4722315309893012,41.872437964123314,tremor
141,4143936,0.874,-0.24183525157671232,-0.24636240317895014,0.925447469270801,-12.050053593803282,6.729186935389185,39.89969767556022,tremor
142,4143941,0.879,-0.25052265435114224,-0.24699307595367756,0.928304287261772,-12.117532127871769,13.719543938680255,37.863114719428275,tremor
143,4143946,0.884,-0.25934265533589956,-0.24772608090281145,0.9308269032790318,-12.150013386780826,20.4493888172446,35.76913967162277,tremor
144,4143951,0.889,-0.2682459294052524,-0.24855434085462938,0.9329896826806201,-12.143706213304393,26.871738906224163,33.62435613518957,tremor
145,4143956,0.894,-0.2771830276438175,-0.24947067072267592,0.9347703916138136,-12.095097149206614,32.94267886505822,31.435424477146352,tremor
146,4143961,0.899,-0.28610485424921933,-0.2504678661757774,0.9361505086349683,-12.000999937596514,38.621912047472556,29.209029242047613,tremor
147,4143966,0.904,-0.29496311892038296,-0.25153877748412107,0.9371154812849833,-11.858600326959222,43.87325275756673,26.95183076456862,tremor
148,4143971,0.909,-0.30371075732963976,-0.2526763669988942,0.9376549228058413,-11.66549554389703,48.665049849344776,24.67042127827949,tremor
149,4143976,0.914,-0.3123023135463128,-0.25387374963804177,0.9377627458401565,-11.419727977960106,52.97053401542803,22.37128562103406,tremor
150,4143981,0.919,-0.3206942796393102,-0.255124216637491,0.9374372316812416,-11.119812763513723,56.76808324005846,20.060766473660482,tremor
151,4143985,0.923,-0.32884538915332295,-0.25642124365147195,0.936681035353458,-10.764759051034748,60.041403206728006,17.745033934222484,tremor
152,4143990,0.928,-0.3367168627403664,-0.2577584850205078,0.9355011284267143,-10.354084846088744,62.77962187219248,15.430059121192102,tremor
153,4143995,0.933,-0.3442726059327696,-0.2591297566479898,0.9339086829379432,-9.88782537556602,64.97729984343425,13.121591415537155,tremor
154,4144000,0.938,-0.35147936083582676,-0.2605290104139882,0.9319189010453117,-9.366535030261968,66.63436050468025,10.825138896278375,tremor
155,4144005,0.943,-0.35830681533269826,-0.2619503033893911,0.9295507960238032,-8.791283034192714,67.75594592118661,8.545951497168232,tremor
156,4144010,0.948,-0.36472767512636645,-0.2633877652857497,0.9268269308839026,-8.163643099563368,68.35220629505578,6.289006410812487,tremor
157,4144020,0.958,-0.3707177054580078,-0.26483556759053056,0.9237731212421482,-7.4856774334674725,68.43803208746891,4.058995286007731,tremor
158,4144025,0.963,-0.3762557504825404,-0.2662878977050261,0.9204181091033468,-6.75991555972841,68.03273878438489,1.8603128036614889,tremor
159,4144029,0.967,-0.3813237388784068,-0.26773894113191726,0.9167932139622474,-5.989328499493875,67.1597146001458,-0.3029537145022569,tremor
160,4144056,0.994,-0.3859066841418494,-0.26918287435455346,0.912931967150921,-5.177298908923132,65.84604113425443,-2.427033898262551,tremor
161,4144061,0.999,-0.3899926870293759,-0.2706138705087269,0.9088697347231532,-4.327587790410453,64.12209614420932,-4.508483201086387,tremor
162,4144066,1.004,-0.39357294575004687,-0.2720261192648743,0.9046433334771415,-3.4442983639213276,62.02114630065963,-6.544190963291308,tremor
163,4144071,1.009,-0.39664177693204583,-0.2734138615104786,0.900290644076375,-2.531837604313042,59.57893624582932,-8.531387445572786,tremor
164,4144076,1.014,-0.39919664740967914,-0.2747714384612669,0.8958502247108591,-1.5948758345102696,56.83327868064904,-10.467649548587387,tremor
165,4144080,1.018,-0.4012382138762315,-0.276093353779969,0.8913609283674829,-0.6383046462002002,53.823648724138074,-12.350904933150613,tremor
166,4144090,1.028,-0.40277036477710365,-0.27737434622063056,0.8868615265231303,0.332806665253925,50.59078453577169,-14.179434289967455,tremor
167,4144100,1.038,-0.4038002567528436,-0.2786094693429668,0.8823903418945164,1.3132559949766134,47.17629523858243,-15.951871556876814,tremor
168,4144105,1.043,-0.40433833667510727,-0.27979417406252943,0.8779848927407087,2.297754467822448,43.62227657333314,-17.667201940255847,tremor
169,4144110,1.048,-0.40439833996274793,-0.2809243893275062,0.8736815511006271,3.2809733685140317,39.97093448228949,-19.32475766692934,tremor
170,4144115,1.053,-0.40399725644369827,-0.2819965961308007,0.8695152172553684,4.257591618718399,36.26421695412601,-20.924211469881225,tremor
171,4144119,1.057,-0.4031552564542876,-0.28300789041118724,0.8655190126377726,5.222343369312664,32.543454878676755,-22.465567883823265,tremor
172,4144124,1.062,-0.40189557194624204,-0.2839560311313121,0.8617239933716854,6.1700652039295285,28.849013228596966,-23.94915248341307,tremor
173,4144129,1.067,-0.40024432984249864,-0.28483947084635775,0.8581588866058996,7.095742400480412,25.219954473337133,-25.375599232170753,tremor
174,4144134,1.072,-0.3982303374763544,-0.2856573672717611,0.8548498517982626,7.994553673916627,21.693716645318297,-26.74583612400918,tremor
175,4144139,1.077,-0.39588482242372125,-0.2864095755962819,0.8518202690809215,8.861913825773563,18.305808860264445,-28.061069293153626,tremor
176,4144144,1.082,-0.3932411311989669,-0.28709662245454,0.8490905567694809,9.693513752498882,15.089527305387653,-29.3227657429418,tremor
177,4144149,1.087,-0.39033439298078965,-0.28771966347565214,0.8466780199356181,10.485357314488125,12.075694728369628,-30.53263480109592,tremor
178,4144154,1.092,-0.3872011556610859,-0.28828042708702295,0.8445967317138459,11.233794638809474,9.292426285754631,-31.692608352873588,tremor
179,4144180,1.118,-0.38387900200958003,-0.28878114772075747,0.8428574486342215,11.935551513456913,6.764924265997366,-32.80481984236127,tremor
180,4144185,1.123,-0.3804061536220298,-0.2892244917163977,0.841467560757163,12.587754618723967,4.515303739383003,-33.871581978555675,tremor
181,4144190,1.128,-0.37682106965727796,-0.2896134790488204,0.8404310767601074,13.187952421087509,2.562450676314513,-34.89536305253985,tremor
182,4144195,1.133,-0.3731620463555784,-0.2899514035953835,0.8397486434518217,13.734131618899536,0.9219135977556385,-35.878761779041184,tremor
183,4144200,1.138,-0.36946682221598504,-0.2902417540932701,0.8394175985507674,14.22472907600473,-0.39417056824552826,-36.82448062313035,tremor
184,4144205,1.143,-0.36577219272129236,-0.2904881373381849,0.8394320550284563,14.658639216209945,-1.377116049121843,-37.735297649489766,tremor
185,4144209,1.147,-0.3621136377792593,-0.2906942046307212,0.8397830149243174,15.035216887950405,-2.0216930775432913,-38.61403702002885,tremor
186,4144214,1.152,-0.3585249646507919,-0.29086358204384,0.840458510291252,15.354275748967925,-2.326098121830984,-39.463538352276395,tremor
187,4144219,1.157,-0.3550379690390027,-0.290999804788104,0.841443768816911,15.616082263350089,-2.291889825325346,-40.28662522826257,tremor
188,4144224,1.162,-0.3516821171483873,-0.2911062557909193,0.8427214016613934,15.821345443666706,-1.9238912454159849,-41.086073205208244,tremor
189,4144229,1.167,-0.34848425179548104,-0.291186108567434,0.8442716111309213,15.971202506353224,-1.230059285266425,-41.864577718645194,tremor
190,4144234,1.172,-0.34546832595897964,-0.29124227452030704,0.8460724159424722,16.067200638383966,-0.22132255936394268,-42.62472228184159,tremor
191,4144239,1.177,-0.3426551674026215,-0.291277354934652,0.8480998920010349,16.111275099062023,1.0886106720917883,-43.36894737539571,tremor
192,4144243,1.181,-0.34006227810786294,-0.29129359810221384,0.8503284267854987,16.10572390511674,2.6834724279942495,-44.09952039666646,tremor
193,4144248,1.186,-0.3377036721568228,-0.29129286218459705,0.8527309855998372,16.053179373017503,4.544680242673507,-44.818507011867666,tremor
194,4144253,1.191,-0.3355897553768369,-0.2912765845815413,0.855279388074641,15.956576821167385,6.651604660530648,-45.52774423409851,tremor
195,4144258,1.196,-0.3337272494949669,-0.29124575868496905,0.8579445933849089,15.819120766680438,8.981855416132138,-46.228815544100556,tremor
196,4144263,1.201,-0.33211916278422465,-0.2912009189578288,0.8606969926714982,15.644248985713054,11.511582214709541,-46.923028377705144,tremor
197,4144268,1.206,-0.33076480826719523,-0.29114213527010124,0.8635067071079356,15.43559484028045,14.21578554630983,-47.61139432059898,tremor
198,4144273,1.211,-0.32965986954174115,-0.29106901734997714,0.8663438899382934,15.196948303955836,17.0686325388125,-48.29461237024129,tremor
199,4144278,1.216,-0.3287965132705175,-0.2909807300688971,0.8691790306275862,14.932216138818003,20.04377250254842,-48.97305563958376,tremor
200,4144304,1.242,-0.32816354638478146,-0.2908760200830345,0.8719832590208506,14.645381682975112,23.114646562471744,-49.64676188255126,tremor
201,4144309,1.247,-0.327746615134016,-0.2907532541149106,0.8747286471131781,14.340464702820988,26.254785644289782,-50.31542821234899,tremor
202,4144314,1.252,-0.32752844229231304,-0.29061046889700964,0.8773885057086496,14.02148175339473,29.43809114649975,-50.978410353355095,tremor
203,4144324,1.262,-0.32748909812246124,-0.2904454325365534,0.879937672913535,13.692407483016256,32.63909298370077,-51.63472670763278,tremor
204,4144329,1.267,-0.3276063001031467,-0.29025571681206613,0.8823527910892719,13.357137319535049,35.83318037553287,-52.283067426783106,tremor
205,4144333,1.271,-0.3278557359518937,-0.29003877967798286,0.884612568598887,13.019451980024288,38.99680173314471,-52.9218085681413,tremor
206,4144338,1.276,-0.3282114041502021,-0.28979205701986716,0.8866980224277029,12.682984241733546,42.10763115626918,-53.549031293965825,tremor
207,4144343,1.281,-0.32864596603357327,-0.28951306245343755,0.8885926975573869,12.351188389889815,45.14470029850141,-54.162545951760414,tremor
208,4144348,1.286,-0.32913110357985714,-0.2891994936860551,0.8902828588376808,12.027312715057349,48.08849560647823,-54.75992075788628,tremor
209,4144353,1.291,-0.32963787733131605,-0.2888493436600505,0.8917576510525418,11.714375371118424,50.92102212024444,-55.33851470080915,tremor
210,4144358,1.296,-0.33013707941888815,-0.28846101438193794,0.8930092229398339,11.415143826269286,53.62583607823965,-55.89551419191765,tremor
211,4144362,1.3,-0.33059957740591556,-0.2880334310243702,0.894032811121132,11.132118045893323,56.18804946462142,-56.42797292561401,tremor
212,4144367,1.305,-0.3309966456013619,-0.2875661535865796,0.8948267802573655,10.867517443867591,58.59431035873036,-56.932854365379086,tremor
213,4144372,1.31,-0.33130028155810093,-0.2870594831346406,0.8953926162924951,10.623271538303541,60.8327635021791,-57.40707624264428,tremor
214,4144377,1.315,-0.3314835065958859,-0.2865145594368824,0.8957348703985568,10.40101416006225,62.89299589435993,-57.847556431289625,tremor
215,4144382,1.32,-0.3315206502732538,-0.2859334466821022,0.8958610521951987,10.202080994960838,64.76597245837833,-58.25125953112462,tremor
216,4144386,1.324,-0.33138761966436886,-0.28531920393397403,0.8957814719777545,10.02751019517362,66.44396687278063,-58.61524344712183,tremor
217,4144391,1.329,-0.33106215496041447,-0.2846759370436417,0.895509033035346,9.878045769503547,67.92049252237206,-58.93670517949817,tremor
218,4144396,1.334,-0.33052407320598587,-0.2840088289187346,0.8950589766527893,9.754143452248737,69.19023816956779,-59.21302494348494,tremor
219,4144401,1.339,-0.32975550181278607,-0.2833241453323649,0.8944485840346166,9.655978753492484,70.24901237884991,-59.44180762712256,tremor
220,4144428,1.366,-0.3287411028075821,-0.282629213848639,0.8936968411157037,9.583456908299187,71.09369994242469,-59.62092048852852,tremor
221,4144432,1.37,-0.3274682875636119,-0.281932373939187,0.8928240739421578,9.536224467321588,71.7222325704924,-59.74852591765625,tremor
222,4144438,1.376,-0.3259274201273897,-0.2812428969673357,0.8918515638616998,9.51368230372533,72.13357496615004,-59.82310808373601,tremor
223,4144442,1.38,-0.32411200540602403,-0.28057087542499165,0.8908011529364055,9.514999844488147,72.32772617876313,-59.843492406566384,tremor
224,4144447,1.385,-0.3220188567272465,-0.27992708162250485,0.8896948505826794,9.539130358716088,72.30573491952842,-59.80885704633832,tremor
225,4144452,1.39,-0.3196482359116438,-0.2793227969447904,0.88855445236936,9.584827143509147,72.06972642079361,-59.718735967748856,tremor
226,4144462,1.4,-0.31700395819887295,-0.2787696137763985,0.887401181212596,9.650660436504836,71.6229374870462,-59.573013533597184,tremor
227,4144467,1.405,-0.3140934542422578,-0.2782792132340668,0.8862553600170915,9.735034859312298,70.96975565118548,-59.37191096439679,tremor
228,4144472,1.41,-0.310927781943456,-0.27786312289365644,0.8851361232680695,9.836207172152113,70.11575783625429,-59.11596533303747,tremor
229,4144477,1.415,-0.30752158208091257,-0.27753245972033835,0.884061173315596,9.952304116255709,69.06774365599496,-58.80600203531757,tremor
230,4144482,1.42,-0.303892973362792,-0.2772976643586418,0.8830465852390371,10.081340151298514,67.8337584919649,-58.4431018866014,tremor
231,4144487,1.425,-0.30006338453084663,-0.2771682337567708,0.8821066623359034,10.221234961192925,66.42310177083549,-58.02856414472762,tremor
232,4144491,1.429,-0.2960573232721369,-0.2771524597287861,0.8812538425174878,10.36983068973281,64.84631642256333,-57.563866852558476,tremor
233,4144496,1.434,-0.29190208380052923,-0.2772571814402743,0.8804986542584895,10.524908957427341,63.11515629836766,-57.05062593261394,tremor
234,4144501,1.439,-0.28762739693007344,-0.27748755988306195,0.8798497192640439,10.684207782491718,61.24252932151876,-56.4905544545755,tremor
235,4144506,1.444,-0.2832650282069772,-0.2778468821409763,0.8793137976954676,10.84543856811309,59.242415277913835,-55.88542343918997,tremor
236,4144511,1.449,-0.2788483311750217,-0.278336402625255,0.8788958706383647,11.006303318419763,57.12975836380854,-55.23702546527161,tremor
237,4144516,1.454,-0.27441176413990764,-0.27895522748682994,0.878599253506766,11.164512208229953,54.920335825157906,-54.5471422169643,tremor
238,4144521,1.459,-0.2699903799124427,-0.27970024712779684,0.8784257332636514,11.31780156335342,52.630605173157434,-53.81751695443693,tremor
239,4144525,1.463,-0.2656192989954399,-0.2805661201858925,0.8783757217186867,11.463952219323458,50.2775334746502,-53.04983272174525,tremor
240,4144551,1.489,-0.2613331775723555,-0.2815453106162697,0.8784484167657618,11.600808130388634,47.87841304209338,-52.24569692806149,tremor
241,4144556,1.494,-0.257165682460033,-0.28262817762466785,0.8786419632886502,11.726295014930642,45.450668448247924,-51.4066327550605,tremor
242,4144561,1.499,-0.2531489858300132,-0.2838031163248519,0.8789536056556797,11.838438769154218,43.011660120284304,-50.534077647828816,tremor
243,4144566,1.504,-0.24931329281609335,-0.28505674523608,0.8793798243160178,11.93538337271672,40.57848977625217,-49.62938892608078,tremor
244,4144571,1.509,-0.24568641490883292,-0.28637413522703875,0.8799164500448166,12.015408041448714,38.1678126497311,-48.69385629546741,tremor
245,4144576,1.514,-0.24229340115239315,-0.28773907331976945,0.8805587508386111,12.076943424956461,35.7956608783425,-47.7287207461801,tremor
246,4144580,1.518,-0.23915623757447818,-0.2891343538985849,0.8813014882465264,12.118586670781665,33.47728171368826,-46.735199013025365,tremor
247,4144585,1.523,-0.23629362304494675,-0.29054208930234476,0.8821389419153048,12.139115170652104,31.226993424598,-45.71451246244727,tremor
248,4144590,1.528,-0.2337208269644846,-0.29194403148888165,0.8830649032000756,12.137498776936734,29.05806096141299,-44.66791899693026,tremor
249,4144595,1.533,-0.23144963095690416,-0.29332189643009315,0.884072640723973,12.112910247120148,26.982592663192143,-43.59674635568539,tremor
250,4144600,1.538,-0.22948835324253983,-0.2946576831126997,0.8851548426411799,12.06473365914709,25.01145855216087,-42.50242506889245,tremor
251,4144610,1.548,-0.2278419508135276,-0.29593397947022865,0.8863035419672891,11.992570552841567,23.15423009006483,-41.38651931087975,tremor
252,4144614,1.552,-0.22651219115763968,-0.29713424823926615,0.8875100326016713,11.896243594980612,21.419140682402553,-40.2507540060099,tremor
253,4144619,1.557,-0.22549788235303428,-0.29824308659619586,0.8887647845022374,11.77579763084185,19.813065724903346,-39.097036765832385,tremor
254,4144624,1.562,-0.22479514814898854,-0.29924645446688786,0.8900573668168213,11.631498058961242,18.341520610768793,-37.92747355333761,tremor
255,4144629,1.567,-0.22439773337257346,-0.30013186758640176,0.8913763875872637,11.463826534356764,17.00867486250631,-36.744377338546194,tremor
256,4144634,1.572,-0.22429732476423223,-0.3008885526884754,0.8927094579269422,11.27347406231408,15.817380400436193,-35.55026938564373,tremor
257,4144639,1.577,-0.22448387312529233,-0.3015075635880593,0.89404318737831,11.061331593420087,14.769211881361025,-34.34787316679142,tremor
258,4144643,1.581,-0.224945904331981,-0.301981858341459,0.8953632155580978,10.828478279752897,13.864517013295401,-33.14010122189583,tremor
259,4144676,1.614,-0.2256708091311872,-0.3023063390784778,0.8966542832796075,10.576167610734203,13.10247476876829,-31.930035576102274,tremor
260,4144680,1.618,-0.22664510441439353,-0.3024778574308577,0.8979003442026038,10.305811717551563,12.481159491449526,-30.7209025807347,tremor
261,4144685,1.623,-0.22785466153313322,-0.30249518962040073,0.8990847158316395,10.018964206252786,11.99760905067717,-29.51604323668728,tremor
262,4144690,1.628,-0.2292848998120795,-0.3023589860692058,0.9001902665322085,9.717301928613926,11.647895478085996,-28.318880162637562,tremor
263,4144695,1.633,-0.2309209454676588,-0.30207170073050554,0.9011996333341507,9.402606108304747,11.427196908645156,-27.13288237342494,tremor
264,4144700,1.638,-0.23274775758846428,-0.3016375051909172,0.9020954637649345,9.076743208817128,11.329870077101212,-25.961528960015784,tremor
265,4144705,1.643,-0.2347502238027707,-0.30106219205036544,0.9028606738533617,8.741645874471878,11.349523011501054,-24.80827265231305,tremor
266,4144710,1.648,-0.2369132289370201,-0.3003530712791425,0.9034787137762755,8.399294211441791,11.479087877813521,-23.67650412973991,tremor
267,4144714,1.652,-0.2392217005094922,-0.2995188623120221,0.9039338323840361,8.051697611152974,11.710894162160024,-22.5695178316272,tremor
268,4144719,1.657,-0.2416606353882775,-0.2985695836744032,0.9042113320249641,7.700877260071257,12.036742540317823,-21.49047990584796,tremor
269,4144724,1.662,-0.2442151123893912,-0.29751644102914176,0.9042978056713219,7.348849432791321,12.447979882791598,-20.44239881131576,tremor
270,4144729,1.667,-0.24687029596419346,-0.2963717137451656,0.9041813492917335,6.997609630480759,12.93557587334847,-19.42809895098326,tremor
271,4144734,1.672,-0.24961143635446384,-0.29514863945805997,0.9038517436696216,6.649117599172075,13.490201669429005,-18.45019755480158,tremor
272,4144739,1.677,-0.2524238715906906,-0.2938612956391583,0.9033006013806317,6.305283234005987,14.102310896202749,-17.511084860494645,tremor
273,4144753,1.691,-0.2552930363864487,-0.29252447692158046,0.9025214763529412,5.967953340966343,14.762223042712172,-16.612907462662314,tremor
274,4144758,1.696,-0.2582044822653103,-0.29115356684917726,0.9015099352641794,5.638899190139229,15.460209028445405,-15.757554531758094,tremor
275,4144763,1.701,-0.26114391210198173,-0.2897644028126574,0.9002635918640912,5.319804767932335,16.18657834624838,-14.946646467840564,tremor
276,4144773,1.711,-0.26409723067544905,-0.28837313320770275,0.8987821070000367,5.012255639122736,16.931766778505953,-14.181525484287729,tremor
277,4144799,1.737,-0.2670506109175875,-0.2869960662771856,0.8970671584983294,4.71772837389998,17.6864232532628,-13.463247645774098,tremor
278,4144804,1.742,-0.2699905735178817,-0.2856495106580925,0.895122385984509,4.43758057003376,18.441494008870016,-12.792576019847804,tremor
279,4144809,1.747,-0.27290407575563924,-0.28434960830892814,0.8929533161305623,4.173041576958816,19.188301957675645,-12.169974812549432,tremor
280,4144813,1.751,-0.2757786042479591,-0.2831121612056352,0.8905672736827989,3.9252040790717264,19.918619068617133,-11.5956045896206,tremor
281,4144818,1.756,-0.2786022659606073,-0.2819524539202448,0.8879732830145286,3.695016712945426,20.624729753849525,-11.069318883054425,tremor
282,4144823,1.761,-0.2813638723118059,-0.2808850748893585,0.8851819639970575,3.483277891016748,21.29948359874821,-10.590662621638606,tremor
283,4144828,1.766,-0.28405301227923635,-0.27992373978858187,0.8822054248531955,3.290630998966446,21.936336240293215,-10.158872901297027,tremor
284,4144833,1.771,-0.2866601118088242,-0.2790811209030512,0.879057153494527,3.117561131451909,22.529377715288792,-9.772882632058133,tremor
285,4144838,1.776,-0.2891764782744687,-0.27836868667563114,0.8757519077558499,2.9643935275318425,23.07334812903824,-9.431327569538144,tremor
286,4144843,1.781,-0.2915943300775179,-0.27779655568331846,0.8723056040035322,2.831293856729527,23.563641007828377,-9.132557167132129,tremor
287,4144848,1.786,-0.2939068125944019,-0.27737336911027044,0.8687352028625803,2.7182704842412937,23.9962951694837,-8.874649578082627,tremor
288,4144853,1.791,-0.29610800252236175,-0.2771061853399881,0.8650585903172937,2.6251788064810815,24.367976356077047,-8.655431000333923,tremor
289,4144858,1.796,-0.29819290321841097,-0.27700039958890693,0.86129445221408,2.5517276948811176,24.675950209813596,-8.472499397392836,tremor
290,4144863,1.801,-0.3001574338885391,-0.2770596905842863,0.8574621402365306,2.4974880171691383,24.918048431058445,-8.323252453008138,tremor
291,4144872,1.81,-0.30199841549803397,-0.27728599520928926,0.8535815277213744,2.4619031238864606,25.092630133444484,-8.204919435924564,tremor
292,4144877,1.815,-0.30371355608425515,-0.2776795108735797,0.849672854220016,2.4443010991522374,25.19854050373303,-8.114596471557805,tremor
293,4144883,1.821,-0.30530143779892494,-0.27823872421001583,0.8457565584613809,2.4439084863048883,25.235068883751133,-8.049284543801143,tremor
294,4144892,1.83,-0.306761507510364,-0.2789604636484478,0.8418531003121946,2.4598651185530955,25.201908318174773,-8.00592938204602,tremor
295,4144897,1.835,-0.3080940721616796,-0.2798399725703476,0.8379827734263744,2.4912396167322224,25.09911845260401,-7.981462227203154,tremor
296,4144923,1.861,-0.30930029930253383,-0.28087099916969765,0.8341655114718723,2.537045062760486,24.927093416804166,-7.972840325183874,tremor
297,4144928,1.866,-0.3103822222922956,-0.28204589886777975,0.8304206920290864,2.5962543230454664,24.686535986352443,-7.977085888906503,tremor
298,4144933,1.871,-0.31134274865733474,-0.28335574515005896,0.8267669433216173,2.6678144931530925,24.378438889356445,-7.991322237340007,tremor
299,4144938,1.876,-0.3121856690887966,-0.2847904449779951,0.8232219596786872,2.750659978730153,24.00407363269882,-8.012805901838874,tremor
300,4144942,1.88,-0.3129156637442565,-0.286338855417498,0.8198023318804047,2.843723821247947,23.564986694176213,-8.038953697861727,tremor
301,4144947,1.885,-0.3135383019995147,-0.2879888987496722,0.816523398250385,2.9459470038083957,23.063002399037696,-8.067364060640122,tremor
302,4144952,1.89,-0.31406003165439894,-0.2897276740276845,0.8133991215962797,3.0562856053382803,22.500231309468614,-8.09583227847795,tremor
303,4144957,1.895,-0.3144881538380923,-0.29154156377289714,0.8104419959764726,3.1737157905493163,21.87908253657779,-8.122359579714773,tremor
304,4144966,1.904,-0.31483078045377577,-0.29341633523735927,0.8076629859158824,3.297236720672043,21.20227805860025,-8.14515631647271,tremor
305,4144971,1.909,-0.3150967718871211,-0.2953372363805675,0.805071499219755,3.425871549818731,20.472866908870788,-8.16263973597191,tremor
306,4144976,1.914,-0.3152956537882176,-0.2972890873966434,0.8026753930453507,3.558666742744239,19.69423699732216,-8.173427041303112,tremor
307,4144986,1.924,-0.3154375129092358,-0.2992563692564767,0.800481011479966,3.694690018451222,18.870122372928027,-8.176324619086389,tremor
308,4144991,1.929,-0.315532873121847,-0.3012233112641075,0.7984932516121643,3.8330272897091855,18.004603939605747,-8.170314445969343,tremor
309,4144996,1.934,-0.3155925537485848,-0.3031739800293733,0.7967156540163173,3.9727790224009505,17.102101998425116,-8.154538767973657,tremor
310,4145001,1.939,-0.3156275131581677,-0.30509237248659077,0.7951505127195628,4.113056468510849,16.167359471123774,-8.128284164762107,tremor
311,4145005,1.943,-0.315648681178265,-0.3069625155997783,0.7937989990919506,4.252978224014257,15.20541521402062,-8.090966062476488,tremor
312,4145010,1.948,-0.3156667842919251,-0.308768575160151,0.7926612936947423,4.391667527936846,14.221567404777035,-8.042114653882056,tremor
313,4145016,1.954,-0.315692167853507,-0.3104949755929461,0.7917367199367481,4.528250658765919,13.221327533516705,-7.981363038481061,tremor
314,4145021,1.959,-0.31573461974333,-0.31212653195687434,0.7910238734249017,4.661856709303186,12.210366024124992,-7.90843821998074,tremor
315,4145047,1.985,-0.31580320002915724,-0.3136485943646091,0.7905207411554231,4.791618940887824,11.194450927462741,-7.823155401995485,tremor
316,4145052,1.99,-0.3159060813480787,-0.3150472039230027,0.7902248051771448,4.916677840622925,10.179381441767584,-7.725415813496222,tremor
317,4145057,1.995,-0.3160504048542169,-0.31630925806950516,0.7901331260703628,5.036185932571258,9.170918205741035,-7.6152080827903665,tremor
318,4145067,2.005,-0.31624215663391153,-0.31742268198688567,0.7902424025251455,5.14931431820835,8.174712371603082,-7.492612968830822,tremor
319,4145072,2.01,-0.3164860693747979,-0.3183766017430359,0.7905490044647459,5.255260830878918,7.196235416572783,-7.357811051984421,tremor
320,4145077,2.015,-0.31678555369570743,-0.31916151402956955,0.7910489785100064,5.353259579366844,6.240711523322278,-7.211092784563226,tremor
321,4145082,2.02,-0.31714266283828324,-0.3197694469208759,0.7917380260580189,5.442591537057866,5.313054181984857,-7.052870115076307,tremor
322,4145087,2.025,-0.3175580933693187,-0.32019410596477954,0.7926114557725996,5.522595725693326,4.417808457435734,-6.883688747749018,tremor
323,4145092,2.03,-0.31803122317552174,-0.3204310001362984,0.7936641137695635,5.592680467123062,3.5591001375327336,-6.704239998210152,tremor
324,4145097,2.035,-0.3185601864281737,-0.3204775426989715,0.7948902961437256,5.652334146582524,2.740592739268435,-6.515371169254718,tremor
325,4145101,2.039,-0.31914198346679246,-0.32033312276646897,0.796283649651729,5.701134950204315,1.9654531073415795,-6.318093402767289,tremor
326,4145106,2.044,-0.31977262182749194,-0.3199991442757057,0.7978370672684426,5.7387591008516985,1.2363260987844895,-6.113586063812903,tremor
327,4145111,2.049,-0.32044728305401143,-0.3194790301085207,0.7995425859176152,5.764987206318124,0.555318610826941,-5.903196870899324,tremor
328,4145116,2.054,-0.32116050860011397,-0.318778190176972,0.8013912938934545,5.779708437360555,-0.07600702244898062,-5.6884371865248315,tremor
329,4145121,2.059,-0.3219063971691937,-0.31790395337240973,0.8033732553077076,5.7829223578526765,-0.6566304673053482,-5.470972107688866,tremor
330,4145126,2.064,-0.32267880532419824,-0.3168654643368355,0.8054774583089936,5.774738328526081,-1.1860620909948205,-5.252605233910191,tremor
331,4145130,2.068,-0.3234715431819606,-0.31567354702450645,0.8076917928503728,5.755372496592515,-1.6643235817633089,-5.03525823058155,tremor
332,4145135,2.073,-0.3242785574711574,-0.31434053797118244,0.8100030624779059,5.7251424657596734,-2.0919213650134725,-4.820945539232909,tremor
333,4145140,2.078,-0.3250940951220229,-0.31288009307408476,0.8123970330449223,5.684459815910085,-2.4698138947495467,-4.611744804383558,tremor
334,4145145,2.083,-0.3259128417741027,-0.3113069725056132,0.8148585194984568,5.633820711021932,-2.7993740615026357,-4.409763781165802,tremor
335,4145177,2.115,-0.32673003102434495,-0.3096368091312994,0.817371510013466,5.573794899002566,-3.082348053901495,-4.217104653340008,tremor
336,4145182,2.12,-0.3275415217731493,-0.30788586645182076,0.8199193248574278,5.505013464979972,-3.3208120187373154,-4.035826821476444,tremor
337,4145186,2.124,-0.3283438425398564,-0.30607079257504516,0.8224848055779899,5.428155740571275,-3.5171277745763216,-3.8679093026039126,tremor
338,4145191,2.129,-0.32913420300361157,-0.3042083769425983,0.8250505285809718,5.343935783888233,-3.673898659483445,-3.7152138982685474,tremor
339,4145196,2.134,-0.329910474216201,-0.3023153163912411,0.8275990360514871,5.25308882574422,-3.7939263713882765,-3.579450233060181,tremor
340,4145201,2.139,-0.33067113992968267,-0.3004079965981581,0.8301130765325616,5.156358037913301,-3.8801694368518396,-3.462143657795885,tremor
341,4145206,2.144,-0.33141522232765486,-0.29850229409789475,0.8325758472878224,5.054481935740175,-3.9357037521411837,-3.3646068783255147,tremor
342,4145211,2.149,-0.33214218619108715,-0.2966134029641793,0.8349712307643335,4.948182689958225,-3.9636854855184587,-3.287916031560696,tremor
343,4145215,2.153,-0.33285182618672354,-0.29475568901996363,0.8372840179594772,4.838155592310794,-3.9673165020547247,-3.2328917899105734,tremor
344,4145220,2.158,-0.33354414252597675,-0.29294257315832,0.839500112215269,4.725059891653556,-3.9498123618859684,-3.200085929837414,tremor
345,4145225,2.163,-0.33421921067111937,-0.2911864440966568,0.8416067078640883,4.609511183918872,-3.914372845440829,-3.1897736430250956,tremor
346,4145230,2.168,-0.3348770510189296,-0.2894985997067909,0.8435924391940443,4.492075493024657,-3.8641548767466958,-3.2019516951578555,tremor
347,4145234,2.172,-0.33551750452369855,-0.28788921501297005,0.8454474963598271,4.373265116396144,-3.8022476540018166,-3.2363423487066916,tremor
348,4145244,2.182,-0.3361401199918916,-0.28636733406842185,0.8471637061072802,4.25353623010222,-3.7316497607294905,-3.292402770662895,tremor
349,4145249,2.187,-0.33674405826325354,-0.28494088223980374,0.8487345764740976,4.133288163302486,-3.655248023347269,-3.369339458201815,tremor
350,4145254,2.192,-0.3373280176812281,-0.28361669497392167,0.8501553059303114,4.012864173655877,-3.57579789989436,-3.4661270530030457,tremor
351,4145259,2.197,-0.33789018417121935,-0.28240055891139343,0.8514227586704617,3.892553498953522,-3.4959052247879288,-3.5815307963488077,tremor
352,4145264,2.202,-0.3384282079469596,-0.28129726125104054,0.8525354088964375,3.7725944336625084,-3.418009189099278,-3.714131813309275,tremor
353,4145269,2.207,-0.3389392074471585,-0.2803106435363946,0.8534932578742535,3.653178180744147,-3.3443664977910585,-3.8623544049265512,tremor
354,4145304,2.242,-0.33941979968298724,-0.27944365649108166,0.8542977282625346,3.534453250467441,-3.277036708720296,-4.024494562597164,tremor
355,4145309,2.247,-0.33986615487618993,-0.2786984131229099,0.854951540660418,3.4165302088621354,-3.217868821885645,-4.198748985816826,tremor
356,4145319,2.257,-0.3402740722120504,-0.2780762379941231,0.8554585774808386,3.299486611360988,-3.1684892577921153,-4.383243970507338,tremor
357,4145324,2.262,-0.34063907282325634,-0.2775777112625976,0.8558237391112548,3.1833719885225658,-3.130291448393017,-4.5760636288477645,tremor
358,4145329,2.267,-0.340956505792493,-0.2772027067837599,0.8560527969064822,3.068212779854947,-3.104427356111396,-4.7752769933524615,tremor
359,4145339,2.277,-0.34122166294777256,-0.27695042418493426,0.8561522469459741,2.9540171384223646,-3.091801310275578,-4.9789636418054375,tremor
360,4145343,2.281,-0.34142989839843796,-0.27681941535694754,0.8561291677861169,2.8407795519216,-3.093066578036909,-5.185237553582053,tremor
361,4145348,2.286,-0.3415767490065237,-0.27680760623780276,0.8559910847418044,2.7284852435283544,-3.108625056538807,-5.392268972800829,tremor
362,4145353,2.291,-0.3416580522464346,-0.2769123150823891,0.8557458426042976,2.6171143266819956,-3.138630389632536,-5.598304111373622,tremor
363,4145358,2.296,-0.34167005816407864,-0.2771302686190719,0.8554014881753503,2.506645691947303,-3.1829946892759646,-5.801682576220635,tremor
364,4145363,2.301,-0.34160953242056985,-0.2774576175954595,0.8549661635752177,2.3970606024474117,-3.2413988955756685,-6.000852449650023,tremor
365,4145367,2.305,-0.34147384771957817,-0.27788995322564464,0.8544480109506651,2.2883459691990216,-3.3133066568314087,-6.1943829903554555,tremor
366,4145372,2.31,-0.3412610612916369,-0.2784223259861118,0.8538550889467126,2.1804972712193416,-3.397981466575316,-6.380974955613595,tremor
367,4145377,2.315,-0.3409699765536167,-0.2790492680819477,0.853195301090422,2.0735210797880943,-3.4945066710063686,-6.559468574308734,tremor
368,4145382,2.32,-0.34060018757584154,-0.27976482073052694,0.8524763360468012,1.9674371441507443,-3.601807866630716,-6.72884922650949,tremor
369,4145387,2.325,-0.34015210556067776,-0.2805625671947767,0.8517056195291868,1.862279999350312,-3.7186771482926737,-6.888250909518302,tremor
370,4145391,2.329,-0.3396269671433529,-0.28143567224771143,0.8508902774657284,1.7581000667477706,-3.843798641119076,-7.036957593354077,tremor
371,4145418,2.356,-0.33902682493916875,-0.2823769284671222,0.8500371098301576,1.6549642335669081,-3.975774752187532,-7.174402590673836,tremor
372,4145423,2.361,-0.3383545213447766,-0.2833788094471938,0.8491525743355632,1.5529559174996406,-4.113152602982634,-7.300166086911108,tremor
373,4145428,2.366,-0.3376136471112824,-0.2844335296799857,0.8482427789717746,1.452174642586507,-4.254450144209937,-7.413970995322804,tremor
374,4145432,2.37,-0.33680848659963736,-0.2855331105194162,0.8473134821596335,1.352735168795608,-4.398181501948114,-7.515677317656353,tremor
375,4145442,2.38,-0.3359439518759618,-0.28666945131484917,0.8463700991245312,1.2547662268309097,-4.542881151776162,-7.605275203043965,tremor
376,4145447,2.385,-0.3350255079078085,-0.28783440451259956,0.8454177129791047,1.158408912149174,-4.687126562724031,-7.682876904720452,tremor
377,4145452,2.39,-0.3340590911089579,-0.28901985329143365,0.8444610889645284,1.0638147909919913,-4.829558997368171,-7.74870783598701,tremor
378,4145457,2.395,-0.3330510233848722,-0.29021779013927307,0.8435046903372092,0.9711437690713202,-4.968902201951493,-7.803096923362771,tremor
379,4145462,2.4,-0.3320079236820873,-0.29142039470366354,0.8425526945020003,0.8805617712385642,-5.103978773395741,-7.846466446041395,tremor
380,4145466,2.404,-0.3309366188618758,-0.29262010925886384,0.8416090081769048,0.7922382779506257,-5.233724047427307,-7.8793215368450475,tremor
381,4145481,2.419,-0.3298440555134212,-0.2938097102184417,0.8406772806153227,0.7063437616013375,-5.35719741021245,-7.902239501245491,tremor
382,4145486,2.424,-0.32873721410218587,-0.29498237426940205,0.8397609141945142,0.6230470630968397,-5.473590990785305,-7.915859088598645,tremor
383,4145491,2.429,-0.3276230266218103,-0.29613173789590697,0.8388630719832838,0.5425127471763436,-5.582235739652825,-7.920869825940727,tremor
384,4145496,2.434,-0.32650829869094866,-0.2972519492813632,0.8379866822033711,0.46489847492590575,-5.682604938086754,-7.9180015033904425,tremor
385,4145506,2.444,-0.3253996368203344,-0.29833771181196184,0.8371344397721618,0.3903524337556068,-5.7743152122970365,-7.908013884480872,tremor
386,4145510,2.448,-0.32430338138162323,-0.2993843186402502,0.8363088053388059,0.31901086715959176,-5.857125148130649,-7.891686704758356,tremor
387,4145515,2.453,-0.323225545649516,-0.30038767799518523,0.8355120023887733,0.25099574673424463,-5.930931618071323,-7.869810015324294,tremor
388,4145541,2.479,-0.3221717611718875,-0.3013443291399252,0.8347460130861384,0.18641262644366294,-5.995763947673875,-7.843174922126198,tremor
389,4145546,2.484,-0.3211472296535185,-0.3022514490774002,0.8340125735468414,0.12534871500838454,-6.051776068129722,-7.812564766219456,tremor
390,4145551,2.489,-0.3201566815120981,-0.30310685028455375,0.8333131691964515,0.0678711982820961,-6.099236829062153,-7.778746786421675,tremor
391,4145556,2.494,-0.31920434126401975,-0.30390896991691946,0.832649030778199,0.01402584065801484,-6.138518681744564,-7.742464305199697,tremor
392,4145560,2.498,-0.31829389990045226,-0.30465685106345364,0.8320211314621379,-0.03616410733129876,-6.170084984553539,-7.7044294806894875,tremor
393,4145565,2.503,-0.3174284944029705,-0.3053501167456685,0.8314301853845839,-0.08269867016828124,-6.194476222500515,-7.665316670050871,tremor
394,4145570,2.508,-0.31661069451249724,-0.30598893744493105,0.830876647834473,-0.12560155570143328,-6.212295462922042,-7.6257564496838715,tremor
395,4145575,2.513,-0.3158424968024786,-0.30657399300817106,0.8303607172108589,-0.16492019446460962,-6.224193384199415,-7.586330335929466,tremor
396,4145590,2.528,-0.3151253260189432,-0.3071064298264002,0.8298823388097448,-0.20072540058141197,-6.230853211964446,-7.547566247284401,tremor
397,4145594,2.532,-0.31446004354220153,-0.30758781420372416,0.829441210461027,-0.23311065245843676,-6.232975878790843,-7.509934747449833,tremor
398,4145599,2.537,-0.31384696270756424,-0.30802008283829396,0.829036790025271,-0.2621909989666958,-6.231265691866125,-7.473846107858842,tremor
399,4145604,2.542,-0.31328587060919744,-0.3084054913225203,0.828668304768631,-0.2881016037154125,-6.226416753251466,-7.439648227370112,tremor
400,4145614,2.552,-0.3127760559155593,-0.3087465615401272,0.8283347626527204,-0.31099594644564854,-6.21910033533744,-7.407625444062097,tremor
401,4145619,2.557,-0.3123163421555232,-0.3090460287952892,0.828034965594466,-0.33104370708108394,-6.209953376781335,-7.377998269166498,tremor
402,4145624,2.562,-0.31190512589318065,-0.309306789457654,0.827767524760147,-0.34842836503523184,-6.199568236822031,-7.350924066363515,tremor
403,4145628,2.566,-0.31154041919218206,-0.3095318498497769,0.8275308779513839,-0.36334455390458503,-6.188483830360747,-7.32649869013239,tremor
404,4145633,2.571,-0.3112198957688058,-0.3097242770430392,0.8273233091151423,-0.3759952190702879,-6.177178260914729,-7.304759083502681,tremor
405,4145638,2.576,-0.31094094023616403,-0.3098871521662991,0.8271429699646843,-0.38658863229484797,-6.166063069587558,-7.285686818938907,tremor
406,4145663,2.601,-0.3107006998398406,-0.3100235267693747,0.8269879036363432,-0.39533532279205275,-6.155479221125133,-7.269212548153721,tremor
407,4145668,2.606,-0.31049613807007453,-0.3101363827214434,0.8268560702318299,-0.40244498839472914,-6.145694948215018,-7.255221308765245,tremor
