sample,t_ms,t_s,ax,ay,az,gx,gy,gz,tremor
0,4110808,0.0,-0.5573899135686543,-0.29437965240825864,0.6605653508071376,-0.5726136356998867,3.4854251595697052,0.402973759679325,tremor
1,4110834,0.026,-0.5590754702645017,-0.2946465673897831,0.6593619806959788,-0.6925757369363321,5.794462510719782,0.2767230004968913,tremor
2,4110844,0.036,-0.5613507079899918,-0.2950139808909078,0.6576814196951718,-0.7774513116498404,7.775033845042234,0.1334682962114925,tremor
3,4110849,0.041,-0.564230142267836,-0.29548923055147575,0.6554774886358784,-0.8261987306155604,9.41349504733801,-0.026427342643600502,tremor
4,4110854,0.046,-0.5676099677746935,-0.2960609786269697,0.6527916938048154,-0.8380491103786308,10.698967254617335,-0.20243667494092601,tremor
5,4110858,0.05,-0.5713305320568539,-0.2967082124569308,0.6497156432719818,-0.8125227993892531,11.623543331559764,-0.3938649976065465,tremor
6,4110863,0.055,-0.5752297344984739,-0.2974084815297876,0.6463541003315351,-0.7494435623363174,12.182470390784548,-0.5998485100419386,tremor
7,4110868,0.06,-0.579169366996753,-0.29814222895570686,0.6428043305591327,-0.6489502041258634,12.374305093590982,-0.8193543868769936,tremor
8,4110873,0.065,-0.5830416951483924,-0.2988940901866243,0.6391489455470605,-0.5115053918027264,12.201038647629757,-1.0511826577346055,tremor
9,4110878,0.07,-0.58676650500995,-0.29965264109228334,0.6354560120878588,-0.3379014502140933,11.668188627683433,-1.2939699778601228,tremor
10,4110883,0.075,-0.5902852769760887,-0.3004096170595834,0.6317818662711637,-0.12926292637490908,10.784854986154226,-1.5461953569855147,tremor
11,4110888,0.08,-0.5935555701925788,-0.3011591018166312,0.6281742923449075,0.11295426019419615,9.563737892399777,-1.8061878949954433,tremor
12,4110892,0.084,-0.5965466068430845,-0.3018968626497435,0.6246751689789605,0.3869672376847811,8.021115346033877,-2.072136551490326,tremor
13,4110897,0.089,-0.5992361179254011,-0.3026198588059486,0.6213223896160222,0.6906742992877662,6.176778850337605,-2.342101952385719,tremor
14,4110902,0.094,-0.6016082063304665,-0.3033258961054979,0.6181511351139721,1.0216668100140072,4.053925810201227,-2.614030210714913,tremor
15,4110907,0.099,-0.603651942073374,-0.30401338990564264,0.6151946466756459,1.3772449563180833,1.6790077378901933,-2.8857687107643324,tremor
16,4110911,0.103,-0.6053604518751758,-0.3046812031242977,0.61248463927755,1.754437346066974,-0.9184661859947566,-3.1550837737801256,tremor
17,4110916,0.108,-0.6067303282118083,-0.30532853422698786,0.6100514662442592,2.150024413003975,-3.7061701348495806,-3.419680089090559,tremor
18,4110921,0.113,-0.6077612370415696,-0.30595483763988424,0.607924115656708,2.560565517911525,-6.649246612936379,-3.6772217569141628,tremor
19,4110926,0.118,-0.6084556437260118,-0.30655976488381387,0.606130095299083,2.982429567895004,-9.710634139026796,-3.925354749374958,tremor
20,4110958,0.15,-0.6088186047392043,-0.3071431188806023,0.6046952454675985,3.411828896875813,-12.85143572550067,-4.161730555224621,tremor
21,4110962,0.154,-0.6088575916477317,-0.30770481672597116,0.6036435070256837,3.8448560685902056,-16.031325547267972,-4.384030732190354,tremor
22,4110967,0.159,-0.6085823263143484,-0.30824485812224683,0.6029966641529668,4.277523186246412,-19.20899049031019,-4.589992049931245,tremor
23,4110972,0.164,-0.6080046144404294,-0.30876329791043355,0.6027740760585617,4.705803230872926,-22.342602577230494,-4.777431868373678,tremor
24,4110977,0.169,-0.6071381698911973,-0.309260221941511,0.6029924085734454,5.125672909604704,-25.390317600370913,-4.944273363118239,tremor
25,4110982,0.174,-0.6059984257339206,-0.3097357260225093,0.6036653743465857,5.533156473153423,-28.310794650834616,-5.088570183592606,tremor
26,4110987,0.179,-0.6046023302164448,-0.3101898979602377,0.6048034889141387,5.924369949882979,-31.063730607749203,-5.20853011201086,tremor
27,4110992,0.184,-0.6029681274502122,-0.3106228028702647,0.6064138489136728,6.295565233572783,-33.610403048149955,-5.302537283337089,tremor
28,4110997,0.189,-0.6011151236193032,-0.31103447196624,0.6084999379947766,6.643173446956692,-35.91421446996185,-5.369172529943668,tremor
29,4111002,0.194,-0.5990634402987434,-0.3114248950270731,0.6110614654126549,6.9638469802710095,-37.94123021580794,-5.407231430753859,tremor
30,4111006,0.198,-0.5968337570502479,-0.3117940166806683,0.6140942418020767,7.254499574194503,-39.66070207358849,-5.415739673613736,tremor
31,4111011,0.203,-0.5944470459458411,-0.31214173656147043,0.6175900961619618,7.512343785206708,-41.04556923585074,-5.393965380849926,tremor
32,4111016,0.208,-0.5919243010911761,-0.31246791331016605,0.6215368375997805,7.734925146690457,-42.072928142327655,-5.34142810027937,tremor
33,4111021,0.213,-0.5892862665976538,-0.31277237229969146,0.6259182648649508,7.920152328731354,-42.72446272312566,-5.25790422511868,tremor
34,4111026,0.218,-0.5865531667828372,-0.31305491690060466,0.6307142261248465,8.066322609093051,-42.98682671549848,-5.143428672398891,tremor
35,4111031,0.223,-0.5837444426461014,-0.3133153430443165,0.6359007307950415,8.17214200141864,-42.851970053492295,-4.998292715858907,tremor
36,4111036,0.228,-0.5808784988486073,-0.31355345680289315,0.6414501145199829,8.236739448199911,-42.317401833162144,-4.823037932183031,tremor
37,4111041,0.233,-0.5779724655002703,-0.3137690946730375,0.6473312576070784,8.259674578787202,-41.386383039370735,-4.618446277319056,tremor
38,4111046,0.238,-0.575041978999917,-0.3139621462203079,0.6535098563443996,8.240938657579468,-40.06804307790218,-4.385526362250663,tremor
39,4111050,0.242,-0.5721009859696735,-0.3141325786968143,0.6599487456811518,8.18094850114635,-38.37741517197002,-4.125496044989407,tremor
40,4111055,0.247,-0.5691615739573185,-0.31428046318078023,0.6666082707262776,8.08053331777914,-36.335386831749524,-3.839761497854907,tremor
41,4111082,0.274,-0.5662338320476118,-0.3144060016915927,0.6734467034361563,7.940914608899868,-33.96856286591469,-3.529892947129775,tremor
42,4111087,0.279,-0.5633257438398289,-0.31450955460895436,0.6804206997446824,7.763679457481736,-31.309039752230394,-3.197597317509278,tremor
43,4111092,0.284,-0.5604431144530808,-0.3145916675824711,0.6874857912960011,7.550747700194499,-28.394091592336835,-2.844688048819605,tremor
44,4111097,0.289,-0.5575895323776761,-0.3146530969864008,0.6945969049622588,7.304333622499457,-25.265769310067252,-2.4730523903028794,tremor
45,4111101,0.293,-0.5547663661758,-0.3146948328874833,0.7017089025562762,7.026902920632853,-21.9704161799904,-2.084616521148967,tremor
46,4111111,0.303,-0.5519727953143353,-0.3147181184772462,0.7087771326290655,6.72112574350334,-18.55810417032481,-1.6813088958880102,tremor
47,4111116,0.308,-0.5492058738287102,-0.3147244649826921,0.7157579859695581,6.389826669384529,-15.08199693799797,-1.265022267944632,tremor
48,4111121,0.313,-0.546460625086671,-0.31471566120604655,0.7226094463674619,6.0359324935068415,-11.597646609325112,-0.8375749000284053,tremor
49,4111126,0.318,-0.5437301656436025,-0.31469377704345963,0.729291628325388,5.66241870616354,-8.16223269955991,-0.40067152157119895,tremor
50,4111131,0.323,-0.5410058560401657,-0.3146611605786043,0.7357672936794256,5.2722555295007805,-4.8337526533603965,0.04413536209408952,tremor
51,4111135,0.327,-0.5382774763584588,-0.31462042862145567,0.7420023394714407,4.868354359648191,-1.670174519266405,0.49548316792787583,tremor
52,4111140,0.332,-0.5355334243832307,-0.31457445084442565,0.7479662498730352,4.453515434802569,1.2714367985738382,0.9522352715373209,tremor
53,4111145,0.337,-0.532760934262404,-0.3145263279360579,0.7536325054556356,4.03037752288624,3.935807445327999,1.4135146906557192,tremor
54,4111150,0.342,-0.5299463135797433,-0.31447936442684343,0.758978943607783,3.6013703950711404,6.2703437056942875,1.8787347084116157,tremor
55,4111154,0.346,-0.5270751967028321,-0.3144370370265293,0.7639880644050314,3.168670822109499,8.226008733562537,2.3476257194696504,tremor
56,4111159,0.351,-0.5241328121240939,-0.3144029594366989,0.7686472767375795,2.734162796535692,9.758172949734735,2.8202575840548954,tremor
57,4111164,0.356,-0.5211042612568997,-0.3143808446602465,0.7729490800047549,2.299402643175667,10.827423886835668,3.2970567960401334,tremor
58,4111169,0.361,-0.5179748057817581,-0.3143744658185665,0.7768911772118948,1.8655896309134516,11.400321224270943,3.7788178188980512,tremor
59,4111174,0.366,-0.5147301601718098,-0.31438761640949703,0.7804765158783362,1.4335426374845999,11.450082972345923,4.266708019511835,tremor
60,4111178,0.37,-0.5113567854882619,-0.31442407079953316,0.7837132538118798,1.003683342488964,10.957189259415655,4.762265729586726,tremor
61,4111206,0.398,-0.5078421799641607,-0.31448754555161684,0.7866146475510898,0.5760263280332946,9.909890955972758,5.267391078265613,tremor
62,4111211,0.403,-0.5041751613476304,-0.314581661960505,0.7891988621455873,0.15017634841576838,8.304611442921418,5.784329359481461,tremor
63,4111216,0.408,-0.5003461355439853,-0.3147099099290056,0.7914887019554512,-0.274667110921799,6.146231234531626,6.315646822227815,tremor
64,4111220,0.412,-0.49634734589734436,-0.3148756131107565,0.7935112633123348,-0.699698025335251,3.448246947399728,6.864198906890569,tremor
65,4111225,0.417,-0.4921730975858034,-0.3150818951088954,0.7952975111831458,-1.1264849816256053,0.2327982581395019,7.4330911023251565,tremor
66,4111230,0.422,-0.48781995209752516,-0.31533164647536377,0.796881783371857,-1.5569456525639218,-3.4694410774482316,8.02563276666785,tremor
67,4111235,0.427,-0.4832868875582268,-0.31562749229629916,0.7983012272295404,-1.993315092675523,-7.619509486198315,8.645284433527175,tremor
68,4111240,0.432,-0.47857542170566325,-0.3159717602505966,0.7995951752597026,-2.438108453900569,-12.170539817340247,9.295599304579522,tremor
69,4111245,0.437,-0.47368969546653494,-0.3163664491609632,0.8008044673570276,-2.8940787914950064,-17.06827361423336,9.98015979854069,tremor
70,4111250,0.442,-0.46863651631217823,-0.3168131981902452,0.801970728664715,-3.36417067603916,-22.25170089210521,10.702510172550328,tremor
71,4111255,0.447,-0.4634253617902247,-0.3173132569449464,0.803135613149147,-3.8514703498385523,-27.65381644274941,11.466086342693583,tremor
72,4111260,0.452,-0.45806834479717723,-0.3178674568130397,0.804340023947976,-4.359153170889844,-33.20248142160464,12.274144095791653,tremor
73,4111265,0.457,-0.4525801432222875,-0.3184761838727632,0.8056233223338032,-4.890429083761914,-38.82137695379858,13.129686900887338,tremor
74,4111270,0.462,-0.446977897508198,-0.3191393536615287,0.8070225377432995,-5.448486852589263,-44.43103478952748,14.035394501151293,tremor
75,4111274,0.466,-0.44128108039406283,-0.3198563879986963,0.8085715917488144,-6.036437790747433,-49.94992871119138,14.993553409007369,tremor
76,4111279,0.471,-0.4355113435957546,-0.3206261939312971,0.8103005490933203,-6.657259723784204,-55.29560948424051,16.005990357319266,tremor
77,4111284,0.476,-0.4296923464071349,-0.3214471447420131,0.8122349089603073,-7.313741923620415,-60.38586564594855,17.074009694629897,tremor
78,4111289,0.481,-0.42384957115190075,-0.32231706285026585,0.8143949494876318,-8.008431749367027,-65.1398923039338,18.19833566509998,tremor
79,4111294,0.486,-0.41801013005245286,-0.32323320437587666,0.8167951381283172,-8.74358372032437,-69.47945032187161,19.379060490415547,tremor
80,4111299,0.491,-0.41220256738782135,-0.32419224514217176,0.819443619780749,-9.521111728242913,-73.32999875605267,20.615599172087613,tremor
81,4111304,0.496,-0.40645665977767526,-0.3251902679845879,0.8223417936336254,-10.342545069109846,-76.62178412376926,21.906651953243795,tremor
82,4111331,0.523,-0.40080321607514285,-0.3262227514016485,0.8254839883895743,-11.208988941066083,-79.29087097893343,23.250175408183104,tremor
83,4111336,0.528,-0.39527387675775216,-0.3272845598215133,0.8288572439549065,-12.121090015548264,-81.28009928510306,24.643363144911262,tremor
84,4111341,0.533,-0.38990091105493085,-0.32836993602554304,0.8324412058469836,-13.079007642829804,-82.53995516054627,26.082637076059076,tremor
85,4111345,0.537,-0.38471700863321867,-0.3294724965239136,0.836208136544351,-14.082391197565041,-83.02934269641607,27.563650097651344,tremor
86,4111350,0.542,-0.3797550617873405,-0.330585230873586,0.8401230458816188,-15.130363997941481,-82.7162457283244,29.081300794577714,tremor
87,4111355,0.547,-0.37504793395144675,-0.3317005060429471,0.844143940463532,-16.221514135871185,-81.5782697186832,30.62976048533725,tremor
88,4111360,0.552,-0.37062821097473836,-0.33281007696107523,0.8482221900122502,-17.353892432776348,-79.60305533487438,32.20251257052588,tremor
89,4111365,0.557,-0.36652793289985053,-0.3339051043565393,0.8523030066166183,-18.525017592294105,-76.78855692207242,33.792403803538114,tremor
90,4111370,0.562,-0.362778305776803,-0.33497618090626713,0.8563260310531403,-19.73188846954393,-73.14318088368049,35.3917067902562,tremor
91,4111374,0.566,-0.35940939514056564,-0.33601336659235037,0.8602260187127223,-20.971003227718608,-68.68578099722507,36.99219276759548,tremor
92,4111379,0.571,-0.35644980496092243,-0.33700623401422475,0.8639336161990077,-22.23838501472338,-63.44550989603519,38.585213518337575,tremor
93,4111384,0.576,-0.35392634792898925,-0.33794392423377956,0.867376218356493,-23.529613671599606,-57.4615283037727,40.1617911503316,tremor
94,4111389,0.581,-0.3518637146838186,-0.33881521354753447,0.8704788943275052,-24.839862886146108,-50.78257606239429,41.71271439079343,tremor
95,4111394,0.586,-0.3502841508400867,-0.3396085913863642,0.8731653702142665,-26.163942134141582,-43.466411464746486,43.2286400041405,tremor
96,4111399,0.591,-0.3492071513264448,-0.34031234933985727,0.8753590550272342,-27.496342709393094,-35.57912779414923,44.70019791697692,tremor
97,4111403,0.595,-0.34864918150591284,-0.34091468108714235,0.876984095832804,-28.831287130992248,-27.1943581826782,46.11809861305344,tremor
98,4111408,0.6,-0.34862343380481436,-0.3414037927847678,0.8779664473839952,-30.162781224751555,-18.39238183800031,47.47324133822357,tremor
99,4111413,0.605,-0.3491396271667423,-0.3417680232099146,0.8782349410560905,-31.484668196040758,-9.259146292497826,48.756821632927995,tremor
100,4111418,0.61,-0.3502038546767223,-0.34199597267954157,0.8777223376620981,-32.790684036400954,0.11477844222310174,49.96043669602312,tremor
101,4111423,0.615,-0.3518184823333183,-0.34207663946164363,0.8763663487446183,-34.074513635626545,9.63529710563385,51.076187088147535,tremor
102,4111428,0.62,-0.35398209940118036,-0.3419995620675649,0.8741106112774681,-35.32984700645401,19.20592068970923,52.096773310366146,tremor
103,4111454,0.646,-0.3566895183054827,-0.3417549654751541,0.870905601388191,-36.55043507002107,28.728915130420905,53.015585844121055,tremor
104,4111459,0.651,-0.35993181990498263,-0.3413339090013436,0.8667094737276368,-37.73014449105213,38.106450588361845,53.82678730869142,tremor
105,4111464,0.656,-0.36369643849439504,-0.34072843325011926,0.8614888144203849,-38.86301108208469,47.24173564358361,54.525385481055295,tremor
106,4111469,0.661,-0.3679672803101915,-0.3399317033448174,0.8552192970419331,-39.94329130645404,56.04012204909844,55.10729603092137,tremor
107,4111474,0.666,-0.37272486976983765,-0.3389381455399217,0.8478862326782511,-40.9655113991623,64.41016726448537,55.56939395085088,tremor
108,4111479,0.671,-0.3779465190286529,-0.3377435743002291,0.8394850067437725,-41.92451360360509,72.26464363714683,55.90955280643864,tremor
109,4111484,0.676,-0.38360651834177356,-0.3363453070148026,0.8300213968204858,-42.81549900591484,79.52148465186873,56.12667109381895,tremor
110,4111488,0.68,-0.3896763467605145,-0.3347422636526866,0.8195117673239596,-43.63406644897571,86.10466004525198,56.22068517220164,tremor
111,4111493,0.685,-0.39612490452040494,-0.3329350488460077,0.8079831383106117,-44.37624702970238,91.94497276483212,56.19256843781715,tremor
112,4111498,0.69,-0.4029187698342284,-0.3309260140929443,0.7954731272290004,-45.03853372737162,96.98077176098339,56.044316619977835,tremor
113,4111503,0.695,-0.41002248351880755,-0.3287192980067168,0.7820297639000089,-45.61790578021121,101.1585754591457,55.778919305523296,tremor
114,4111508,0.7,-0.41739886486943856,-0.32632084280325985,0.7677111804947843,-46.11184752611877,104.43360149711815,55.40031803037936,tremor
115,4111513,0.705,-0.42500936143460927,-0.3237383855300307,0.7525851797662889,-46.51836155328203,106.77019895333504,54.91335151304428,tremor
116,4111518,0.71,-0.4328144338927092,-0.320981422902698,0.7367286862743498,-46.83597616434136,108.14217986276006,54.323688841260434,tremor
117,4111523,0.715,-0.440773975217221,-0.318061149044373,0.7202270868122745,-47.06374733318283,108.53304734331894,53.637751653803655,tremor
118,4111528,0.72,-0.44884776091335754,-0.31499036591887447,0.7031734676748637,-47.201255506437946,107.93611816729474,52.862626572721815,tremor
119,4111532,0.724,-0.4569959245181349,-0.3117833668152941,0.6856677577724821,-47.24859774354039,106.35453814356012,52.00596932217135,tremor
120,4111537,0.729,-0.4651794499847526,-0.30845579386891775,0.6678157878501124,-47.2063757728706,103.80118926362248,51.075902105743374,tremor
121,4111542,0.734,-0.47336067022722195,-0.3050244712775864,0.6497282771584207,-47.07568055562546,100.2984882375309,50.08090590246044,tremor
122,4111547,0.739,-0.4815037591764224,-0.30150721656776047,0.6315197597890241,-46.85807389881155,95.87807682850381,49.02970939219546,tremor
123,4111552,0.744,-0.4895752033494496,-0.29792263294903576,0.613307463486259,-46.55556755482169,90.58040531055616,47.93117625082786,tremor
124,4111584,0.776,-0.4975442382541518,-0.2942898864349767,0.5952101540655441,-46.17060009558706,84.45421145257693,46.79419257795464,tremor
125,4111588,0.78,-0.5053832349840454,-0.29062847196355635,0.577346958614059,-45.706011666388086,77.55589872696255,45.627556234703896,tremor
126,4111593,0.785,-0.5130680231379555,-0.28695797317369093,0.5598361804618806,-45.165016537285204,69.94881902326065,44.439869851981776,tremor
127,4111598,0.79,-0.5205781377595502,-0.2832978207296305,0.5427941185581336,-44.55117322507552,61.7024670570443,43.239439181457776,tremor
128,4111603,0.795,-0.5278969803322195,-0.27966705409440834,0.5263339034518062,-43.868351897025605,52.891595818745614,42.034178279444426,tremor
129,4111608,0.8,-0.535011886893432,-0.27608409144338997,0.5105643616423652,-43.12069880341647,43.595264587421816,40.831522752233184,tremor
130,4111613,0.805,-0.5419140998743155,-0.272566512025636,0.49558891969168206,-42.312597606926374,33.89583299445965,39.63835199125063,tremor
131,4111618,0.81,-0.5485986441114649,-0.2691308547831142,0.48150455920754204,-41.448627660107334,23.877916200299317,38.460921026979435,tremor
132,4111623,0.815,-0.5550641113974334,-0.2657924364756695,0.4684008336226248,-40.533519503495214,13.627317371903438,37.304802356940485,tremor
133,4111628,0.82,-0.5613123617067811,-0.2625651919702326,0.45635895757710954,-39.572108091952174,3.229954288497961,36.17483786827176,tremor
134,4111632,0.824,-0.5673481526289211,-0.25946153876367484,0.4454509796209532,-38.56928448077669,-7.229202956448078,35.07510078585984,tremor
135,4111637,0.829,-0.5731787113498844,-0.2564922672404771,0.4357390488188013,-37.529946890411125,-17.66716653780801,34.00886743469125,tremor
136,4111642,0.834,-0.5788132655813211,-0.2536664576329068,0.42727478559046467,-36.458952194251985,-28.00392194376581,32.97859850834995,tremor
137,4111647,0.839,-0.5842625510083322,-0.25099142416004505,0.42009876667178103,-35.36106891783855,-38.16336083900043,31.985929479430325,tremor
138,4111652,0.844,-0.5895383130370419,-0.248472686373377,0.41424013335403714,-34.24093279104098,-48.07414257383969,31.03166976764481,tremor
139,4111657,0.849,-0.5946528198404403,-0.24611396732486873,0.4097163310844333,-33.103005766173105,-57.67047283314133,30.115810297470123,tremor
140,4111661,0.853,-0.5996184019585367,-0.24391721778725442,0.40653298704056157,-31.9515392275758,-66.89278967674215,29.237539131157703,tremor
141,4111666,0.858,-0.6044470311031206,-0.2418826653819068,0.4046839304256866,-30.790541902709855,-75.68834897726988,28.395264950800847,tremor
142,4111671,0.863,-0.6091499475155316,-0.24000888709556814,0.4041513580125915,-29.623752770585288,-84.0117029234414,27.586648268268227,tremor
143,4111676,0.868,-0.6137373414615579,-0.2382929032889702,0.40490614497359306,-28.454619073790322,-91.82506675413592,26.80864033419761,tremor
144,4111703,0.895,-0.6182180905111628,-0.2367302909248595,0.4069082983802789,-27.286279392756594,-99.09857017242761,26.057529760116786,tremor
145,4111708,0.9,-0.6225995505031513,-0.2353153133936643,0.4101075480682597,-26.121551647756057,-105.81039095688185,25.32899683137936,tremor
146,4111713,0.905,-0.6268873950087922,-0.234041064038097,0.414444066996759,-24.962925858590495,-111.94676921158535,24.61817536557528,tremor
147,4111718,0.91,-0.6310854962203603,-0.23289962033481926,0.4198493109567504,-23.81256150002255,-117.50190162628485,23.919721780833022,tremor
148,4111723,0.915,-0.6351958398719154,-0.23188220572767163,0.4262469656085893,-22.672289315470046,-122.47771621897256,23.22789081602071,tremor
149,4111727,0.919,-0.639218468019474,-0.2309793563208128,0.43355398736259293,-21.543617468222838,-126.88352940023384,22.53661712439196,tremor
150,4111742,0.934,-0.6431514458443754,-0.2301810899809792,0.4416817234539857,-20.42774190806692,-130.73558883666064,21.83960176730276,tremor
151,4111746,0.938,-0.6469908514909999,-0.2294770757926958,0.45053709557371785,-19.32556081126303,-134.05650746250132,21.130402477955585,tremor
152,4111751,0.943,-0.6507307906741495,-0.22885680218485438,0.4600238304943799,-18.23769291539128,-136.8745960534432,20.402526452552586,tremor
153,4111756,0.948,-0.654363439802647,-0.22830974233944348,0.47004372022935326,-17.164499520639673,-139.22310398820397,19.64952435944035,tremor
154,4111761,0.953,-0.6578791222282482,-0.22782551566438916,0.480497893399515,-16.10610987128201,-141.13938012264722,18.865084233075724,tremor
155,4111766,0.958,-0.6612664217823255,-0.2273940441546249,0.49128807872161295,-15.062449572730037,-142.66396801329097,18.04312393273255,tremor
156,4111776,0.968,-0.6645123361216603,-0.22700570239729032,0.502317840973174,-14.033271646088169,-143.83965195977117,17.177880890341278,tremor
157,4111780,0.972,-0.6676024698493346,-0.22665145983129806,0.5134937695478792,-13.018189773738376,-144.71047236578826,16.263997945627352,tremor
158,4111785,0.977,-0.6705212642624189,-0.22632301368819183,0.524726599930355,-12.016713239599612,-145.3207305880446,15.296604167962993,tremor
159,4111790,0.982,-0.6732522573047364,-0.22601291086512168,0.5359322492340901,-11.028283004968596,-145.7140045860926,14.271389685498972,tremor
160,4111795,0.987,-0.6757783642824036,-0.22571465685794306,0.5470327484608457,-10.052308276569688,-145.93219717319596,13.18467366768315,tremor
161,4111800,0.992,-0.6780821674927907,-0.225422809851551,0.5579570563565038,-9.088202820963907,-146.01463843481133,12.033464719679634,tremor
162,4111826,1.018,-0.6801462013850622,-0.22513305814978882,0.5686417425518628,-8.13542017581955,-145.99726291109098,10.815513037935844,tremor
163,4111831,1.023,-0.6819532193821399,-0.22484227933669565,0.5790315309008598,-7.193486827925798,-145.91188043141247,9.52935375235554,tremor
164,4111836,1.028,-0.683486429163168,-0.22454857988627394,0.5890796973118403,-6.262032395825476,-145.78555705121147,8.174340960811454,tremor
165,4111841,1.033,-0.6847296850758472,-0.22425131435369877,0.5987483196242996,-5.340815892791789,-145.64011943180077,6.750672063103036,tremor
166,4111845,1.037,-0.6856676293146137,-0.22395108374673914,0.6080083799825986,-4.4297472586937925,-145.49179236988735,5.259402127275581,tremor
167,4111850,1.042,-0.686285777264966,-0.223649713148191,0.6168397226163967,-3.5289035196556853,-145.35097524374027,3.7024481594691654,tremor
168,4111855,1.047,-0.6865705465549143,-0.22335020910322773,0.625230872022598,-2.638539134495761,-145.22215911594589,2.0825832807446427,tremor
169,4111860,1.052,-0.6865092334562917,-0.22305669767906788,0.6331787183917268,-1.7590902961883135,-145.1039822991111,0.40342092616323655,tremor
170,4111865,1.057,-0.6860899440123365,-0.2227743444400912,0.6406880788590428,-0.8911731657852823,-144.98941851165154,-1.3306107326571208,tremor
171,4111870,1.062,-0.6853014904024769,-0.22250925785966866,0.6477711448692437,-0.035576220563288255,-144.86608847410702,-3.114303876375304,tremor
172,4111875,1.067,-0.684133265441148,-0.2222683779156101,0.654446827652665,0.806752908547199,-144.71668302985736,-4.941715321059088,tremor
173,4111880,1.072,-0.6825751096562201,-0.2220593517969653,0.6607400154970463,1.6347255619693961,-144.51948366992988,-6.806219627323084,tremor
174,4111884,1.076,-0.6806171860619565,-0.2218903987944553,0.6666807580933145,2.4471344483627773,-144.2489647170173,-8.700570608588954,tremor
175,4111889,1.081,-0.6782498775326985,-0.2217701665629924,0.6723033946365701,3.242679521609765,-143.87646038253556,-10.61697074128476,tremor
176,4111894,1.086,-0.6754637206416089,-0.22170758103863386,0.677645643460573,4.019996492214086,-143.37087944124806,-12.547147895659792,tremor
177,4111899,1.091,-0.6722493880299446,-0.22171169236684507,0.682747671662528,4.777687121140869,-142.69945033734683,-14.482438706482736,tremor
178,4111909,1.101,-0.6685977289023692,-0.22179151925273688,0.6876511633353044,5.514350479889917,-141.82848009477397,-16.413877787485493,tremor
179,4111913,1.105,-0.6644998741829474,-0.22195589416971157,0.6923984045895799,6.228614428139071,-140.7241113968383,-18.332291862453875,tremor
180,4111918,1.11,-0.6599474092865786,-0.2222133118453141,0.6970314024724854,6.919166647302731,-139.35306355705328,-20.22839774025311,tremor
181,4111923,1.115,-0.6549326134364377,-0.2225717833581194,0.7015910531709518,7.584784663305496,-137.68334473055035,-22.092902900964116,tremor
182,4111950,1.142,-0.6494487600961607,-0.2230386980008597,0.7061163725976701,8.224364384816703,-135.68492449198354,-23.916607287453143,tremor
183,4111960,1.152,-0.6434904685887537,-0.22362069477830787,0.7106437997669811,8.836946764299704,-133.33035768562797,-25.69050472559202,tremor
184,4111965,1.157,-0.6370540927349847,-0.22432354502856844,0.7152065805588884,9.421742249317147,-130.59535207011325,-27.405882268073125,tremor
185,4111969,1.161,-0.6301381289623984,-0.22515204723526366,0.7198342368805898,9.9781527265298,-127.45927359145676,-29.054415729383546,tremor
186,4111974,1.166,-0.622743624429544,-0.22610993470937346,0.7245521241320673,10.505790674626978,-123.90558409421661,-30.62825978529422,tremor
187,4111979,1.171,-0.6148745656098097,-0.22719979652566774,0.7293810783383624,11.004495243143273,-119.92220703504147,-32.12013122420037,tremor
188,4111984,1.176,-0.6065382293978603,-0.22842301192592063,0.7343371532131759,11.474344969056746,-115.50181746091883,-33.523384198478944,tremor
189,4111989,1.181,-0.5977454817619057,-0.2297796983397918,0.7394314465777857,11.915666839089274,-110.6420532678772,-34.83207657856204,tremor
190,4111994,1.186,-0.5885110128007154,-0.23126867319478014,0.7446700148082351,12.32904141116993,-105.34564560822344,-36.04102673613096,tremor
191,4111998,1.19,-0.5788535013293551,-0.23288742975265345,0.7500538732076559,12.715303731978583,-99.62046727655054,-37.145860274387545,tremor
192,4112003,1.195,-0.5687957064100915,-0.23463212728424868,0.7555790793357602,13.075539834582756,-93.47949897362176,-38.143046393316844,tremor
193,4112008,1.2,-0.558364487206392,-0.23649759594264944,0.7612368953547083,13.411078673170252,-86.94071450497948,-39.02992373827345,tremor
194,4112013,1.205,-0.5475907558625088,-0.23847735668680806,0.7670140243891633,13.72347944926055,-80.02688718638947,-39.80471573617333,tremor
195,4112018,1.21,-0.5365093705751635,-0.2405636565236113,0.7728929147992668,14.01451440034191,-72.76532096331125,-40.46653557009503,tremor
196,4112023,1.215,-0.5251589775182006,-0.24274751916958373,0.7788521252006241,14.286147250280886,-65.1875109699273,-41.01538106922556,tremor
197,4112028,1.22,-0.5135818108155227,-0.24501881099139258,0.7848667421166341,14.540507652970081,-57.32873942300768,-41.452119888051755,tremor
198,4112033,1.225,-0.5018234594354319,-0.247366321786164,0.7909088413947818,14.779862086949432,-49.227613840653085,-41.77846541638516,tremor
199,4112037,1.229,-0.4899326088658724,-0.24977785963564816,0.7969479840266038,15.006581767795403,-40.925555575764925,-41.996943908628516,tremor
200,4112043,1.235,-0.4779607639286912,-0.25224035874536554,0.8029517368272364,15.223108226625378,-32.466247545464924,-42.11085335778665,tremor
201,4112047,1.239,-0.4659619573266746,-0.25473999889734816,0.8088862085728274,15.431917251968185,-23.895050812378415,-42.124214675541374,tremor
202,4112074,1.266,-0.453992446717204,-0.2572623349387167,0.8147165926432013,15.635481910338122,-15.258400326989511,-42.041715778937856,tremor
203,4112079,1.271,-0.4421104014791431,-0.25979243462439694,0.8204077079051458,15.836235356436697,-6.603190662142039,-41.86864922983422,tremor
204,4112084,1.276,-0.43037557905089857,-0.26231502313510935,0.8259245303757489,16.036534129920188,2.0238370711117697,-41.61084412853948,tremor
205,4112089,1.281,-0.4188489898671041,-0.2648146326762844,0.8312327089661098,16.238622625129846,10.57669579298383,-41.27459303173436,tremor
206,4112094,1.286,-0.40759254952077734,-0.2672757556816603,0.8362990591844507,16.444599419832425,19.010729272905827,-40.86657474896652,tremor
207,4112099,1.291,-0.39666871675205084,-0.2696830002438997,0.8410920290149747,16.656386156584222,27.283154271733284,-40.39377396980293,tremor
208,4112103,1.295,-0.3861401160905448,-0.2720212464325763,0.8455821313149705,16.87569967796896,35.35355756777173,-39.86339877832443,tremor
209,4112108,1.3,-0.3760691443371367,-0.2742758021156409,0.8497423370695267,17.10402811600576,43.18433805946188,-39.28279721296382,tremor
210,4112118,1.31,-0.3665175604775545,-0.2764325567710309,0.8535484238074185,17.34261161827417,50.74108492431747,-38.65937411677672,tremor
211,4112128,1.32,-0.3575460590277926,-0.2784781315742368,0.8569792735119991,17.592428350101507,57.9928837691689,-38.00050958546411,tremor
212,4112133,1.325,-0.3492138272041826,-0.2804000238059632,0.8600171145565535,17.854186334309354,64.91254386233193,-37.31348034673383,tremor
213,4112138,1.33,-0.3415780866992659,-0.2821867433879837,0.8626477026438903,18.128321569917176,71.4767409464072,-36.605385384056646,tremor
214,4112142,1.334,-0.3346936212579779,-0.28382793917837257,0.8648604364909732,18.415002707202703,77.66607183837198,-35.88307704539341,tremor
215,4112147,1.339,-0.32861229172588596,-0.28531451258399293,0.8666484050744709,18.714142356316948,83.46501903817901,-35.153098758499084,tremor
216,4112152,1.344,-0.3233825408197394,-0.2866387161027047,0.8680083645974365,19.025414884801275,88.86182584863458,-34.42163032104618,tremor
217,4112157,1.349,-0.31904889058114144,-0.28779423459667164,0.8689406448835506,19.348280329598147,93.84828499022946,-33.69444155513451,tremor
218,4112162,1.354,-0.31565143634169274,-0.2887762474196076,0.8694489865900017,19.682013818190917,98.41944629587658,-32.9768549140867,tremor
219,4112167,1.359,-0.31322534207364494,-0.2895814699684574,0.8695403124071123,20.025739660781735,102.5732517184607,-32.27371740536349,tremor
220,4112172,1.364,-0.31180034323960365,-0.29020817378839053,0.8692244372554732,20.378469037832772,106.31010852854217,-31.589381952015913,tremor
221,4112198,1.39,-0.31140026468842397,-0.29065618500125795,0.8685137243854583,20.739139966748517,109.63241418428673,-30.92769806794788,tremor
222,4112202,1.394,-0.3120425627324986,-0.2909268615128014,0.867422696208966,21.10665800628567,112.54404881809573,-30.292011487349193,tremor
223,4112207,1.399,-0.31373790216729974,-0.2910230501303322,0.8659676105877465,21.47993599298993,115.04985332031745,-29.68517218795667,tremor
224,4112212,1.404,-0.3164897804499184,-0.2909490253228846,0.8641660150381307,21.857931061605598,117.15511218123014,-29.10955009849653,tremor
225,4112217,1.409,-0.3202942122922817,-0.2907104118136419,0.8620362927085277,22.23967731656545,118.86506027978861,-28.567057682703204,tremor
226,4112222,1.414,-0.3251394883418092,-0.29031409347009596,0.8595972148662124,22.624312776444217,120.18443173387789,-28.059178527138968,tremor
227,4112227,1.419,-0.3310060212936659,-0.28976811104726713,0.8568675148650696,23.011099554947272,121.1170670430508,-27.587001005159323,tremor
228,4112232,1.424,-0.3378662916498635,-0.28908155126433244,0.8538654980905648,23.399436618260836,121.66559233498589,-27.151256032913466,tremor
229,4112236,1.428,-0.34568490340919333,-0.28826442948663583,0.8506087011834366,23.78886483151155,121.83118173343175,-26.752357876460813,tremor
230,4112241,1.433,-0.3544187572835485,-0.28732756797737624,0.8471136119686906,24.179064352676534,121.61341080049921,-26.390446921172735,tremor
231,4112246,1.438,-0.364017345678476,-0.2862824713089321,0.8433954590455284,24.569844739123827,121.01020576671495,-26.06543328633048,tremor
232,4112251,1.443,-0.3744231697752468,-0.28514120011211763,0.8394680770571353,24.961128396236443,120.01788995730031,-25.777040164900782,tremor
233,4112256,1.448,-0.3855722747725988,-0.28391624391963244,0.8353438504346247,25.35292821502909,118.6313255687063,-25.524845788009387,tremor
234,4112261,1.453,-0.39739489489254726,-0.282620393455452,0.8310337351143748,25.745320408111006,116.84414585310122,-25.30832294688995,tremor
235,4112266,1.458,-0.40981619537218783,-0.2812666123670784,0.8265473545948671,26.13841365178803,114.64906991882687,-25.12687504445035,tremor
236,4112270,1.462,-0.42275709463178157,-0.27986790812955914,0.8218931639399571,26.53231567322341,112.03828982174092,-24.97986769567659,tremor
237,4112275,1.467,-0.4361351464108979,-0.2784372017087405,0.817078673113392,26.92709839439618,109.00391746338094,-24.866654967828413,tremor
238,4112280,1.472,-0.4498654591431381,-0.276987195595079,0.8121107194438809,27.322762681743427,105.53847708082867,-24.786599478323122,tremor
239,4112285,1.477,-0.46386162837848555,-0.2755302400418534,0.8069957781020799,27.719203678210366,101.63542786657509,-24.739085778942197,tremor
240,4112290,1.482,-0.4780366577798746,-0.27407819778511155,0.8017402991832533,28.11617762791844,97.28970054339666,-24.723526753175843,tremor
241,4112295,1.487,-0.4923038451754352,-0.2726423081919358,0.7963510602339037,28.513271042213248,92.49823154966832,-24.73936310792712,tremor
242,4112322,1.514,-0.5065776123305781,-0.2712330526569587,0.7908355236900307,28.90987299411292,87.26047881914661,-24.786056399196013,tremor
243,4112327,1.519,-0.5207742604090683,-0.2698600240752908,0.7852021895265237,29.305151267090473,81.57890389842001,-24.863076343014058,tremor
244,4112332,1.524,-0.5348126372646588,-0.26853180421513917,0.7794609342537056,29.698033030405863,75.45940630839155,-24.969883391148382,tremor
245,4112337,1.529,-0.5486147073210903,-0.2672558535744916,0.7736233280663108,30.08719066908794,68.91169764771927,-25.105907678174308,tremor
246,4112342,1.534,-0.5621060193651725,-0.2660384186245861,0.767702922367967,30.471033349570703,61.94960495700275,-25.27052547782556,tremor
247,4112347,1.539,-0.575216071710513,-0.2648844611276186,0.7617155001015681,30.84770482601731,54.59129522679609,-25.463034266828927,tremor
248,4112351,1.543,-0.5878785777125752,-0.2637976135169102,0.7556792814505726,31.215087863946767,46.85941549987172,-25.682627411967665,tremor
249,4112356,1.548,-0.6000316375239495,-0.2627801632725244,0.7496150777046279,31.570815470611887,38.7811456619396,-25.928369390166665,tremor
250,4112361,1.553,-0.6116178243459327,-0.2618330679556878,0.7435463865490435,31.912288887411265,30.388163640596225,-26.199172333991292,tremor
251,4112366,1.558,-0.6225841953497698,-0.26095600121013757,0.737499422846218,32.23670203873996,21.716525258575533,-26.493774576752347,tremor
252,4112371,1.563,-0.6328822389884546,-0.26014742870947943,0.7315030801918765,32.54107186408112,12.806463335004656,-26.810721761046125,tremor
253,4112376,1.568,-0.6424677716523074,-0.25940471182113406,0.725588820169457,32.82227370254816,3.702112718068835,-27.148350975371113,tremor
254,4112380,1.572,-0.6513007975576466,-0.2587242357438466,0.7197904882600688,33.077080667155336,-5.548830312989309,-27.50477829451482,tremor
255,4112385,1.577,-0.6593453463785258,-0.2581015581049776,0.7141440577049285,33.30220575838724,-14.895504488761183,-27.877890019804397,tremor
256,4112390,1.582,-0.6665693033869534,-0.25753157349192857,0.7086873051243758,33.49434534643728,-24.284325155596655,-28.26533784645401,tremor
257,4112395,1.587,-0.6729442466909473,-0.2570086891255681,0.7034594242013688,33.65022262318277,-33.659459977836946,-28.664538128448495,tremor
258,4112400,1.592,-0.6784453054805443,-0.25652700682878365,0.6985005860513799,33.766629705399495,-42.96332780241103,-29.072675363187983,tremor
259,4112405,1.597,-0.683051051938518,-0.25608050655642867,0.6938514568396758,33.84046726004602,-52.13711041830705,-29.48670996744216,tremor
260,4112409,1.601,-0.6867434375805371,-0.25566322698677796,0.6895526846012465,33.86878079965876,-61.12126810609377,-29.903390347060704,tremor
261,4112414,1.606,-0.6895077822092123,-0.2552694389834719,0.6856443679257429,33.8487931222177,-69.85605144491238,-30.31926916141779,tremor
262,4112419,1.611,-0.6913328203734888,-0.25489380808020157,0.6821655190917529,33.777932700296624,-78.28200370814946,-30.73072354372248,tremor
263,4112445,1.637,-0.6922108062368938,-0.25453154248604776,0.6791535333484499,33.65385812125925,-86.34045020354903,-31.133978864519396,tremor
264,4112450,1.642,-0.6921376731855179,-0.2541785234422084,0.6766436744440041,33.474478919527655,-93.9739729215844,-31.525135439289325,tremor
265,4112455,1.647,-0.6911132396443141,-0.2538314150966728,0.6746685844428478,33.23797330974436,-101.12687056001161,-31.900197431323583,tremor
266,4112460,1.652,-0.6891414479391197,-0.253487751454674,0.6732578237438022,32.942803417320796,-107.74560503959825,-32.25510315310926,tremor
267,4112465,1.657,-0.6862306192591915,-0.25314599847666125,0.6724374453930242,32.58772860731504,-113.77923580598295,-32.58575605588415,tremor
268,4112470,1.662,-0.6823937053301907,-0.25280559007605735,0.6722296065035195,32.17181744213732,-119.17984261443935,-32.88805588478099,tremor
269,4112475,1.667,-0.6776485165503222,-0.25246693761597633,0.6726522188630704,31.69445867351584,-123.90293641146991,-33.15792969653828,tremor
270,4112484,1.676,-0.6720179071248454,-0.2521314134778827,0.6737186405208236,31.15537151718069,-127.90785665605758,-33.391362633505,tremor
271,4112489,1.681,-0.6655299000634927,-0.2518013103087359,0.675437410135782,30.554615288645167,-131.15815218282722,-33.58442849720896,tremor
272,4112494,1.686,-0.658217738542732,-0.25147977855741077,0.6778120259982267,29.89259831426312,-133.62194167166774,-33.733320257445804,tremor
273,4112499,1.691,-0.6501198547011655,-0.251170745782936,0.6808407717660899,29.170085893525755,-135.27224909335712,-33.83438066310844,tremor
274,4112504,1.696,-0.6412797519665479,-0.25087882185853644,0.6845165909899796,28.388206988302954,-136.08730921454807,-33.884133091782395,tremor
275,4112508,1.7,-0.6317458020330139,-0.250609194536907,0.6888270123676423,27.548459250836267,-136.05083833425527,-33.879312702479794,tremor
276,4112518,1.71,-0.6215709621882615,-0.25036751985130135,0.6937541273425302,26.652711967344885,-135.15226579686848,-33.81689786058722,tremor
277,4112523,1.715,-0.6108124224615014,-0.25015981150528016,0.6992746211440306,25.703206486330117,-133.38692240163064,-33.69414169832026,tremor
278,4112528,1.72,-0.5995311947098606,-0.24999233278341515,0.7053598576873822,24.702553728021957,-130.75618255287262,-33.50860355772495,tremor
279,4112533,1.725,-0.5877916570609827,-0.24987149365790828,0.7119760179599179,23.653728445595313,-127.26755782638475,-33.258179933470835,tremor
280,4112538,1.73,-0.575661067020158,-0.2498037547562772,0.7190842906806221,22.560060031672357,-122.93474051538199,-32.94113439469922,tremor
281,4112543,1.735,-0.5632090551628113,-0.24979553878420044,0.7266411131977999,21.425219817957093,-117.77759661267125,-32.556125835684995,tremor
282,4112571,1.763,-0.5505071089541649,-0.24985314895185365,0.7345984598469105,20.253204972037015,-111.82210854167037,-32.10223430508685,tremor
283,4112576,1.768,-0.5376280532615827,-0.24998269301832263,0.7429041743849484,19.04831922619778,-105.1002687242015,-31.57898361240548,tremor
284,4112580,1.772,-0.5246455310533056,-0.25019001085116777,0.751502342699454,17.81515075911419,-97.64992569135286,-30.986359926618675,tremor
285,4112585,1.777,-0.5116334851839451,-0.2504806030161639,0.7603337017868368,16.558547580765534,-89.51458480644767,-30.324825681308795,tremor
286,4112595,1.787,-0.49866564052992723,-0.2508595579535918,0.7693360809877072,15.283590746002707,-80.74316573189054,-29.59532828072827,tremor
287,4112600,1.792,-0.485814985247353,-0.25133147576539394,0.778444871583173,13.995565662899072,-71.38971859977615,-28.799303332579292,tremor
288,4112605,1.797,-0.4731532504642065,-0.2519003874467853,0.7875935209903759,12.699931696017696,-61.51310057176235,-27.938672370844213,tremor
289,4112610,1.802,-0.46075038900752807,-0.25256966941540826,0.7967140478512061,11.402290212335222,-51.176614214646214,-27.015835236862344,tremor
290,4112614,1.806,-0.4486740554954696,-0.25334195428551376,0.8057375742284353,10.108351186053314,-40.447608944291154,-26.03365743799481,tremor
291,4112624,1.816,-0.43698909201258124,-0.25421903988295064,0.8145948709022435,8.823898465574361,-29.397046733081243,-24.995452897632703,tremor
292,4112629,1.821,-0.4257570253864567,-0.2552017993959653,0.8232169114337122,7.554753805927117,-18.099033342359736,-23.904962555715215,tremor
293,4112633,1.825,-0.41503558358029635,-0.25629009622305793,0.8315354302939189,6.306739778608332,-6.630316525694295,-22.766329284572006,tremor
294,4112638,1.83,-0.40487823973756565,-0.2574827074527515,0.8394834800223336,5.085641685807762,4.9302470631817155,-21.58406955801661,tremor
295,4112643,1.835,-0.3953337928559557,-0.25877725996443063,0.84699598214459,3.8971686256096767,16.502254155087574,-20.36304226094322,tremor
296,4112648,1.84,-0.386445993904686,-0.26017018288459137,0.8540102664946135,2.746913877567365,28.004343817285662,-19.10841496506078,tremor
297,4112652,1.844,-0.3782532254812736,-0.26165667960848527,0.8604665936712494,1.64031480326009,39.35481009217395,-17.82562793731928,tremor
298,4112657,1.849,-0.37078824192546356,-0.2632307218577894,0.8663086556165627,0.582612484005258,50.47223486772638,-16.520356100571934,tremor
299,4112662,1.854,-0.36407797528398095,-0.2648850673491174,0.8714840497200791,-0.4211886521435577,61.27613703569151,-15.19846913656216,tremor
300,4112667,1.859,-0.35814341077494266,-0.2666113016544614,0.8759447224085478,-1.3663609299407868,71.68763349321166,-13.865989913510653,tremor
301,4112698,1.89,-0.35299953356644087,-0.26839990380248563,0.8796473788429873,-2.248492934772135,81.63010703118081,-12.529051437544236,tremor
302,4112703,1.895,-0.34865534689446814,-0.27024033416487225,0.8825538560688707,-3.063528072707924,91.02987562298553,-11.193852567783722,tremor
303,4112708,1.9,-0.34511395992865695,-0.27212114227407314,0.8846314576837614,-3.8078017818822114,99.81685707508787,-9.866612789679225,tremor
304,4112713,1.905,-0.3423727424451514,-0.27403009151415986,0.8858532487111012,-4.478076940327114,107.9252224321061,-8.553526394315467,tremor
305,4112718,1.91,-0.3404235423101847,-0.2759542971772354,0.8861983098182197,-5.071576955869558,115.29403096897246,-7.260716449475206,tremor
306,4112723,1.915,-0.3392529609601986,-0.2778803741912216,0.8856519502546183,-5.586015968463413,121.86783909343643,-5.9941889672285456,tremor
307,4112728,1.92,-0.3388426813842392,-0.2797945908567056,0.884205878930501,-6.019625556183424,127.5972750708911,-4.759787676424174,tremor
308,4112732,1.924,-0.33916984248237225,-0.2816830251182695,0.8818583329539247,-6.3711773218340495,132.43957121443972,-3.563149802959384,tremor
309,4112738,1.93,-0.3402074530411464,-0.28353172018492645,0.8786141627524391,-6.64000075223837,136.35904509679455,-2.40966325267278,tremor
310,4112743,1.935,-0.3419248379249089,-0.2853268366660969,0.8744848726711989,-6.825995788656456,139.3275214703107,-1.3044255868990098,tremor
311,4112747,1.939,-0.3442881084528554,-0.2870547987777885,0.8694886157068086,-6.929639624423745,141.32468694112833,-0.2522051816163263,tremor
312,4112752,1.944,-0.34726064836459014,-0.2887024325807177,0.8636501408405584,-6.951987351399536,142.33837002037947,0.74259503450112,tremor
313,4112757,1.949,-0.3508036063377438,-0.29025709462556304,0.8570006913057534,-6.894666202692676,142.36473993977953,1.67597086506136,tremor
314,4112762,1.954,-0.35487638577867653,-0.2917067897905326,0.84957785208373,-6.759863275967899,141.40841853876535,2.5443467597942795,tremor
315,4112767,1.959,-0.3594371226171593,-0.2930402774938498,0.8414253449860859,-6.550306760900571,139.48250057924295,3.344601976949683,tremor
316,4112771,1.963,-0.3644431421324989,-0.29424716583906274,0.8325927698539571,-6.269240829748732,136.60847900134235,4.074092639738463,tremor
317,4112776,1.968,-0.3698513864346876,-0.2953179935936358,0.8231352906921925,-5.920394477640542,132.8160728834772,4.730669371902451,tremor
318,4112781,1.973,-0.3756188051130439,-0.2962443001994633,0.8131132659592238,-5.507944716706786,128.1429572005619,5.312690253580399,tremor
319,4112786,1.978,-0.3817027027211345,-0.2970186842559617,0.8025918227552242,-5.036474633465965,122.63439487732659,5.819028913851417,tremor
320,4112791,1.983,-0.38806103814831366,-0.29763485109149584,0.7916403752965732,-4.510926909257033,116.34277310656914,6.249077671498742,tremor
321,4112817,2.009,-0.3946526724780249,-0.2980876501387881,0.7803320888413114,-3.9365534764931116,109.32704745104839,6.602745748496583,tremor
322,4112822,2.014,-0.4014375635801865,-0.2983731028510714,0.7687432911492563,-3.3188620374968787,101.65209889069611,6.880452705408836,tremor
323,4112827,2.019,-0.40837690734678234,-0.29848842184260566,0.756952834634831,-2.6635602081939584,93.3880107379457,7.0831173723582435,tremor
324,4112832,2.024,-0.4154332270758525,-0.2984320218246462,0.7450414136076515,-1.9764980707248436,84.60927422607425,7.212142656363952,tremor
325,4112837,2.029,-0.4225704139901495,-0.2982035227588334,0.7330908423823479,-1.2636099360966562,75.39393352368883,7.269396679987766,tremor
326,4112842,2.034,-0.42975372324453104,-0.2978037454888723,0.7211833015310488,-0.5308561383051228,65.82268282486815,7.257190739167213,tremor
327,4112847,2.039,-0.43694973107057566,-0.29723469995942076,0.7094005610793028,0.2158342945080673,55.97792986593902,7.178254557223132,tremor
328,4112852,2.044,-0.4441262599697925,-0.29649956600370925,0.6978231909268302,0.9706192252100697,45.942841596237955,7.0357092557853305,tremor
329,4112861,2.053,-0.45125228011108,-0.2956026665883403,0.6865297701228141,1.7277963739661992,35.8003886686424,6.833038363416544,tremor
330,4112866,2.058,-0.45829779628197254,-0.29454943335057593,0.6755961077477884,2.481852805562145,25.632405813004137,6.574057051363303,tremor
331,4112871,2.063,-0.4652337308013715,-0.2933463642536655,0.6650944889357346,3.2275101328115334,15.518684928339974,6.262879649543272,tremor
332,4112876,2.068,-0.4720318135842961,-0.292000973221457,0.6550929598733533,3.959764746313925,5.536116843877018,5.903885386986644,tremor
333,4112881,2.073,-0.4786644908822702,-0.2905217316936431,0.6456546653102821,4.673922565529361,-4.242103797561465,5.501682242738549,tremor
334,4112886,2.078,-0.4851048639362388,-0.28891800216083213,0.6368372511376165,5.365628046174711,-13.747198061323648,5.061068791739939,tremor
335,4112891,2.083,-0.49132666774774875,-0.2871999638811045,0.628692342966555,6.030887439979711,-22.91543648604128,4.586993979758942,tremor
336,4112896,2.088,-0.4973042983447956,-0.2853785311291909,0.6212651094663171,6.666086544596163,-31.688679438282268,4.084514854729348,tremor
337,4112900,2.092,-0.5030128943133391,-0.28346526446711195,0.6145939166508114,7.268003367942417,-40.01481900188842,3.558752413906267,tremor
338,4112905,2.097,-0.5084284750744391,-0.28147227563478033,0.6087100765151472,7.833816235813163,-47.848119935169926,3.014845891911723,tremor
339,4112910,2.102,-0.5135281345608065,-0.2794121267306412,0.6036376906136528,8.36110788525569,-55.14945970112026,2.4579060034591884,tremor
340,4112915,2.107,-0.5182902847938023,-0.2772977243855899,0.5993935865508431,8.847866027703425,-61.88646983045508,1.8929678434928012,tremor
341,4112942,2.134,-0.5226949396584764,-0.27514220964040936,0.5959873431308076,9.292480777015772,-68.03358282304387,1.3249442970439955,tremor
342,4112947,2.139,-0.5267240252992869,-0.2729588442442107,0.5934213982423675,9.693739257538489,-73.57199034998247,0.7585808755623343,tremor
343,4112951,2.143,-0.5303617005363712,-0.27076089413716214,0.5916912325264031,10.050817647665815,-78.48951962468479,0.19841285355241597,tremor
344,4112956,2.148,-0.5335946691281477,-0.2685615110030794,0.5907856214472298,10.363270863951264,-82.78043545446671,-0.3512745480214463,tremor
345,4112961,2.153,-0.536412465990103,-0.26637361299115825,0.5906869484389743,10.631020040905375,-86.44517573991202,-0.8864823444988923,tremor
346,4112966,2.158,-0.5388077015879911,-0.26420976598719104,0.5913715721297514,10.854337917637451,-89.49002821069438,-1.4035298964250855,tremor
347,4112976,2.168,-0.5407762521976964,-0.26208206710778653,0.5928102410739345,11.033832214158632,-91.92675612620623,-1.899082621492419,tremor
348,4112981,2.173,-0.5423173879248273,-0.2600020323335802,0.5949685498070221,11.17042707179683,-93.77218061291074,-2.3701750743657284,tremor
349,4112986,2.178,-0.5434338346924855,-0.25798049033649206,0.5978074302985028,11.265342643617252,-95.04772727551865,-2.8142292259168697,tremor
350,4112990,2.182,-0.5441317703299552,-0.25602748455649055,0.6012836729858281,11.320072950659714,-95.7789446889107,-3.229067827582801,tremor
351,4112995,2.187,-0.5444207580703321,-0.2541521854326643,0.6053504715375863,11.336362165317926,-95.99500232381006,-3.612922795467304,tremor
352,4113000,2.192,-0.544313623016617,-0.2523628144061461,0.6099579853584048,11.31617953807456,-95.72817535178174,-3.9644385966765356,tremor
353,4113005,2.197,-0.5438262784604594,-0.2506665809256128,0.6150539136733871,11.261693238251711,-95.01332358861316,-4.28267066907437,tremor
354,4113010,2.202,-0.5429775094476822,-0.24906963324773493,0.6205840748807657,11.175243421822142,-93.88737155156781,-4.567078956138493,tremor
355,4113015,2.207,-0.5417887208522534,-0.24757702338276621,0.6264929847925917,11.059314859773398,-92.38879621625614,-4.817516691681743,tremor
356,4113019,2.211,-0.5402836566450556,-0.24619268613031137,0.6327244274331641,10.916509454703496,-90.5571285614451,-5.034214625091248,tremor
357,4113024,2.216,-0.538488096229583,-0.24491943181354975,0.6392220122554233,10.749518943684096,-88.43247438868679,-5.217760935601412,tremor
358,4113029,2.221,-0.5364295328507565,-0.24375895207286802,0.6459297119732633,10.561098038749458,-86.05505920601367,-5.369077142672344,tremor
359,4113034,2.226,-0.5341368383195514,-0.2427118379327354,0.6527923756850589,10.354038200423838,-83.46480118551753,-5.489390378451351,tremor
360,4113039,2.231,-0.5316399177479492,-0.24177760930970152,0.6597562125602513,10.131142181395138,-80.70091536666745,-5.580202448786237,tremor
361,4113065,2.257,-0.5289693577248119,-0.24095475517592355,0.6667692420451272,9.895199422883117,-77.80155141230236,-5.643256173015892,tremor
362,4113069,2.261,-0.5261560714045158,-0.24024078371075083,0.673781707274022,9.64896234246506,-74.8034663751401,-5.680499558871406,tremor
363,4113074,2.266,-0.5232309442881093,-0.23963228192423355,0.6807464490958524,9.395123528936043,-71.74173316079168,-5.694048430230568,tremor
364,4113079,2.271,-0.5202244849492641,-0.23912498436647522,0.6876192387870169,9.13629386700357,-68.64948474864705,-5.6861481699917045,tremor
365,4113084,2.276,-0.5171664854542654,-0.23871385059208097,0.694359068077143,8.874981653704896,-65.55769379563412,-5.659135258438001,tremor
366,4113089,2.281,-0.5140856966166952,-0.23839315099962555,0.700928395549887,8.613572828149069,-62.49498698665321,-5.615399278471569,tremor
367,4113094,2.286,-0.5110095234251864,-0.2381565605122504,0.7072933488118799,8.354312498868362,-59.48749336253321,-5.557346028115303,tremor
368,4113098,2.29,-0.5079637459401283,-0.23799725932689653,0.7134238820792109,8.099288003880504,-56.558725805768255,-5.487362332305461,tremor
369,4113103,2.295,-0.5049722706534905,-0.23790803966381405,0.7192938890466586,7.8504137687877185,-53.729494862498015,-5.4077830829142925,tremor
370,4113108,2.3,-0.5020569167444255,-0.23788141712581068,0.7248812711134217,7.609418234053112,-51.017854100226664,-5.3208609606775585,tremor
371,4113113,2.305,-0.49923724085987814,-0.23790974496137857,0.7301679612697374,7.377833103766295,-48.43907622366683,-5.228739208637466,tremor
372,4113118,2.31,-0.4965304030452898,-0.23798532924991153,0.7351399042232835,7.156985127419792,-46.00565917939452,-5.133427738468271,tremor
373,4113122,2.314,-0.4939510753101801,-0.23810054281845178,0.739786993674679,6.947990568538916,-43.727361460580184,-5.036782764387298,tremor
374,4113127,2.319,-0.49151139311399117,-0.23824793557797275,0.7441029680399088,6.751752446387361,-41.61126576529227,-4.940490079882024,tremor
375,4113132,2.324,-0.4892209488757205,-0.2384203389450502,0.7480852663573677,6.56896056733885,-39.661870057369434,-4.846052024098936,tremor
376,4113137,2.329,-0.4870868255160723,-0.23861096209575736,0.7517348465937078,6.400094298173273,-37.881204921294696,-4.75477812887957,tremor
377,4113141,2.333,-0.48511366709341724,-0.23881347797872904,0.7550559690548432,6.245427979595623,-36.26897588808564,-4.667779392957597,tremor
378,4113146,2.338,-0.4833037828434249,-0.23902209728225154,0.7580559480916984,6.105038837089995,-34.8227291388801,-4.585966093578765,tremor
379,4113151,2.343,-0.48165728041090256,-0.23923162888856214,0.7607448757393599,5.9788172182812955,-33.53803867531676,-4.510049014305595,tremor
380,4113156,2.348,-0.4801722237885401,-0.23943752573548943,0.7631353213200824,5.866478970541625,-32.40871269728902,-4.44054393903854,tremor
381,4113161,2.353,-0.47884481145101776,-0.2396359154168106,0.7652420113560787,5.767579767793329,-31.427016567863877,-4.377779235767305,tremor
382,4113187,2.379,-0.4776695703766673,-0.2398236152637015,0.7670814943641682,5.681531198304522,-30.58390938712833,-4.321906328710925,tremor
383,4113192,2.384,-0.4766395620427117,-0.2399981320385573,0.7686717952374226,5.60761843156348,-29.86929085291845,-4.272912832993587,tremor
384,4113197,2.389,-0.4757465969926556,-0.24015764672305073,0.7700320639681976,5.545019286560741,-29.272254770543533,-4.230638100112605,tremor
385,4113202,2.394,-0.4749814551045418,-0.24030098518655962,0.7711822234550901,5.4928245195643255,-28.781345302751593,-4.194790893641949,tremor
