sample,t_ms,t_s,ax,ay,az,gx,gy,gz,tremor
0,3991319,0.0,-0.6139907609354703,-0.38682588732435275,0.6249014999787799,2.7791216730136057,11.643517579991892,0.4019349143620932,tremor
1,3991343,0.024,-0.6137889950021643,-0.38692590317054176,0.6253640037047564,2.928905768040944,12.538657968088176,-0.3762283941615254,tremor
2,3991348,0.029,-0.613455060357668,-0.38706752607481903,0.6260496014499283,3.019859426849999,13.480756352777028,-1.090172199796297,tremor
3,3991353,0.034,-0.61294536133706,-0.3872568541083958,0.6270030974708332,3.0492029387955495,14.463083755785183,-1.7350522149437708,tremor
4,3991358,0.039,-0.6122316385782216,-0.38749344569805083,0.6282349222946515,3.0144682736908552,15.478102847468993,-2.306367616110939,tremor
5,3991363,0.044,-0.6113012746064309,-0.38777310987666874,0.6297305706574228,2.9135242658258056,16.517494789685287,-2.799997519721255,tremor
6,3991367,0.048,-0.6101526081942967,-0.3880907261726671,0.6314637001885256,2.7445990977513026,17.572196487333194,-3.21223396819881,tremor
7,3991372,0.053,-0.608790164050793,-0.3884418303197773,0.6334051072700765,2.5062997301919303,18.632448579591674,-3.539810946957109,tremor
8,3991382,0.063,-0.6072214550507984,-0.38882315675277807,0.6355270278563419,2.1976279380093153,19.687854391082084,-3.7799289765302326,tremor
9,3991387,0.068,-0.6054553190326912,-0.38923260961427614,0.6378043941815271,1.8179926281779997,20.727449944701984,-3.930274851591832,tremor
10,3991391,0.072,-0.6035012547878355,-0.38966901385313846,0.6402146303925725,1.3672181363741853,21.739785012663127,-3.9890361323496735,tremor
11,3991401,0.082,-0.6013692753422617,-0.3901318296812884,0.6427369583236755,0.8455482249626265,22.713015050953185,-3.954910036550882,tremor
12,3991406,0.087,-0.5990699739716855,-0.3906209024821106,0.6453516777039253,0.25364553746939317,23.635003724805763,-3.827106434153912,tremor
13,3991411,0.092,-0.5966146431341613,-0.3911362652152889,0.6480395930935027,-0.4074136958364513,24.493435587644637,-3.605344712650983,tremor
14,3991416,0.097,-0.5940153744943499,-0.3916779886708825,0.6507816225751765,-1.1361498581827696,25.2759383216304,-3.289844359699951,tremor
15,3991421,0.102,-0.5912851141227258,-0.3922460690190607,0.653558570090387,-1.9306951501821448,25.97021378248649,-2.881309201449847,tremor
16,3991425,0.106,-0.5884376682914568,-0.39284034240074006,0.6563510289544526,-2.7888138241880864,26.56417691320174,-2.380905339332214,tremor
17,3991430,0.111,-0.5854876640026649,-0.3934604184427526,0.6591393850071475,-3.7079273926562895,27.04610139988631,-1.790232944726692,tremor
18,3991435,0.116,-0.5824504712150577,-0.39410562685129974,0.661903893385732,-4.68514465902162,27.404770738534936,-1.111292200200707,tremor
19,3991440,0.121,-0.5793420941064905,-0.3947749731068561,0.664624808782958,-5.717296313946443,27.629633163082534,-0.34644381887497916,tremor
20,3991472,0.153,-0.5761790382299996,-0.39546710067775603,0.6672825538770294,-6.80097372460228,27.71095864998775,0.5016352696711927,tremor
21,3991477,0.158,-0.5729781597772243,-0.39618025816190766,0.6698579141599741,-7.932571421078311,27.63999595675371,1.4300003093640348,tremor
22,3991482,0.163,-0.5697565025997219,-0.39691227045806976,0.6723322498190984,-9.108332654798604,27.40912736537596,2.4354902516643193,tremor
23,3991486,0.167,-0.5665311281932243,-0.39766051354952814,0.6746877169173121,-10.324397274474425,27.012018490159484,3.5147813375980093,tremor
24,3991491,0.172,-0.5633189434801527,-0.39842189282123475,0.6769074911295606,-11.576851042683408,26.443760195406107,4.664441495600649,tremor
25,3991496,0.177,-0.5601365308788773,-0.3991928250719143,0.6789759879258576,-12.861775406997616,25.70099939102521,5.880984227780167,tremor
26,3991501,0.182,-0.5569999847876,-0.39996922455299144,0.6808790734904382,-14.175296648550779,24.782055272285987,7.160920607071874,tremor
27,3991506,0.187,-0.5539247582149707,-0.40074649348204344,0.682604260933739,-15.513633262098843,23.687017471751552,8.50080800234645,tremor
28,3991510,0.191,-0.5509255228460389,-0.40151951754806287,0.6841408865663288,-16.87314037896388,22.417822615312193,9.897294187034008,tremor
29,3991515,0.196,-0.5480160453358033,-0.4022826669534056,0.6854802612220293,-18.250350032125557,20.97830593338722,11.347155567830212,tremor
30,3991520,0.201,-0.5452090820775244,-0.4030298035260747,0.6866157918883403,-19.642006085830968,19.37422488070039,12.847328390080257,tremor
31,3991525,0.206,-0.5425162941138019,-0.40375429439025134,0.6875430692619939,-21.045092714759765,17.613252164303674,14.39493193045514,tremor
32,3991529,0.21,-0.5399481832699435,-0.4044490326092001,0.6882599173238109,-22.45685542324704,15.7049361637466,15.987282870829397,tremor
33,3991534,0.215,-0.5375140500234041,-0.40510646512136755,0.6887664016409464,-23.87481374509552,13.660627438812739,17.62190025631052,tremor
34,3991539,0.22,-0.5352219731150003,-0.4057186281874731,0.6890647938699439,-25.296764959118597,11.493370844958529,19.29650067155619,tremor
35,3991544,0.225,-0.5330788104904253,-0.406277190463764,0.6891594908563619,-26.720778392694164,9.217763696171545,21.00898351750328,tremor
36,3991549,0.23,-0.5310902208614463,-0.40677350372352117,0.6890568878022781,-28.145180160594528,6.849781404855,22.757406528797652,tremor
37,3991554,0.235,-0.5292607050118733,-0.4071986611721126,0.688765206187443,-29.56852849101191,4.406573056397525,24.539951935166577,tremor
38,3991559,0.24,-0.527593665945878,-0.4075435632432555,0.6882942784576918,-30.98958011305913,1.9062304042158327,26.35488393523281,tremor
39,3991564,0.245,-0.5260914870687528,-0.407798990723274,0.6876552928987064,-32.407248505751,-0.6324652402844576,28.20049841806383,tremor
40,3991591,0.272,-0.5247556277665291,-0.4079556850173216,0.6868605035468112,-33.82055512270049,-3.1903128387545014,30.07506613379494,tremor
41,3991595,0.276,-0.5235867359528816,-0.40800443533018427,0.6859229113876104,-35.22857499306404,-5.747972015370852,31.976770772399053,tremor
42,3991600,0.281,-0.5225847772892103,-0.4079361724583858,0.6848559243655739,-36.63037833697,-8.28624727860562,33.90364364434744,tremor
43,3991605,0.286,-0.5217491807376993,-0.4077420687493082,0.6836730047555504,-38.02497000227786,-10.786369097259913,35.8534968506438,tremor
44,3991610,0.291,-0.5210789997748639,-0.40741364355736687,0.6823873131302215,-39.41122862174296,-13.230264951275151,37.82385697044072,tremor
45,3991615,0.296,-0.5205730879466749,-0.4069428732235522,0.6810113584626006,-40.787847416659616,-15.600813868420172,39.811901379352726,tremor
46,3991620,0.301,-0.5202302865431355,-0.4063223042547243,0.6795566638670432,-42.153278551853425,-17.88207853798752,41.8143993403317,tremor
47,3991625,0.306,-0.5200496211142142,-0.40554516802642976,0.6780334571717198,-43.50568288569409,-20.05950978934924,43.82765997679303,tremor
48,3991630,0.311,-0.5200305024539268,-0.40460549502119775,0.6764503949865152,-44.84288685639539,-22.120119005826375,45.84748913710942,tremor
49,3991635,0.316,-0.5201729266563253,-0.4034982263796342,0.6748143282178373,-46.162348098847566,-24.052614898271663,47.86915698589189,tremor
50,3991640,0.321,-0.5204776680023686,-0.4022193204061033,0.6731301161034188,-47.4611311926737,-25.847501977001738,49.88737791063069,tremor
51,3991645,0.326,-0.5209464578619625,-0.400765851638428,0.6714004948032654,-48.73589470198832,-27.49713902958876,51.896304016672204,tremor
52,3991649,0.33,-0.5215821425553137,-0.39913610015339496,0.6696260053903558,-49.98289038269177,-28.995756935899603,53.88953310839318,tremor
53,3991654,0.335,-0.5223888132431157,-0.3973296289239042,0.6678049847385152,-51.19797510941263,-30.33943623270697,55.86013163397493,tremor
54,3991659,0.34,-0.5233719014058107,-0.3953473472551306,0.6659336213094263,-52.37663571989142,-31.526045973520322,57.80067262320632,tremor
55,3991664,0.345,-0.5245382343011998,-0.39319155859067173,0.6640060762062369,-53.51402660038057,-32.55514659366884,59.70328819244654,tremor
56,3991669,0.35,-0.525896045905411,-0.3908659912792202,0.6620146681070557,-54.60501945302228,-33.42786064416195,61.55973575032197,tremor
57,3991673,0.354,-0.5274549401701499,-0.3883758112121078,0.6599501188490732,-55.644264306403066,-34.14671634410098,63.36147663468856,tremor
58,3991678,0.359,-0.5292258048742374,-0.3857276155680186,0.6578018545474357,-56.62626046432809,-34.71546985989281,65.0997655663188,tremor
59,3991683,0.364,-0.5312206758009825,-0.38292940722213586,0.6555583552580134,-57.545435745506154,-35.13891299188485,66.76574903191862,tremor
60,3991688,0.369,-0.5334525523272389,-0.37999054968597157,0.6532075443925865,-58.396232057715245,-35.42267348137901,68.35057051344856,tremor
61,3991714,0.395,-0.535935166678149,-0.3769217027386838,0.6507372074367362,-59.17319508456442,-35.57301539299253,69.84548035726486,tremor
62,3991719,0.4,-0.53868271004012,-0.3737347391935864,0.6481354280891023,-59.87106566057261,-35.596646922750374,71.24194801304857,tremor
63,3991724,0.405,-0.5417095194580275,-0.3704426435246268,0.6453910288589558,-60.48487030838313,-35.50054246019333,72.5317743559032,tremor
64,3991729,0.41,-0.5450297300730051,-0.36705939337329463,0.6424940025864149,-61.0100084542074,-35.291784741959916,73.70720182845704,tremor
65,3991734,0.415,-0.5486568979300874,-0.3635998252826695,0.639435921416922,-61.442334037125875,-34.97743151977817,74.76102020458035,tremor
66,3991738,0.419,-0.5526035994221669,-0.3600794863671325,0.6362103104931567,-61.77822954763904,-34.564409491631174,75.68666588864394,tremor
67,3991743,0.424,-0.5568810144844161,-0.35651447401303865,0.632812974934111,-62.014670910631054,-34.059436513140035,76.47831283012133,tremor
68,3991748,0.429,-0.5614985018747538,-0.35292126609469776,0.6292422704117059,-62.14928202162911,-33.46897146798685,77.13095335454794,tremor
69,3991753,0.434,-0.5664631761720876,-0.34931654455285727,0.625499309674954,-62.18037812917217,-32.79918972225657,77.64046748306025,tremor
70,3991758,0.439,-0.5717794973588946,-0.34571701548985023,0.6215880995980961,-62.10699761805619,-32.05598088333492,78.00367962068293,tremor
71,3991762,0.443,-0.5774488848762024,-0.34213922915881967,0.6175156056466838,-61.928922080393534,-31.244964683226044,78.21840182075165,tremor
72,3991767,0.448,-0.5834693686964576,-0.33859940334016153,0.6132917429750055,-61.64668485903511,-30.37152023684102,78.28346316375583,tremor
73,3991772,0.453,-0.5898352901164026,-0.33511325358811556,0.6089292956016182,-61.26156850880252,-29.440823679516182,78.19872511232177,tremor
74,3991777,0.458,-0.5965370645145672,-0.33169583368163563,0.6044437671743894,-60.77559184426146,-28.457889231168128,77.96508301187173,tremor
75,3991782,0.463,-0.6035610171692439,-0.32836138932029046,0.5998531686633696,-60.191487426743244,-27.42760902748402,77.58445419218135,tremor
76,3991787,0.468,-0.6108893013729079,-0.3251232276710827,0.5951777498581369,-59.51267048500032,-26.354787563814163,77.05975338377844,tremor
77,3991791,0.472,-0.6184999055600007,-0.32199360481001954,0.5904396827622946,-58.74320036072004,-25.244167278852377,76.39485639092254,tremor
78,3991796,0.477,-0.6263667531037038,-0.31898363243723904,0.5856627058535034,-57.88773562095073,-24.10044262887506,75.59455315455051,tremor
79,3991806,0.487,-0.6344598949942846,-0.3161032045068613,0.5808717387095006,-56.951483983110904,-22.928260939682968,74.66449148607481,tremor
80,3991811,0.492,-0.6427457919783188,-0.31336094363652706,0.5760924766973338,-55.940148152915235,-21.732209345137836,73.61111284596153,tremor
81,3991839,0.52,-0.6511876791443021,-0.310764166386146,0.5713509752981841,-54.85986858192827,-20.516788195793104,72.4415815683999,tremor
82,3991844,0.525,-0.6597460026703028,-0.30831886577175993,0.5666732332090363,-53.71716401612296,-19.286372399300873,71.1637088866767,tremor
83,3991848,0.529,-0.6683789158343221,-0.3060297087772696,0.5620847826475946,-52.518870542691964,-18.04516316011735,69.78587299580226,tremor
84,3991853,0.534,-0.6770428197289027,-0.3039000462210561,0.5576102943292905,-51.27207966608709,-16.797133427725704,68.31693622131313,tremor
85,3991858,0.539,-0.6856929335579567,-0.30193193218077413,0.5532732034504734,-49.98407577235222,-15.54597097007911,66.7661601836492,tremor
86,3991863,0.544,-0.6942838798267512,-0.30012615028135936,0.5490953617838081,-48.662273186525674,-14.295023337890878,65.14311969385953,tremor
87,3991868,0.549,-0.7027702708904962,-0.2984822444643969,0.5450967197584864,-47.31415290111597,-13.047249074075987,63.45761601080473,tremor
88,3991872,0.553,-0.711107284892407,-0.29699855231752814,0.5412950412377099,-45.947198963534554,-11.805179340154599,61.71959003527663,tremor
89,3991877,0.558,-0.719251220848555,-0.2956722395900552,0.5377056526814763,-44.56883446685292,-10.570893663334747,59.93903600354133,tremor
90,3991887,0.568,-0.7271600243567653,-0.29449933510561926,0.5343412275395855,-43.1863571002652,-9.346012759811845,58.12591625993629,tremor
91,3991892,0.573,-0.7347937770250782,-0.2934747658648422,0.5312116060893238,-41.80687428867287,-8.13171039179733,56.29007772354332,tremor
92,3991897,0.578,-0.7421151441980574,-0.2925923926775458,0.5283236505350286,-40.437238086957535,-6.928745014323156,54.44117070372203,tremor
93,3991906,0.587,-0.7490897769245458,-0.2918450471494654,0.5256811350322674,-39.08398019186828,-5.737510621900591,52.58857074720107,tremor
94,3991911,0.592,-0.7556866654139207,-0.29122457125412504,0.5232846703792867,-37.75324768324632,-4.558104786544032,50.74130420260263,tremor
95,3991926,0.607,-0.7618784425422555,-0.290721861036901,0.5211316633983112,-36.45074038609362,-3.3904104722298354,48.907978164125225,tremor
96,3991935,0.616,-0.7676416373570047,-0.2903269162179866,0.5192163114477168,-35.18165102557145,-2.2341869192442765,47.09671541371643,tremor
97,3991961,0.642,-0.772956879997476,-0.29002889756959976,0.5175296329768392,-33.950609589577866,-1.089163848904052,45.31509493578764,tremor
98,3991966,0.647,-0.7778090608970863,-0.2898161939142387,0.5160595354491202,-32.76163347257289,0.04486738381481681,43.570098541870415,tremor
99,3991971,0.652,-0.7821874483206904,-0.28967650039481735,0.5147909221939807,-31.61808500589297,1.167972085747601,41.86806411262415,tremor
100,3991976,0.657,-0.7860857689000307,-0.28959690928684356,0.5137058396949945,-30.522637857157097,2.2800056866870078,40.21464592678698,tremor
101,3991981,0.662,-0.7895022556341148,-0.2895640140672274,0.5127836664233748,-29.477253509469218,3.3805667695471,38.61478248670793,tremor
102,3991991,0.672,-0.7924396668112075,-0.2895640267605442,0.512001343589089,-28.48316864664026,4.468972349121793,37.072672162913086,tremor
103,3991995,0.676,-0.7949052776896215,-0.28958290780411466,0.5113336471634312,-27.5408938240688,5.544256209614342,35.591756865525696,tremor
104,3992000,0.681,-0.7969108448570722,-0.28960650686569683,0.5107534993017666,-26.650223342041702,6.605189292960778,34.17471380680569,tremor
105,3992005,0.686,-0.7984725412925191,-0.2896207122694458,0.5102323159412762,-25.810255795500083,7.65031948635675,32.82345524901477,tremor
106,3992010,0.691,-0.7996108585448756,-0.28961160599073865,0.5097403859447278,-25.019424380856307,8.678026770870604,31.53913595186249,tremor
107,3992015,0.696,-0.8003504712952467,-0.28956562061441354,0.5092472757885814,-24.275535718044548,9.686588623882942,30.322167873147,tremor
108,3992020,0.701,-0.8007200589704883,-0.2894696942515218,0.508722252534709,-23.575815709435254,10.674249862429528,29.1722415595525,tremor
109,3992025,0.706,-0.8007520790508823,-0.28931141920834064,0.5081347167636707,-22.916960815061746,11.639290800817491,28.08835359613557,tremor
110,3992034,0.715,-0.8004824872527592,-0.2890791802249018,0.5074546363687756,-22.29519307670137,12.58008767503724,27.068839447173332,tremor
111,3992039,0.72,-0.7999504008358476,-0.2887622783695276,0.5066529716950864,-21.706317265052636,13.495159740143238,26.111410996125635,tremor
112,3992044,0.725,-0.7991977028377463,-0.28835103720127914,0.5057020825202422,-21.14577864464693,14.383198259548148,25.213198065645514,tremor
113,3992049,0.73,-0.7982685870108092,-0.28783688858455847,0.5045761078437536,-20.60872004008653,15.24307376442535,24.370793172990073,tremor
114,3992053,0.734,-0.7972090455466366,-0.28721243652084777,0.5032513103595956,-20.090037131328877,16.073819427994184,23.580298767321842,tremor
115,3992058,0.739,-0.7960663042189546,-0.2864714984839222,0.50170637876862,-19.58443118526034,16.874590090535804,22.83737621895495,tremor
116,3992085,0.766,-0.7948882122439399,-0.2856091249198483,0.4999226826492523,-19.08645872275239,17.64459827701955,22.13729589117813,tremor
117,3992090,0.771,-0.7937225968122491,-0.28462159870171716,0.4978844763460367,-18.590577904125993,18.383030345365366,21.474987715101445,tremor
118,3992094,0.775,-0.7926165946949614,-0.283506417294254,0.49557905015630377,-18.09119167473132,19.088947530412753,20.845091794131314,tremor
119,3992099,0.78,-0.791615975307577,-0.2822622610609483,0.49299682889945906,-17.582687934253705,19.76117792515296,20.24200867563712,tremor
120,3992104,0.785,-0.7907644708899245,-0.2808889514510908,0.49013141965600004,-17.05947717533532,20.398206245286694,19.659949034567767,tremor
121,3992109,0.79,-0.7901031299094636,-0.27938740273713203,0.486979612000227,-16.51602818472398,20.99806855151918,19.09298261121348,tremor
122,3992113,0.794,-0.7896697094521286,-0.2777595706144875,0.48354133537727995,-15.946902517376884,21.558259021224295,18.535086329971698,tremor
123,3992118,0.799,-0.7894981213350618,-0.2760084004351499,0.47981957935585723,-15.346788534274491,22.075655427347556,17.980191598920523,tremor
124,3992123,0.804,-0.7896179450724726,-0.2741377772187551,0.4758202832878732,-14.710535825846142,22.546469240854808,17.422230855631238,tremor
125,3992133,0.814,-0.7900540187489955,-0.2721524789401039,0.4715522023912574,-14.033190817449027,22.9662252683831,16.855183486631077,tremor
126,3992138,0.819,-0.7908261163979344,-0.2700581339770554,0.46702675741300215,-13.310034270442431,23.329774517344045,16.273121304037385,tremor
127,3992143,0.824,-0.7919487177452208,-0.2678611830428261,0.462257874809686,-12.536621250296815,23.631342593076823,15.670253802741797,tremor
128,3992148,0.829,-0.7934308732801515,-0.26556884542958925,0.4572618238060835,-11.708823926358976,23.864614425135294,15.04097342983532,tremor
129,3992153,0.834,-0.7952761646803673,-0.2631890889505356,0.4520570557893124,-10.822877296110034,24.0228545519315,14.379901062192525,tremor
130,3992157,0.838,-0.7974827577805012,-0.2607306025746467,0.4466640503210876,-9.875427604680203,24.09906063629128,13.681931804477614,tremor
131,3992162,0.843,-0.8000435426487333,-0.25820277039411754,0.44110517067567584,-8.863582885395115,24.086146408670672,12.942281093167217,tremor
132,3992167,0.848,-0.8029463530233713,-0.2556156452481422,0.43540453031628423,-7.784964709213088,23.977148892115412,12.156530933379091,tremor
133,3992172,0.853,-0.8061742554461829,-0.2529799200591657,0.42958787019113653,-6.637759925877374,23.765453587502666,11.320675920571578,tremor
134,3992177,0.858,-0.8097058969794605,-0.2503068947420497,0.42368244524419346,-5.4207709279726926,23.44503031517118,10.431168529444276,tremor
135,3992181,0.862,-0.813515899461866,-0.24760843645790237,0.41771691717180365,-4.133462786361201,23.010671645313103,9.484963008330238,tremor
136,3992207,0.888,-0.8175752878704904,-0.24489693104328913,0.4117212492904634,-2.7760055021144354,22.458225334113482,8.479557111901919,tremor
137,3992212,0.893,-0.821851940506834,-0.2421852236898862,0.4057265984906488,-1.3493096041960961,21.78481196799593,7.41303084002893,tremor
138,3992217,0.898,-0.8263110493780388,-0.23948654740556255,0.39976519872211347,0.144946595394707,20.989019204317408,6.284081322456086,tremor
139,3992222,0.903,-0.830915580246772,-0.23681443845816097,0.39387023036237334,1.7042995872826159,20.071064695217913,5.092052995819053,tremor
140,3992226,0.907,-0.8356267232951168,-0.2341826388522193,0.3880756701879537,3.3254943003664184,19.032921005067532,3.8369622614720287,tremor
141,3992231,0.912,-0.8404043270826963,-0.23160498683758798,0.3824161174438137,5.004489641313825,17.878397439018247,2.5195158857784055,tremor
142,3992236,0.917,-0.8452073103527268,-0.22909529739076823,0.37692659257706673,6.736476410424863,16.613175480413883,1.1411224988577804,tremor
143,3992241,0.922,-0.8499940481331718,-0.22666723543755515,0.37164230644557517,8.51590768748822,15.244796327432606,-0.2961033488076452,tremor
144,3992246,0.927,-0.8547227303988475,-0.2243341852143785,0.3665983991381185,10.336541419382582,13.78260073721886,-1.7893450090197611,tremor
145,3992250,0.931,-0.8593516932372969,-0.22210911954498228,0.3618296488940186,12.19149460447778,12.23762297962481,-3.335095774411885,tremor
146,3992255,0.936,-0.8638397239501532,-0.22000447292214015,0.35737015295497354,14.073308163459387,10.622442137555533,-4.929179368098918,tremor
147,3992260,0.941,-0.8681463427869114,-0.21803202214042725,0.35325298350057893,15.974021318443054,8.950995242560573,-6.566779006027931,tremor
148,3992265,0.946,-0.8722320650191362,-0.21620277785289155,0.3495098230921496,17.88525408192688,7.238357788677851,-8.242475012658222,tremor
149,3992270,0.951,-0.8760586477931923,-0.21452688986094223,0.3461705852506991,19.79829629673823,5.500498020323372,-9.950290790625177,tremor
150,3992285,0.966,-0.8795893266224042,-0.213013568239501,0.34326302688638316,21.704201575476354,3.7540120450104415,-11.683746726057873,tremor
151,3992290,0.971,-0.8827890464610003,-0.21167102159939336,0.34081236022418454,23.593884459173037,2.0158472744907874,-13.435921367989678,tremor
152,3992295,0.976,-0.8856246919867236,-0.21050641295013847,0.3388408725637563,25.45821913577957,0.3030219076527861,-15.199518978310126,tremor
153,3992299,0.98,-0.8880653209324417,-0.20952583280324907,0.3373675626019571,27.288138110553003,-1.3676519378912209,-16.96694233253482,tremor
154,3992305,0.986,-0.8900824029946418,-0.20873428839635627,0.33640780210500487,29.0747292817599,-2.979834305236547,-18.730369471110976,tremor
155,3992332,1.013,-0.891650065023849,-0.2081357072560968,0.3359730314762095,30.80932992969533,-4.517906335393301,-20.4818329499418,tremor
156,3992337,1.018,-0.8927453409877651,-0.20773295277975337,0.33607049730206234,32.48361617478428,-5.967196707866112,-22.213300015831344,tremor
157,3992341,1.022,-0.8933484228320235,-0.20752784913683894,0.3367030393441721,34.08968652612937,-7.314181315329086,-23.91675206458362,tremor
158,3992346,1.027,-0.8934429061893283,-0.20752121261555517,0.33786893369621185,35.62013826066987,-8.546652969516671,-25.58426177458697,tremor
159,3992351,1.032,-0.8930160232565096,-0.2077128865932338,0.33956179790883734,37.06813556103136,-9.653858925349049,-27.208066474251787,tremor
160,3992356,1.037,-0.8920588542984684,-0.20810177758160267,0.34177056274867534,38.427468580007876,-10.626604925553927,-28.78063657557259,tremor
161,3992366,1.047,-0.8905665091984436,-0.20868589023659553,0.3444795138686261,39.69260285951538,-11.457325346970821,-30.294738234980954,tremor
162,3992371,1.052,-0.8885382711712445,-0.20946235976549865,0.3476684050321524,40.85871878952892,-12.14011990923962,-31.74348973648161,tremor
163,3992376,1.057,-0.8859776960333211,-0.21042748075523698,0.3513126426971571,41.92174104074168,-12.670758303184243,-33.12041139623361,tremor
164,3992380,1.061,-0.8828926620868727,-0.21157673203966165,0.35538353980221776,42.8783581433016,-13.046655002685947,-34.41946903952322,tremor
165,3992385,1.066,-0.879295367513984,-0.2129047977863385,0.35984863461079303,43.726032612368286,-13.26681740872232,-35.63511128911539,tremor
166,3992390,1.071,-0.8752022739846141,-0.2144055854892728,0.36467206856468387,44.4630022351941,-13.331771286292728,-36.76230102905161,tremor
167,3992395,1.076,-0.8706339967807087,-0.21607224198515027,0.36981501537016254,45.08827332666665,-13.243468133524743,-37.79654147858144,tremor
168,3992405,1.086,-0.8656151430030625,-0.21789716895428005,0.37523615206184624,45.6016069218831,-13.005179605946525,-38.7338973371544,tremor
169,3992410,1.091,-0.8601741003055379,-0.21987203961544474,0.3808921616180417,46.003498994204804,-12.621384345298125,-39.57101145307359,tremor
170,3992415,1.096,-0.8543427791146178,-0.22198781847247218,0.38673825588688115,46.295155849800466,-12.09765246436732,-40.30511743747225,tremor
171,3992425,1.106,-0.8481563115277927,-0.22423478601958477,0.3927287071693183,46.47846583748611,-11.440532461882672,-40.934048607036715,tremor
172,3992430,1.111,-0.8416527101864886,-0.22660257026737277,0.3988173768224041,46.55596841526106,-10.657444480210263,-41.45624360853002,tremor
173,3992456,1.137,-0.8348724905797065,-0.22908018682197204,0.40495822969752315,46.53082143618305,-9.756582641196454,-41.87074906540436,tremor
174,3992461,1.142,-0.8278582606543903,-0.23165608904863352,0.41110582408709545,46.406767277179576,-8.746827828047527,-42.177219591798,tremor
175,3992466,1.147,-0.820654282425454,-0.23431822958269954,0.41721576806622007,46.18809817564339,-7.6376708954358925,-42.37591552914465,tremor
176,3992471,1.152,-0.8133060114926413,-0.23705413411084028,0.4232451346072725,45.87962091152096,-6.439145080137078,-42.46769875168555,tremor
177,3992475,1.156,-0.8058596218282957,-0.2398509879248943,0.4291528295284435,45.4866208107036,-5.161765492599103,-42.45402683706145,tremor
178,3992480,1.161,-0.7983615246461201,-0.24269573525130891,0.43489990812807805,45.014824944553965,-3.816473024629061,-42.33694579833982,tremor
179,3992485,1.166,-0.7908578913298794,-0.245575190798021,0.4404498381860081,44.47036433298441,-2.4145797602837056,-42.1190814295698,tremor
180,3992490,1.171,-0.7833941910764797,-0.24847616236595005,0.4457687088265553,43.859734903272475,-0.9677129765063376,-41.80362914116486,tremor
181,3992495,1.176,-0.7760147539481929,-0.25138558277709167,0.4508253864902532,43.189756909662975,0.5122449588437517,-41.3943419722949,tremor
182,3992500,1.181,-0.7687623693699258,-0.2542906488092454,0.4555916209078517,42.467532487528125,2.013223069380002,-40.895516287735425,tremor
183,3992505,1.186,-0.7616779287601557,-0.25717896433124005,0.4600421054586311,41.700401012032415,3.5230363499733466,-40.311974519967976,tremor
184,3992510,1.191,-0.7548001190297242,-0.26003868443233574,0.46415449756354576,40.895891964173565,5.029469508871178,-39.649044224191975,tremor
185,3992514,1.195,-0.7481651712662643,-0.2628586570612207,0.467909405747672,40.06167508013772,6.520370239355469,-38.91253268880895,tremor
186,3992519,1.2,-0.7418066662402549,-0.26562855855158796,0.4712903506504338,39.20550767060381,7.983751675276721,-38.10869639396881,tremor
187,3992524,1.205,-0.7357553956463618,-0.2683390194191861,0.47428370752712085,38.335179138644946,9.407902978736832,-37.24420473496743,tremor
188,3992529,1.21,-0.7300392754532092,-0.2709817369653384,0.47687863764989796,37.45845288976779,10.781506331115207,-36.326097617149074,tremor
189,3992534,1.215,-0.724683305569422,-0.2735495715035871,0.47906701547734803,36.58300600558031,12.093757976583166,-35.3617367694913,tremor
190,3992539,1.22,-0.7197095683921146,-0.27603662342618623,0.48084335753489127,35.716367233264705,13.334490426313288,-34.3587508949614,tremor
191,3992544,1.225,-0.7151372577822106,-0.27843828883191957,0.48220475767228466,34.86585401717871,14.494292492381383,-33.324975053989306,tremor
192,3992548,1.229,-0.7109827296506166,-0.2807512920323466,0.48315083179949675,34.03850945956686,15.564623497742923,-32.26838494136033,tremor
193,3992553,1.234,-0.707259565626288,-0.2829736939255886,0.4836836734300721,33.24104023998567,16.53791781531829,-31.19702695001466,tremor
194,3992581,1.262,-0.703978642139785,-0.28510487595759937,0.48380781948087337,32.4797566437137,17.40767584035961,-30.118945107538828,tremor
195,3992585,1.266,-0.7011481985613617,-0.28714550015404433,0.4835302239114731,31.760515939354857,18.168537625658708,-29.042106117777973,tremor
196,3992590,1.271,-0.6987738995903583,-0.289097446457706,0.48286023509949566,31.088670384606928,18.81633576586684,-27.97432384044294,tremor
197,3992595,1.276,-0.696858888685658,-0.29096372928644676,0.48180957154004084,30.469021099651677,19.348124765020366,-26.923184600062807,tremor
198,3992605,1.286,-0.6954038307820485,-0.2927483957782364,0.48039228969966313,29.90577891758846,19.762185055570352,-25.895974740595552,tremor
199,3992610,1.291,-0.6944069437889794,-0.2944564085841684,0.4786247377138438,29.40253311763492,20.05800095676649,-24.899611838908104,tremor
200,3992614,1.295,-0.693864019454457,-0.2960935163123746,0.47652548904331354,28.96222870273697,20.23621302133703,-23.940580952027524,tremor
201,3992619,1.3,-0.693768435176668,-0.29766611483698985,0.47411525109310004,28.58715262723872,20.29854630792854,-23.024877182398452,tremor
202,3992624,1.305,-0.6941111593185554,-0.2991811026901237,0.4714167450320007,28.27892912979283,20.24771706936656,-22.15795569127294,tremor
203,3992629,1.31,-0.6948807535375527,-0.3006457336709721,0.4684545545131136,28.03852409211641,20.087321134620744,-21.344690079011237,tremor
204,3992634,1.315,-0.6960633765453487,-0.3020674696506325,0.46525494257412736,27.866258130692927,19.821707872982913,-20.58933980156082,tremor
205,3992638,1.319,-0.6976427944833766,-0.3034538363360294,0.46184563758457114,27.761827936321602,19.455844055756977,-19.89552702600521,tremor
206,3992643,1.324,-0.6996004036430563,-0.30481228449080383,0.45825559061769133,27.724335203162767,18.995172169242416,-19.266223061993415,tremor
207,3992648,1.329,-0.7019152714850605,-0.30615005880268137,0.45451470798770116,27.752322332487065,18.445467782153955,-18.70374425108648,tremor
208,3992653,1.334,-0.7045642017500191,-0.30747407624302353,0.4506535638593099,27.843813955896668,17.812700437031967,-18.20975695769928,tremor
209,3992658,1.339,-0.7075218288641347,-0.3087908153931943,0.4467030987761182,27.996363199132105,17.102902235556225,-17.785291085145385,tremor
210,3992662,1.343,-0.7107607458199476,-0.3101062178240404,0.4426943106570154,28.207101503430696,16.32204785155084,-17.430761340384787,tremor
211,3992667,1.348,-0.7142516682831048,-0.31142560222151633,0.43865794528052937,28.47279074090482,15.475949170976286,-17.14599529607462,tremor
212,3992672,1.353,-0.717963635905777,-0.31275359156808913,0.43462419353267073,28.789876307961276,14.570167162488538,-16.930267155795644,tremor
213,3992677,1.358,-0.7218642498187767,-0.3140940533331646,0.43062240275532687,29.154539860503704,13.60994295404062,-16.782336026825305,tremor
214,3992704,1.385,-0.7259199431656533,-0.3154500523148815,0.42668080941758235,29.56275037094634,12.600149449697925,-16.700487453934883,tremor
215,3992709,1.39,-0.7300962795120183,-0.3168238155282024,0.42282630004212723,30.010312247769495,11.545264175125359,-16.682576977881357,tremor
216,3992714,1.395,-0.7343582722432274,-0.31821670836599164,0.4190842068159007,30.492909379140997,10.44936338494648,-16.726074565912064,tremor
217,3992719,1.4,-0.7386707169097205,-0.3196292211811175,0.4154781435206675,31.006144161638513,9.31613678388801,-16.828108925186775,tremor
218,3992724,1.405,-0.7429985280691644,-0.3210609654476519,0.41202988626033005,31.545570857208943,8.148921494849883,-16.98551093765755,tremor
219,3992729,1.41,-0.7473070725001736,-0.3225106787417783,0.40875930192461546,32.10672296415143,6.950753163098325,-17.194855703503574,tremor
220,3992733,1.414,-0.7515624915390754,-0.3239762379111865,0.40568432547885636,32.68513465368153,5.724431357174269,-17.452502898988413,tremor
221,3992738,1.419,-0.7557320064639772,-0.32545467994816857,0.4028209851189192,33.276356677140775,4.47259577217162,-17.75463531097368,tremor
222,3992748,1.429,-0.7597842020866206,-0.3269422302252773,0.40018347220363976,33.875967463347564,3.1978092201921022,-18.09729549885713,tremor
223,3992758,1.439,-0.7636892848341961,-0.3284343378795534,0.39778425080351254,34.47958038067759,1.9026430574302036,-18.47642057068537,tremor
224,3992763,1.444,-0.7674193124915377,-0.32992571823406186,0.3956341998268,35.08284831643853,0.5897605893289022,-18.887875068882078,tremor
225,3992767,1.448,-0.770948393377928,-0.33141040222031964,0.3937427791615191,35.68146680967529,-0.7380058542437866,-19.327481967177942,tremor
226,3992772,1.453,-0.774252853082133,-0.3328817928123018,0.39211821024879184,36.271176952259744,-2.0775880681213215,-19.79105179926451,tremor
227,3992777,1.458,-0.7773113670806283,-0.3343327285047331,0.39076766106125566,36.8477691541893,-3.425628598639305,-20.274409973896184,tremor
228,3992782,1.463,-0.7801050577657319,-0.33575555386839295,0.389697425595507,37.407088678031,-4.778443296712063,-20.773422373726877,tremor
229,3992787,1.468,-0.7826175547577618,-0.3371421971942509,0.38891308863465474,37.94504361674027,-6.132001339622601,-21.28401937561702,tremor
230,3992792,1.473,-0.7848350179789829,-0.3384842551937627,0.3884196676092692,38.45761574635075,-7.481923305745641,-21.802218457922823,tremor
231,3992796,1.477,-0.7867461238890585,-0.3397730846475821,0.38822172479638184,38.94087444930766,-8.823496919095081,-22.324145566318144,tremor
232,3992801,1.482,-0.7883420165299627,-0.3409999007787242,0.38832344476567093,39.390993686228256,-10.151709147507045,-22.84605538805972,tremor
233,3992826,1.507,-0.7896162265507102,-0.342155881957612,0.3887286738316707,39.80427179768276,-11.461292485491782,-23.36435063355009,tremor
234,3992831,1.512,-0.7905645630465705,-0.3432322801188663,0.3894409202217453,40.177153743700316,-12.746782539292232,-23.875600345438194,tremor
235,3992836,1.517,-0.7911849846105116,-0.34422053598780117,0.39046331563247394,40.50625523843265,-14.002583542887049,-24.37655715395573,tremor
236,3992841,1.522,-0.7914774571238383,-0.3451123978982442,0.39179854071916076,40.788388115603205,-15.223038257006598,-24.86417328167253,tremor
237,3992845,1.526,-0.791443806214137,-0.34590004266397745,0.3934487187446728,41.02058617371532,-16.402498858495697,-25.335614987514834,tremor
238,3992850,1.531,-0.7910875718754411,-0.3465761966765766,0.39541528303318424,41.20013070332539,-17.53539583442747,-25.7882750509836,tremor
239,3992855,1.536,-0.7904138715846808,-0.3471342551680147,0.39769882499384757,41.32457489392081,-18.616302432916562,-26.219782853766368,tremor
240,3992860,1.541,-0.7894292765825586,-0.3475683974124768,0.4002989302791549,41.39176635523444,-19.639992803285836,-26.62801162778366,tremor
241,3992865,1.546,-0.7881417040564658,-0.34787369555554876,0.4032140111067527,41.39986706551011,-20.60149254171408,-27.011082504287504,tremor
242,3992870,1.551,-0.7865603259860027,-0.34804621475153247,0.40644114288678584,41.347370172244396,-21.49612092505076,-27.367365108822025,tremor
243,3992874,1.555,-0.7846954935763674,-0.3480831023585774,0.4099759130488536,41.233113210460246,-22.31952464920487,-27.695474590165873,tremor
244,3992884,1.565,-0.7825586746683322,-0.34798266408257633,0.4138122893528973,41.05628745883653,-23.067703374141864,-27.994265134460672,tremor
245,3992889,1.57,-0.7801624003967554,-0.34774442517057347,0.41794251401595983,40.81644331375757,-23.737027797769407,-28.2628201821603,tremor
246,3992893,1.574,-0.777520216746193,-0.3473691750298754,0.42235702873977465,40.51349171360492,-24.324251311938077,-28.50043971606498,tremor
247,3992898,1.579,-0.7746466365349333,-0.3468589939871316,0.42704443426023503,40.14770177833468,-24.826516507668526,-28.7066251054761,tremor
248,3992903,1.584,-0.7715570876960826,-0.34621726129714847,0.4319914864559976,39.71969493371579,-25.24135787595516,-28.881062064192808,tremor
249,3992908,1.589,-0.7682678544138525,-0.34544864395480446,0.43718312945072824,39.23043586281287,-25.56670199812569,-29.023602310478868,tremor
250,3992913,1.594,-0.7647960085887785,-0.3445590663413975,0.4426025646141049,38.68122067142603,-25.800866353650154,-29.134244516082173,tremor
251,3992917,1.598,-0.7611593301249966,-0.34355566123192394,0.4482313529877506,38.073662672142085,-25.942557615598552,-29.213115111885596,tremor
252,3992922,1.603,-0.7573762155557451,-0.3424467031827397,0.4540495474934939,37.40967618521937,-25.990869979564177,-29.260449490074432,tremor
253,3992950,1.631,-0.7534655754785503,-0.34124152578808414,0.46003585036624983,36.6914587258824,-25.94528371171853,-29.27657411188653,tremor
254,3992955,1.636,-0.7494467221139802,-0.33995042471227366,0.4661677906251273,35.92147190136527,-25.805663744500407,-29.26188999401784,tremor
255,3992959,1.64,-0.7453392490015813,-0.338584548736357,0.47242191608202627,35.102421284317394,-25.572257843243,-29.2168579961341,tremor
256,3992964,1.645,-0.7411629053756339,-0.33715578126418994,0.4787739944043784,34.23723546926663,-25.24569366685606,-29.14198625458593,tremor
257,3992969,1.65,-0.736937468091078,-0.33567661478883665,0.4851992180855151,33.32904446100673,-24.826973984902114,-29.037819997825817,tremor
258,3992974,1.655,-0.7326826140708281,-0.33416002073399403,0.49167240877920626,32.381157491646,-24.317469390978985,-28.904933843926994,tremor
259,3992979,1.66,-0.7284177961077337,-0.3326193168936552,0.4981682172446683,31.397040321102345,-23.718908043629757,-28.743926535733724,tremor
260,3992994,1.675,-0.7241621244818931,-0.33106803444302296,0.5046613160440803,30.380292051319646,-23.033362244762458,-28.555417932587115,tremor
261,3992998,1.679,-0.7199342562708051,-0.3295197862260624,0.5111265830633931,29.334621486205496,-22.263232006501536,-28.34004796662889,tremor
262,3993003,1.684,-0.7157522934897025,-0.3279881377724965,0.517539274813126,28.2638231027975,-21.4112261232564,-28.098477202182632,tremor
263,3993008,1.689,-0.7116336903920549,-0.32648648228316696,0.5238751892226636,27.17175276103153,-20.480341602774146,-27.831388618544857,tremor
264,3993013,1.694,-0.707595169497083,-0.32502792066026104,0.530110818187538,26.062303355656447,-19.473842562511816,-27.539490266538404,tremor
265,3993018,1.699,-0.703652645295677,-0.323625147547792,0.5362234904135376,24.93938068466682,-18.395239827692137,-27.22351851060344,tremor
266,3993023,1.704,-0.6998211541921393,-0.32229034427748976,0.5421915051157132,23.80687985714034,-17.24827245842562,-26.884241640932515,tremor
267,3993028,1.709,-0.6961147891075499,-0.3210350795710616,0.5479942568993437,22.66866258117636,-16.036892283943907,-26.522463712058816,tremor
268,3993037,1.718,-0.6925466373153574,-0.31987021881655914,0.5536123517209712,21.528535661006725,-14.765252243182719,-26.13902853297972,tremor
269,3993047,1.728,-0.6891287204938076,-0.3188058426998985,0.5590277132677964,20.39023099884945,-13.437698946258244,-25.73482380036397,tremor
270,3993074,1.755,-0.6858719366353262,-0.3178511759176691,0.5642236784934048,19.257387349999615,-12.058769416263539,-25.31078542720286,tremor
271,3993078,1.759,-0.6827860042904409,-0.31701452660932417,0.5691850805233193,18.133534024096754,-10.633191496238185,-24.86790216178235,tremor
272,3993083,1.764,-0.6798794105287856,-0.316303237013408,0.5738983168262213,17.02207666291203,-9.16588698314536,-24.407220596846884,tremor
273,3993088,1.769,-0.677159364800219,-0.31572364566905214,0.5783514005445577,15.926285155098626,-7.661976252500197,-23.929850622085663,tremor
274,3993093,1.774,-0.6746317613975753,-0.31528106125712235,0.5825339932297997,14.849283671807648,-6.126782998874606,-23.436971278087928,tremor
275,3993098,1.779,-0.6723011533515161,-0.3149797479215341,0.5864374178826014,13.794042726928424,-4.565837716856788,-22.929836847823346,tremor
276,3993108,1.789,-0.6701707403188684,-0.3148229216511293,0.5900546520488475,12.763373086744823,-2.9848786332321264,-22.409782897837648,tremor
277,3993112,1.793,-0.6682423724204634,-0.3148127570562689,0.5933803016517512,11.759921281264413,-1.3898489307771489,-21.878231874234643,tremor
278,3993117,1.798,-0.6665165711375959,-0.31495040365994437,0.5964105571463262,10.786166408745501,0.21311075023599307,-21.336697780187563,tremor
279,3993122,1.803,-0.6649925673980407,-0.31523601065637097,0.5991431343829613,9.844417881245473,1.8176754027584248,-20.786789420953358,tremor
280,3993127,1.808,-0.6636683559885374,-0.3156687589821081,0.6015772031974973,8.93681373622289,3.417355072338447,-20.23021170291593,tremor
281,3993132,1.813,-0.6625407645285043,-0.3162468995004792,0.6037133071651274,8.06531913874454,5.005521216116359,-19.668764511614174,tremor
282,3993137,1.818,-0.6616055345200347,-0.31696779611710885,0.6055532781482029,7.2317247198234975,6.575440484927516,-19.104338762420834,tremor
283,3993142,1.823,-0.6608574115206086,-0.3178279727150786,0.6071001492379513,6.437644436730709,8.120316270255755,-18.53890930982725,tremor
284,3993157,1.838,-0.6602902413079699,-0.3188231629112973,0.608358069455427,5.684512698125275,9.633338188973354,-17.974524512826267,tremor
285,3993161,1.842,-0.6598970690257031,-0.31994836177767916,0.6093322231641997,4.973580568027374,11.10773946874489,-17.413292381158413,tremor
286,3993166,1.847,-0.6596702386787424,-0.3211978788267982,0.6100287565887166,4.305910946479536,12.536861930569845,-16.857363366339648,tremor
287,3993171,1.852,-0.659601490922361,-0.3225653917170993,0.6104547131657352,3.6823727205380594,13.91422793054264,-16.308910008354566,tremor
288,3993203,1.884,-0.6596820577668479,-0.3240440002754365,0.6106179787233783,3.103633985493499,15.233618220465656,-15.770103799316036,tremor
289,3993208,1.889,-0.6599027535046058,-0.3256262805582282,0.6105272367278409,2.57015454823326,16.489154237276704,-15.24308977192356,tremor
290,3993212,1.893,-0.6602540617550193,-0.32730433877703724,0.6101919331114457,2.082178033158009,17.675382881787307,-14.729959448694961,tremor
291,3993217,1.898,-0.660726218921046,-0.3290698650047038,0.6096222495513106,1.6397240040390455,18.78736146387646,-14.232722878651993,tremor
292,3993222,1.903,-0.6613092945039892,-0.3309141866596718,0.6088290835476144,1.2425805834974482,19.820740230734142,-13.753280530530462,tremor
293,3993227,1.908,-0.6619932686391804,-0.3328283218411456,0.6078240332672086,0.8902980932855584,20.77183977935516,-13.293395811501036,tremor
294,3993232,1.913,-0.6627681069621477,-0.3348030326543911,0.606619384855954,0.5821842560341349,21.63772067665331,-12.854668952801319,tremor
295,3993237,1.918,-0.663623832578509,-0.33682887871952194,0.6052280997542924,0.3173014950378918,22.416242754964696,-12.438512960047847,tremor
296,3993242,1.923,-0.6645505945676755,-0.3388962710935554,0.6036637994533026,0.09446684261531417,23.106111804890926,-12.046132271181678,tremor
297,3993247,1.928,-0.6655387321593512,-0.34099552684998485,0.6019407450933114,-0.0877450826045433,23.706911737694497,-11.67850470088233,tremor
298,3993252,1.933,-0.6665788335265475,-0.34311692454942255,0.6000738093372391,-0.23099564505613704,24.21912071705533,-11.336367177511073,tremor
299,3993257,1.938,-0.6676617880698853,-0.34525076079781314,0.5980784380590944,-0.3371720246242147,24.644110243870603,-11.020205696094909,tremor
300,3993261,1.942,-0.6687788311408351,-0.347387408026507,0.5959705995913156,-0.4083731501112552,24.98412669850739,-10.730249816049444,tremor
301,3993266,1.947,-0.6699215803645898,-0.34951737354443163,0.5937667195884523,-0.4468917081668038,25.24225538491832,-10.466471923264201,tremor
302,3993271,1.952,-0.6710820630589852,-0.35163135981115334,0.5914835999985973,-0.4551923443372018,25.422367662372885,-10.22859135309814,tremor
303,3993276,1.957,-0.6722527346755061,-0.35372032576521983,0.5891383211884286,-0.435886310924994,25.529052274099815,-10.016083337029405,tremor
304,3993281,1.962,-0.6734264886762079,-0.355775548918282,0.5867481269312846,-0.39170294076962936,25.567532468959396,-9.828192597179983,tremor
305,3993286,1.967,-0.6745966587655853,-0.3577886877939883,0.5843302927158929,-0.32545843161343985,25.54357094574193,-9.663951277076414,tremor
306,3993291,1.972,-0.6757570148733988,-0.3597518441516586,0.5819019786304724,-0.2400225127840619,25.463365016779477,-9.522200770308732,tremor
307,3993295,1.976,-0.6769017546839616,-0.36165762428725295,0.5794800688820222,-0.13828363921333264,25.33343467900002,-9.401616894806196,tremor
308,3993321,2.002,-0.6780254927806975,-0.3634991985477503,0.5770810007856415,-0.02311342306401873,25.160506489018,-9.30073775990032,tremor
309,3993326,2.007,-0.679123249578655,-0.36527035803420776,0.5747205867725534,0.10266892771206872,24.95139625309753,-9.21799358715204,tremor
310,3993330,2.011,-0.6801904421172275,-0.3669655673190696,0.5724138335902758,0.2363313493401681,24.712893542332946,-9.151737680422302,tremor
311,3993335,2.016,-0.6812228784626022,-0.3685800118925359,0.5701747633739493,0.37526201143248866,24.45165090789996,-9.100277707733344,tremor
312,3993340,2.021,-0.6822167569411117,-0.37010963900993205,0.5680162416230856,0.5169999564023534,24.17408040476106,-9.061906466112914,tremor
313,3993345,2.026,-0.6831686707521393,-0.37155119065148023,0.5659498172971635,0.6592625659381106,23.886259671718555,-9.034931349281083,tremor
314,3993349,2.03,-0.6840756177841733,-0.37290222742299856,0.5639855802275561,0.7999692409643565,23.59384940850357,-9.017701817245943,tremor
315,3993354,2.035,-0.6849350147739118,-0.37416114240505627,0.5621320408153212,0.9372608098810393,23.302023668596288,-9.008634266726725,tremor
316,3993359,2.04,-0.6857447143836423,-0.3753271641812031,0.5603960365290838,1.0695143153453617,23.01541396343743,-9.006233814429203,tremor
317,3993369,2.05,-0.6865030233805618,-0.37640034852718435,0.5587826690285359,1.1953529644692442,22.738067755836433,-9.009112625486635,tremor
318,3993374,2.055,-0.6872087199084947,-0.3773815585093565,0.5572952748302841,1.313651155786231,22.473421514364553,-9.016004541134869,tremor
319,3993379,2.06,-0.6878610678419347,-0.37827243301143215,0.5559354313406181,1.4235346153184338,22.224288116619118,-9.025775877661864,tremor
320,3993384,2.065,-0.6884598263746761,-0.37907534397644643,0.554702998861605,1.5243757817750125,21.99285804085941,-9.037432378635964,tremor
321,3993389,2.07,-0.6890052532767554,-0.37979334290993716,0.5535961979038221,1.615784677498565,21.78071348479668,-9.050122401802929,tremor
322,3993394,2.075,-0.689498100604101,-0.38043009743687495,0.5526117198878333,1.6975955889403949,21.588854303919618,-9.063136510149045,tremor
323,3993399,2.08,-0.6899396020178762,-0.38098981893570255,0.5517448681607402,1.7698499598605306,21.41773447103822,-9.075903714326811,tremor
324,3993403,2.084,-0.6903314512317874,-0.38147718248493984,0.5509897252543642,1.8327759726671506,21.26730762245825,-9.08798468274786,tremor
325,3993408,2.089,-0.6906757714417314,-0.38189724054818247,0.5503393415074517,1.8867653580073591,21.137080170987563,-9.09906229788838,tremor
326,3993413,2.094,-0.6909750759024978,-0.382255331989083,0.549785939582703,1.9323480291310833,21.026170425123485,-9.108929993056334,tremor
327,3993418,2.099,-0.6912322201045153,-0.3825569881463591,0.5493211290290128,1.9701651843637293,20.93337214693177,-9.117478351314828,tremor
