sample,t_ms,t_s,ax,ay,az,gx,gy,gz,tremor
0,2360482,0.0,-0.8275209562992015,-0.027711784128191443,0.4844752169580963,-3.1894013983066043,-21.201909738537406,-0.6975594909769987,no_tremor
1,2360487,0.005,-0.8276180529611902,-0.027631321270215867,0.4855275848620749,-3.6532306566959853,-21.71933802210895,-1.1482495093874518,no_tremor
2,2360491,0.009,-0.8278346484563808,-0.027509923479773612,0.4870319070466787,-4.103794024792488,-21.998291429046308,-1.656196955467557,no_tremor
3,2360496,0.014,-0.8282319709632715,-0.02733933716255481,0.48905390550702293,-4.537933666541982,-22.01380666094804,-2.223171253684669,no_tremor
4,2360501,0.019,-0.8288646646338859,-0.027118223111454398,0.49158335260828534,-4.952470974825238,-21.74106152046794,-2.850656263033172,no_tremor
5,2360506,0.024,-0.8297733336225862,-0.02685075926044054,0.4945622800932005,-5.344229691286667,-21.15557318386733,-3.5398212792912767,no_tremor
6,2360511,0.029,-0.8309847378398549,-0.0265442771424624,0.49791584031226876,-5.7100599953140305,-20.233404399730855,-4.291493168317707,no_tremor
7,2360516,0.034,-0.8325150817151017,-0.026207506096353143,0.5015708250088936,-6.046863414412293,-18.951376198751717,-5.106129980296529,no_tremor
8,2360521,0.039,-0.8343733929758536,-0.025849651904030616,0.505462933104222,-6.351618397477808,-17.287285573960034,-5.98379639624234,no_tremor
9,2360526,0.044,-0.8365639108319807,-0.025480061914321128,0.5095375469416301,-6.621406381394932,-15.220126470791383,-6.924141356160306,no_tremor
10,2360530,0.048,-0.8390874563899604,-0.025108192518373915,0.5137478176571976,-6.853438169589447,-12.7303123133153,-7.926378213139491,no_tremor
11,2360535,0.053,-0.8419420839315638,-0.024743691386797256,0.5180521403919544,-7.045080428962753,-9.799898189747447,-8.989267748912688,no_tremor
12,2360540,0.058,-0.8451233089178297,-0.024396498420934495,0.52241189343563,-7.1938821003023845,-6.412800731016723,-10.111104373314973,no_tremor
13,2360545,0.063,-0.8486241196049729,-0.02407692574370881,0.5267896902113105,-7.297600508499406,-2.5550136446931537,-11.28970581204721,no_tremor
14,2360550,0.068,-0.8524348964257868,-0.02379570523575238,0.5311481318334182,-7.3542269534144795,1.7851831839106804,-12.522406563887412,no_tremor
15,2360560,0.078,-0.8565433070157347,-0.02356400401840312,0.5354489663732256,-7.362011559286074,6.617023140058784,-13.806055379832204,no_tremor
16,2360565,0.083,-0.8609342113393084,-0.02339341223996881,0.5396525537208818,-7.319487158836695,11.947063001730584,-15.137016982671652,no_tremor
17,2360590,0.108,-0.8655895930277833,-0.02329590810340516,0.5437175521900707,-7.225491986714917,17.779005850758846,-16.5111782068052,no_tremor
18,2360595,0.113,-0.8704885235328879,-0.023283804466432852,0.5476007643018187,-7.07919095519328,24.113538865320567,-17.923958696148635,no_tremor
19,2360600,0.118,-0.8756071610346287,-0.023369680483894442,0.551257097514115,-6.880095283383004,30.948188049954172,-19.3703262550059,no_tremor
20,2360605,0.123,-0.8809187839040368,-0.02356630099327933,0.5546396095333491,-6.6280802506970415,38.27719190566043,-20.844816904607388,no_tremor
21,2360610,0.128,-0.886393857648171,-0.023886525760507704,0.5576996176755251,-6.323400847264231,46.091395965453906,-22.341559656270697,no_tremor
22,2360615,0.133,-0.8920001339833187,-0.024343210299025787,0.5603868584418484,-5.966705099146267,54.3781700157032,-23.854305968290806,no_tremor
23,2360620,0.138,-0.8977027806425179,-0.024949099715795127,0.5626496879002327,-5.559044854230976,63.12134969037428,-25.37646380539375,no_tremor
24,2360625,0.143,-0.9034645405481314,-0.025716716884756255,0.5644353163097298,-5.10188382506693,72.30120396643945,-26.90113616652361,no_tremor
25,2360629,0.147,-0.9092459189862657,-0.026658246169919967,0.5656900721940323,-4.597102697710411,81.89442990823002,-28.4211638898905,no_tremor
26,2360634,0.152,-0.9150053973750162,-0.02778541389235932,0.5663596921194791,-4.047001131171136,91.87417581163207,-29.929172484939134,no_tremor
27,2360639,0.157,-0.9206996721169781,-0.02910936674081678,0.566389633008905,-3.4542964899598165,102.21009369173342,-31.417622680849696,no_tremor
28,2360644,0.162,-0.926283916875559,-0.03064054935219504,0.5657254040941193,-2.8221191714139438,112.86842184460441,-32.87886432235795,no_tremor
29,2360649,0.167,-0.9317120664278992,-0.03238858232692066,0.5643129156921353,-2.154004408600601,123.81209799788923,-34.30519318788204,no_tremor
30,2360654,0.172,-0.936937120040781,-0.03436214198789728,0.5620988419625024,-1.4538804479821914,135.0009033473857,-35.688910253223575,no_tremor
31,2360659,0.177,-0.9419114621069683,-0.03656884323404414,0.5590309947192811,-0.726053018708273,146.3916375592213,-37.02238287679234,no_tremor
32,2360664,0.182,-0.9465871975850193,-0.039015126873943304,0.5550587052677434,0.024813972390974055,157.93832459947453,-38.29810733932376,no_tremor
33,2360669,0.187,-0.9509164996204782,-0.041706152845703816,0.5501332111361351,0.7937215689956204,169.59244903226582,-39.508772132286516,no_tremor
34,2360673,0.191,-0.9548519666004461,-0.04464570072998462,0.5442080444907078,1.5753627479559424,181.30322219831257,-40.647321354572355,no_tremor
35,2360678,0.196,-0.9583469858112513,-0.04783607893914325,0.5372394189652916,2.36415326819707,193.01787744134168,-41.70701754645072,no_tremor
36,2360683,0.201,-0.9613561008298301,-0.05127804391281567,0.5291866116084737,3.154266374748085,204.6819932782724,-42.68150326247358,no_tremor
37,2360688,0.206,-0.9638353797791424,-0.05497073056658664,0.5200123366527827,3.9396713193397574,216.23984309536587,-43.56486065987641,no_tremor
38,2360715,0.233,-0.9657427816079306,-0.05891159512561319,0.5096831078396232,4.714175625970294,227.63476958165768,-44.351668355262035,no_tremor
39,2360720,0.238,-0.9670385176001104,-0.06309637133253107,0.498169586086298,5.471470989067253,238.80958167708104,-45.037054781560016,no_tremor
40,2360725,0.243,-0.967685405353218,-0.06751904085812832,0.48544690934793655,6.205182639194397,249.70697132832277,-45.61674726583303,no_tremor
41,2360729,0.247,-0.9676492124546686,-0.07217181857967879,0.47149500159533225,6.908921942114193,260.26994684229464,-46.08711605670994,no_tremor
42,2360734,0.252,-0.9668989870017834,-0.07704515324164232,0.45629885789208624,7.57634191101453,270.44227914153515,-46.44521256583221,no_tremor
43,2360739,0.257,-0.9654073719530903,-0.08212774388552171,0.43984880261586734,8.201195214734023,280.1689567829179,-46.688801150904176,no_tremor
44,2360744,0.262,-0.9631509000875336,-0.08740657232878406,0.4221407179453329,8.777394165638079,289.39664521424965,-46.816383854042705,no_tremor
45,2360749,0.267,-0.9601102661237451,-0.09286695187893915,0.40317623984595174,9.299072076038227,298.0741454251867,-46.82721761490582,no_tremor
46,2360754,0.272,-0.9562705723556593,-0.09849259237805584,0.382962918950431,9.760645284209357,306.1528469154559,-46.721323603767466,no_tremor
47,2360759,0.277,-0.9516215440330135,-0.10426568157575401,0.36151434395175297,10.156875070323633,313.5871697683381,-46.499488464326504,no_tremor
48,2360764,0.282,-0.9461577106903348,-0.11016698271749695,0.3388502254108212,10.4829286112701,320.33499058390987,-46.163257411322604,no_tremor
49,2360769,0.287,-0.9398785497347016,-0.1161759481048812,0.3149964382215916,10.73443806839733,326.3580470876887,-45.7149192793012,no_tremor
50,2360774,0.292,-0.9327885888622514,-0.12227084823345392,0.2899850213653904,10.907556871868977,331.6223163782591,-45.15748375415063,no_tremor
51,2360779,0.297,-0.9248974642968627,-0.12842891594170494,0.2638541340131683,10.99901226256132,336.09836200770417,-44.49465113618112,no_tremor
52,2360788,0.306,-0.9162199324290189,-0.134626504814351,0.23664796749085823,11.006153173786162,339.7616453940897,-43.730775087646,no_tremor
53,2360793,0.311,-0.9067758331623098,-0.1408392608776958,0.20841661309913367,10.926992574457266,342.59279743144776,-42.8708189137468,no_tremor
54,2360803,0.321,-0.8965900041208131,-0.14704230641212798,0.17921588626022675,10.760243446891858,344.57784657222805,-41.92030601510749,no_tremor
55,2360808,0.326,-0.8856921457919862,-0.15321043449955962,0.14910710792895876,10.505347631508084,345.7084000948308,-40.88526522874501,no_tremor
56,2360813,0.331,-0.8741166386238376,-0.15931831273688057,0.11815684462708892,10.162496834424354,345.98177572212234,-39.77217184061462,no_tremor
57,2360841,0.359,-0.8619023140012702,-0.1653406943888827,0.0864366088202851,9.732645162931275,345.4010812155638,-38.58788510485821,no_tremor
58,2360846,0.364,-0.8490921818341528,-0.17125263512256095,0.05402252164893524,9.217512631669985,343.9752400294072,-37.33958314306767,no_tremor
59,2360851,0.369,-0.8357331181438107,-0.1770297133492546,0.02099494024760827,8.619579174477668,341.718961577459,-36.034696118846746,no_tremor
60,2360856,0.374,-0.8218755164904018,-0.18264825209238345,-0.0125619479596486,7.942068809372773,338.6526551595467,-34.68083858333696,no_tremor
61,2360861,0.379,-0.8075729073228418,-0.1880855401902782,-0.046560561521665,7.188923742726733,334.80228713546904,-33.285741863083175,no_tremor
62,2360865,0.383,-0.7928815493814391,-0.19332005053162862,-0.08091038929557479,6.364768366140975,330.19918153029073,-31.857187315970403,no_tremor
63,2360871,0.389,-0.7778599972046492,-0.19833165290306976,-0.11551848038687029,5.474863293910182,324.87976490555207,-30.40294122048125,no_tremor
64,2360875,0.393,-0.7625686486584738,-0.20310181890464463,-0.15028995724516356,4.5250498034907825,318.88525703182853,-28.93069199285501,no_tremor
65,2360880,0.398,-0.7470692762803809,-0.20761381626257505,-0.18512854946523866,3.52168526683822,312.26130964313853,-27.447990348231667,no_tremor
66,2360885,0.403,-0.731424546150717,-0.21185288974644467,-0.21993714580458387,2.4715703878013437,305.0575963325041,-25.962192937673972,no_tremor
67,2360890,0.408,-0.7156975279980516,-0.21580642578976153,-0.25461836184421965,1.3818692822164433,297.32735744316983,-24.480409905748715,no_tremor
68,2360895,0.413,-0.6999512003209394,-0.21946409783359588,-0.2890751205855319,0.26002364416288776,289.12690459769004,-23.009456726054268,no_tremor
69,2360900,0.418,-0.6842479544645749,-0.22281798938144234,-0.32321124309212934,-0.8863375783734868,280.51509025914453,-21.555810587868365,no_tremor
70,2360905,0.423,-0.6686491018128701,-0.22586269179013974,-0.3569320460538968,-2.049491436499023,271.5527484064481,-20.12557152942468,no_tremor
71,2360910,0.428,-0.653214388522588,-0.22859537394503027,-0.3901449428706242,-3.2217155122183736,262.30211300392546,-18.72442844549849,no_tremor
72,2360915,0.433,-0.6380015225101269,-0.23101582119174838,-0.4227600445241251,-4.3953820430237425,252.82622143307887,-17.35763004078273,no_tremor
73,2360919,0.437,-0.6230657176757407,-0.23312644123178683,-0.4546907561317099,-5.563049962588374,243.18831041201287,-16.029960755012493,no_tremor
74,2360924,0.442,-0.6084592605862329,-0.23493223513940006,-0.4858543646564792,-6.717553227273784,233.4512121374917,-14.745721647481005,no_tremor
75,2360929,0.447,-0.5942311050059649,-0.23644073222340814,-0.5161726128047256,-7.852083875091908,223.67675843813097,-13.508716193499348,no_tremor
76,2360934,0.452,-0.5804264997349871,-0.23766188813343903,-0.5455722536870857,-8.960268368464188,213.9252006309177,-12.322240911658133,no_tremor
77,2360939,0.457,-0.5670866551485243,-0.23860794638492822,-0.5739855803762488,-10.03623590496424,204.2546525405549,-11.189080710211478,no_tremor
78,2360967,0.485,-0.5542484536048992,-0.2392932643340201,-0.6013509240732661,-11.074677542086201,194.72056378414734,-10.111508817411833,no_tremor
79,2360977,0.495,-0.5419442084766745,-0.23973410554893868,-0.6276131142158092,-12.070895172197199,185.3752299492197,-9.091291146109898,no_tremor
80,2360982,0.5,-0.5302014759378902,-0.2399484014654844,-0.652723893571954,-13.020839600742182,176.2673457008302,-8.129694933421224,no_tremor
81,2360986,0.504,-0.5190429227816464,-0.23995548613708756,-0.6766422812420344,-13.921137222878764,167.44160614621475,-7.227501482383549,no_tremor
82,2360991,0.509,-0.5084862524419979,-0.23977580874510512,-0.6993348766156281,-14.769105056293903,158.9383609908981,-6.385022806135705,no_tremor
83,2361026,0.544,-0.49854419009870166,-0.2394306292809435,-0.7207760977255125,-15.562754160932615,150.79332519604344,-5.602121936210407,no_tremor
84,2361031,0.549,-0.4892245263529702,-0.23894170341840199,-0.74094834807051,-16.3007817463236,143.0373490472464,-4.878236612648274,no_tremor
85,2361036,0.554,-0.4805302176097019,-0.23833096303144433,-0.7598421067897736,-16.98255251916067,135.69624978613115,-4.212406033417232,no_tremor
86,2361040,0.558,-0.47245954012139507,-0.23762019903579176,-0.7774559380254839,-17.608070042883075,128.7907062185968,-3.603300308829312,no_tremor
87,2361045,0.563,-0.4650062937358963,-0.23683075320413946,-0.7937964163920419,-18.177939058192788,122.33621697403662,-3.049252244481808,no_tremor
88,2361050,0.568,-0.4581600507647978,-0.23598322532381877,-0.8088779666612939,-18.693319850440332,116.34312234426442,-2.5482910636118263,no_tremor
89,2361055,0.573,-0.4519064450055754,-0.2350972015737853,-0.8227226170508325,-19.155875854491313,110.81668889187442,-2.0981776762058977,no_tremor
90,2361060,0.578,-0.44622749573700343,-0.234191009353041,-0.8353596668403344,-19.56771576626794,105.75725530065424,-1.6964411065500808,no_tremor
91,2361087,0.605,-0.44110196140088315,-0.23328150304676526,-0.8468252704183149,-19.93133148536058,101.16043725552143,-1.340415700859451,no_tremor
92,2361091,0.609,-0.4365057176390151,-0.23238388440887167,-0.8571619412599976,-20.24953324556992,97.0173884879937,-1.0272787489596396,no_tremor
93,2361106,0.624,-0.43241215434506547,-0.23151156039962612,-0.8664179807330532,-20.525383297529956,93.3151144963006,-0.7540881648330704,no_tremor
94,2361111,0.629,-0.42879258640348406,-0.2306760404658232,-0.8746468379913103,-20.762129484067525,90.03683483036166,-0.5178198769974292,no_tremor
95,2361116,0.634,-0.4256166728201439,-0.2298868744037263,-0.8819064085143037,-20.963139990780704,87.16238920888162,-0.3154045808871665,no_tremor
96,2361121,0.639,-0.4228528390063872,-0.22915163111106285,-0.8882582800568809,-21.131840464123435,84.66868211027897,-0.1437635046618092,no_tremor
97,2361126,0.644,-0.42046869706532686,-0.2284759177195874,-0.8937669358756715,-21.27165457523486,82.53015986307203,0.00015715931496332151,no_tremor
98,2361131,0.649,-0.41843145905048584,-0.22786343780764096,-0.8984989260988044,-21.385948978876158,80.7193136673836,0.11935350128646659,no_tremor
99,2361136,0.654,-0.4167083383242885,-0.22731608662514363,-0.9025220190100999,-21.477983479765385,79.20720141467362,0.21673315685086272,no_tremor
100,2361185,0.703,-0.4152669343387689,-0.22683408052351078,-0.9059043448376979,-21.5508670771093,77.96398063865148,0.295086915074208,no_tremor
