sample,t_ms,t_s,ax,ay,az,gx,gy,gz,tremor
0,2357887,0.0,-0.7561979017326766,-0.09453320671524644,0.5420494250311385,-0.05379254146609231,7.956616230324209,-1.1448885924627008,no_tremor
1,2357892,0.005,-0.7564725821079659,-0.09461524915606193,0.5416190632469325,-0.1959563768904981,7.436152398461656,-1.083894892498317,no_tremor
2,2357896,0.009,-0.7568379972466449,-0.09472584052840521,0.5410199334362089,-0.3440855311933974,6.842064541312489,-1.0153345860664873,no_tremor
3,2357901,0.014,-0.7572939172080827,-0.09486558990875192,0.5402372899904135,-0.49826474813380844,6.174741499490739,-0.940011140880058,no_tremor
4,2357906,0.019,-0.757822009008084,-0.0950293051686487,0.5392880850634384,-0.6585375066847462,5.435394295759568,-0.8588818693860536,no_tremor
5,2357911,0.024,-0.7583967820123361,-0.09520900782616581,0.5382072157161694,-0.8248993920364359,4.62611754949771,-0.7730607217073155,no_tremor
6,2357916,0.029,-0.7589943779045233,-0.09539649932885264,0.5370341345681142,-0.99729148637737,3.749947337060916,-0.6838197547599293,no_tremor
7,2357921,0.034,-0.7595966375784675,-0.09558461517456883,0.535805405480234,-1.17559386730719,2.8109147130368015,-0.5925891754354866,no_tremor
8,2357925,0.038,-0.7601919070694284,-0.09576752611931273,0.5345521444966702,-1.3596192935811278,1.8140941382791755,-0.5009558671804129,no_tremor
9,2357930,0.043,-0.7607743543143687,-0.09594058390042465,0.5333000745606452,-1.549107149175031,0.7656460951511603,-0.410660320897265,no_tremor
10,2357935,0.048,-0.7613428905682224,-0.09610003445934238,0.5320705437833458,-1.7437177086137319,-0.32714679590773027,-0.3235919028769088,no_tremor
11,2357940,0.053,-0.7619001749513314,-0.09624274775071724,0.5308816655950882,-1.9430267800285732,-1.455850813918758,-0.24178240433386244,no_tremor
12,2357945,0.058,-0.7624518378559466,-0.09636601171041623,0.5297492609778367,-2.1465207779958897,-2.6108599576743448,-0.1673978287656149,no_tremor
13,2357950,0.063,-0.7630059150313929,-0.09646739304536027,0.5286875361236963,-2.3535922761399743,-3.781383153292213,-0.10272838471493602,no_tremor
14,2357955,0.068,-0.7635724416091099,-0.09654465270669926,0.5277095256065795,-2.5635360900510307,-4.955440429153483,-0.05017666305444888,no_tremor
15,2357960,0.073,-0.7641631537962134,-0.09659570190200385,0.5268273553546345,-2.7755459443345143,-6.11986861050418,-0.01224399045554761,no_tremor
16,2357965,0.078,-0.7647912568493503,-0.09661858675523295,0.5260523762419146,-2.988711783131609,-7.260337052280904,0.008485035123868463,no_tremor
17,2357969,0.082,-0.7654712300056727,-0.096611492727468,0.5253952080429989,-3.20201779056052,-8.361373889052345,0.009359805045652925,no_tremor
18,2357974,0.087,-0.7662186488499951,-0.09657276249638068,0.5248657224487551,-3.4143411958248127,-9.40640323720748,-0.012317283266469097,no_tremor
19,2358009,0.122,-0.7670500126779181,-0.0965009229225966,0.5244729850615076,-3.6244519471707344,-10.377793739039138,-0.059270113743137204,no_tremor
20,2358014,0.127,-0.7679825692413704,-0.09639471808198474,0.5242251699598156,-3.8310133491403207,-11.25691879095193,-0.1342265266561913,no_tremor
21,2358019,0.132,-0.7690341324569596,-0.09625314625513554,0.5241294561045902,-4.032583766970697,-12.024228742225311,-0.23989449132543061,no_tremor
22,2358024,0.137,-0.770222890753081,-0.0960754993633278,0.5241919120169264,-4.227619507372008,-12.65933527557386,-0.37893691749191183,no_tremor
23,2358029,0.142,-0.7715672051268254,-0.0958614037172125,0.5244173733411516,-4.414478983772441,-13.141108079552177,-0.5539452800323588,no_tremor
24,2358034,0.147,-0.7730853969468873,-0.09561086116878412,0.5248093167727805,-4.591428266570388,-13.447783799844315,-0.7674122656774153,no_tremor
25,2358039,0.152,-0.7747955262436643,-0.09532428988064039,0.5253697331372303,-4.756648106791201,-13.557087122363924,-1.0217036819781946,no_tremor
26,2358043,0.156,-0.7767151617720104,-0.09500256398720537,0.5260990019840444,-4.9082425061455375,-13.44636370509942,-1.3190298964017275,no_tremor
27,2358048,0.161,-0.7788611445703508,-0.09464705144707014,0.5269957698006061,-5.044248888167422,-13.092724542986582,-1.661417096315555,no_tremor
28,2358053,0.166,-0.7812493470994499,-0.09425964939151636,0.5280568337747085,-5.162649904099529,-12.473201223207308,-2.050678678088643,no_tremor
29,2358058,0.171,-0.7838944303360815,-0.09384281627314298,0.5292770328989846,-5.261386884338993,-11.564911407497636,-2.4883870854638035,no_tremor
30,2358063,0.176,-0.7868096014231616,-0.09339960011795688,0.5306491480825035,-5.338374922885475,-10.345233761999,-2.9758464244682634,no_tremor
31,2358068,0.181,-0.7900063746362257,-0.09293366218965374,0.5321638127992498,-5.391519559216149,-8.79199144211397,-3.514066185298845,no_tremor
32,2358073,0.186,-0.7934943385134421,-0.09244929539002623,0.5338094356528722,-5.4187349991132905,-6.883643128081024,-4.103736401131101,no_tremor
33,2358078,0.191,-0.7972809320120162,-0.09195143674738254,0.535572136072061,-5.417963792484863,-4.599480495233546,-4.745204569699649,no_tremor
34,2358083,0.196,-0.8013712325015682,-0.09144567338761937,0.5374356941757064,-5.387197862110869,-1.9198308909380983,-5.438454656324474,no_tremor
35,2358087,0.2,-0.8057677582928484,-0.09093824144163153,0.5393815156681259,-5.324500753235724,1.173736120160446,-6.183088487633308,no_tremor
36,2358092,0.205,-0.8104702882386965,-0.09043601741896572,0.5413886124490466,-5.228030950697846,4.698199786126053,-6.978309833670501,no_tremor
37,2358097,0.21,-0.815475700745031,-0.08994650167132932,0.5434335994569158,-5.096066088175649,8.668878312362637,-7.82291146152661,no_tremor
38,2358123,0.236,-0.8207778343044568,-0.08947779368020202,0.5454907081127468,-4.92702785336087,13.099219743915313,-8.715265424980132,no_tremor
39,2358128,0.241,-0.8263673714257345,-0.08903855902829813,0.547531816599175,-4.719507373382609,18.000595280877178,-9.653316831385776,no_tremor
40,2358133,0.246,-0.8322317475926123,-0.08863798805007013,0.5495264970985125,-4.472290845651848,23.382096791510914,-10.63458129943341,no_tremor
41,2358138,0.251,-0.8383550866597024,-0.08828574629353815,0.5514420800249716,-4.184385159018854,29.250340364934694,-11.656146290156386,no_tremor
42,2358142,0.255,-0.8447181638904112,-0.08799191705496914,0.5532437352170094,-3.8550432283122027,35.60927783392702,-12.714676459098621,no_tremor
43,2358147,0.26,-0.8512983976611039,-0.08776693636223157,0.5548945699993136,-3.4837887433762864,42.46001828778044,-13.806423139454829,no_tremor
44,2358152,0.265,-0.8580698706858606,-0.08762152087907528,0.5563557439717345,-3.070440014039066,49.80066166808571,-14.927238023614303,no_tremor
45,2358157,0.27,-0.8650033814433329,-0.08756658928129891,0.5575866003269365,-2.615132577229976,57.62614658577322,-16.072591064096297,no_tremor
46,2358162,0.275,-0.8720665262993637,-0.08761317771839604,0.5585448134349599,-2.11834022299692,65.92811451432827,-17.237592565924565,no_tremor
47,2358167,0.28,-0.879223812608578,-0.08777235002309174,0.5591865523597135,-1.5808940921018813,74.69479250612606,-18.417019393119855,no_tremor
48,2358172,0.285,-0.8864368028424131,-0.08805510336886008,0.5594666598907327,-1.0039994974486766,83.91089655146719,-19.605345163585817,no_tremor
49,2358177,0.29,-0.8936642895321527,-0.088472270104935,0.5593388465861915,-0.38925012311056717,93.55755765660996,-20.796774259695106,no_tremor
50,2358182,0.295,-0.9008625005394985,-0.08903441652235312,0.5587558992337623,0.26136074228395184,103.61227265902431,-21.985279436703898,no_tremor
51,2358187,0.3,-0.9079853338827606,-0.08975173932578803,0.5576699030480019,0.9454322759691409,114.04888172453323,-23.164642768548795,no_tremor
52,2358191,0.304,-0.9149846210640536,-0.09063396060653518,0.556032476839213,1.660151825131607,124.8375743797232,-24.328499631377206,no_tremor
53,2358196,0.309,-0.921810417572473,-0.0916902221337561,0.553795020310688,2.4022945614645366,135.94492581929836,-25.47038538941045,no_tremor
54,2358201,0.314,-0.9284113189901607,-0.09292897980531264,0.5509089725690379,3.168227383057912,147.33396508427347,-26.58378441509409,no_tremor
55,2358206,0.319,-0.9347348009105387,-0.09435789912690427,0.5473260808651029,3.9539173316245964,158.96427652425774,-27.662181045584553,no_tremor
56,2358211,0.324,-0.9407275806945158,-0.0959837526185985,0.5429986785194063,4.754944754030284,170.792135727969,-28.699112049504322,no_tremor
57,2358216,0.329,-0.9463359989381989,-0.09781232008023182,0.5378799709248685,5.566521388109112,182.77068082420473,-29.688220149216082,no_tremor
58,2358221,0.334,-0.9515064183945305,-0.0998482926799964,0.5319243284593235,6.38351349495672,194.85011971440994,-30.623308111389626,no_tremor
59,2358247,0.36,-0.9561856379657243,-0.10209518186186378,0.5250875850801203,7.200470094593065,206.97797339152945,-31.498392880509673,no_tremor
60,2358252,0.365,-0.9603213192430563,-0.1045552340948014,0.5173273413102034,8.011656290319511,219.09935502640096,-32.307759188324646,no_tremor
61,2358257,0.37,-0.9638624228909579,-0.10722935250637364,0.5086032702525839,8.811091590731031,231.15728397300768,-33.04601203396395,no_tremor
62,2358262,0.375,-0.9667596519295347,-0.11011702645043914,0.4988774251762136,9.592593059032826,243.09303328214293,-33.70812740340751,no_tremor
63,2358267,0.38,-0.9689658986519891,-0.1132162700483283,0.48811454709053853,10.349823039151106,254.8465087481475,-34.28950058867508,no_tremor
64,2358272,0.385,-0.9704366915314439,-0.11652357071186163,0.47628237056751116,11.076341129426181,266.3566569647522,-34.78599147586166,no_tremor
65,2358277,0.39,-0.9711306380558619,-0.12003384860412597,0.4633519258878054,11.765660000067598,277.5618993413261,-35.1939661929431,no_tremor
66,2358282,0.395,-0.9710098590199144,-0.12374042792147623,0.44929783539559015,12.411304582740463,288.4005885331381,-35.510334540135574,no_tremor
67,2358287,0.4,-0.9700404094383156,-0.12763502079055183,0.43409860175572995,13.006874101498923,298.8114832738455,-35.73258266666028,no_tremor
68,2358292,0.405,-0.9681926809600099,-0.13170772447058826,0.4177368856294225,13.54610636419172,308.73423717489777,-35.85880050771005,no_tremor
69,2358296,0.409,-0.9654417804813388,-0.1359470324372778,0.40019977012888924,14.022943691945956,318.10989668770657,-35.88770355371279,no_tremor
70,2358306,0.419,-0.961767879594232,-0.14033985980265565,0.3814790092876258,14.431599830812955,326.8814031225792,-35.818648590671316,no_tremor
71,2358311,0.424,-0.9571565295711953,-0.1448715833983177,0.36157125769695636,14.766627163047602,334.994093391205,-35.651643126273626,no_tremor
72,2358316,0.429,-0.9515989367874574,-0.1495260967192398,0.34047827841659056,15.022983512957229,342.39619399109677,-35.387348302383,no_tremor
73,2358321,0.434,-0.945092193814519,-0.15428587979545394,0.318207126268642,15.19609781918787,349.03930268387717,-35.02707519011298,no_tremor
74,2358326,0.439,-0.9376394618858169,-0.15913208393119474,0.2947703036737925,15.281933917302158,354.8788523316616,-34.57277446689312,no_tremor
75,2358330,0.443,-0.9292501010231355,-0.16404463112652895,0.27018588629145496,15.277051641695358,359.874551431972,-34.02701958179717,no_tremor
76,2358335,0.448,-0.9199397448019239,-0.16900232787395558,0.24447761589300285,15.178664415790069,363.9907960100045,-33.3929836207945,no_tremor
77,2358340,0.453,-0.9097303174994236,-0.1739829929004607,0.21767495813879695,14.984692457982014,367.1970476703045,-32.674410182241964,no_tremor
78,2358345,0.458,-0.8986499921839428,-0.17896359830259423,0.18981312325312907,14.693810692674813,369.46817276853676,-31.875578661036815,no_tremor
79,2358372,0.485,-0.8867330891380407,-0.1839204233969225,0.16093304799719313,14.305490424356579,370.7847378358817,-31.00126441721314,no_tremor
80,2358377,0.49,-0.8740199148289272,-0.1888292204791251,0.13108133781627607,13.820033809123352,371.1332565866004,-30.05669437482577,no_tremor
81,2358382,0.495,-0.860556542399135,-0.1936653915504741,0.1003101685459728,13.238600143451865,370.50638410565784,-29.047498662108364,no_tremor
82,2358387,0.5,-0.8463945352926714,-0.19840417492936177,0.06867714753908717,12.563222990276106,368.90305421135076,-27.97965896107513,no_tremor
83,2358392,0.505,-0.8315906161157018,-0.2030208405176422,0.03624513445344708,11.796817190272419,366.328556559049,-26.8594542782096,no_tremor
84,2358397,0.51,-0.8162062831608619,-0.20749089233731613,0.0030820221877736823,10.943174877982857,362.79455078116075,-25.693404874988172,no_tremor
85,2358402,0.515,-0.8003073772499972,-0.21179027679339474,-0.030739521421480898,10.006949752384044,358.31901579080386,-24.488215108266104,no_tremor
86,2358407,0.52,-0.7839636017397369,-0.21589559495426344,-0.0651423504892718,8.993629048217352,352.9261332625291,-23.250715925247736,no_tremor
87,2358411,0.524,-0.7672479987510478,-0.21978431697148665,-0.10004517591041831,7.909492918163908,346.64610521863096,-21.987807732380688,no_tremor
88,2358416,0.529,-0.7502363849776545,-0.22343499658612045,-0.1353629374982327,6.761561257968628,339.5149065894696,-20.70640430941001,no_tremor
89,2358421,0.534,-0.7330067508344337,-0.22682748348776574,-0.17100721279954986,5.557528369205796,331.5739745842763,-19.413378371103583,no_tremor
90,2358426,0.539,-0.7156386272464337,-0.22994313110673553,-0.20688666189236166,4.3056862320402605,322.8698377105472,-18.11550929723203,no_tremor
91,2358431,0.544,-0.698212425056985,-0.2327649972324365,-0.24290750732311725,3.0148375220537247,313.4536883208636,-16.8194334665318,no_tremor
92,2358436,0.549,-0.6808087528372498,-0.23527803466941305,-0.27897404806983106,1.694199819896632,303.38090364937426,-15.53159755180125,no_tremor
93,2358441,0.554,-0.6635077197804417,-0.23746926897702111,-0.3149892059963829,0.35330270757357,292.7105214175111,-14.258215065384196,no_tremor
94,2358446,0.559,-0.6463882313179031,-0.23932796020323077,-0.3508551026743878,-0.9981203871375128,281.50467719704324,-13.005226385593033,no_tremor
95,2358450,0.563,-0.6295272860456036,-0.24084574543416704,-0.3864736636879742,-2.350243639792029,269.8280117293588,-11.778262440079708,no_tremor
96,2358455,0.568,-0.6129992834341212,-0.24201675895688624,-0.421747246618832,-3.6932615737706533,257.7470572031368,-10.582612167090987,no_tremor
97,2358460,0.573,-0.5968753525428283,-0.24283772689227182,-0.45657928787097235,-5.017501106919884,245.32961200543278,-9.423193819058392,no_tremor
98,2358465,0.578,-0.5812227124954772,-0.2433080333164956,-0.49087496239417977,-6.313530952461496,232.6441136505429,-8.30453011985731,no_tremor
99,2358470,0.583,-0.5661040757207131,-0.24342975517096072,-0.52454184927083,-7.5722665161108695,219.7590194599265,-7.23072724650017,no_tremor
100,2358497,0.61,-0.5515771048360358,-0.24320766367655167,-0.5574905951128195,-8.785068571119128,206.742204131936,-6.20545758678645,no_tremor
101,2358502,0.615,-0.5376939334816919,-0.24264919052804462,-0.5896355663522632,-9.943834182341568,193.6603826192128,-5.231946228946026,no_tremor
102,2358507,0.62,-0.5245007603302564,-0.24176435785364975,-0.6208954809103571,-11.041078581328437,180.57856573904354,-4.312961160333388,no_tremor
103,2358511,0.624,-0.5120375238771376,-0.24056567177956872,-0.6511940095278796,-12.070006953327706,167.55955471057217,-3.4508071758251715,no_tremor
104,2358521,0.634,-0.5003376634918075,-0.23906798041771346,-0.6804603373326202,-13.024575368123209,154.6634794283907,-2.6473235104458768,no_tremor
105,2358526,0.639,-0.4894279697111302,-0.2372882981453334,-0.7086296769861828,-13.89954035383728,141.9473838845316,-1.903885209614587,no_tremor
106,2358531,0.644,-0.4793285240994776,-0.23524559909198348,-0.7356437258715285,-14.690496861534044,129.46486088354874,-1.2214082334485692,no_tremor
107,2358536,0.649,-0.47005272642599755,-0.23296058370609649,-0.7614510610945773,-15.393904587330603,117.26573714988045,-0.6003582584767169,no_tremor
108,2358541,0.654,-0.46160740462366845,-0.23045542306445846,-0.7860074674443155,-16.00710280333071,105.39580912348404,-0.04076309206207452,no_tremor
109,2358546,0.659,-0.45399300113620916,-0.22775348616144678,-0.8092761947947191,-16.528314002850998,93.89662914214213,0.45777144345693715,no_tremor
110,2358551,0.664,-0.44720382789602636,-0.22487905574693534,-0.8312281426849405,-16.95663679687617,82.80534125629721,0.8960423611557762,no_tremor
111,2358555,0.668,-0.44122838132008424,-0.22185703837233364,-0.8518419709574199,-17.29202861346459,72.15456556118887,1.2752273553641704,no_tremor
112,2358560,0.673,-0.436049708326253,-0.21871267417330387,-0.871104136363322,-17.535278852581715,61.97232962545457,1.596859949516559,no_tremor
113,2358565,0.678,-0.43164581439216476,-0.21547125160031597,-0.8890088559702396,-17.687973236285575,52.28204532168442,1.8628022837234202,no_tremor
114,2358570,0.683,-0.42799010501465906,-0.21215783184746223,-0.9055579990445376,-17.752450168059532,43.10252910602368,2.075215897804118,no_tremor
115,2358575,0.688,-0.4250518524864692,-0.20879698717085782,-0.920760909848445,-17.73174997446858,34.448063540964455,2.2365308751142083,no_tremor
116,2358580,0.693,-0.4227966805941194,-0.20541255667365693,-0.9346341645070755,-17.629557946606745,26.328497607045524,2.349413717421217,no_tremor
117,2358585,0.698,-0.4211870605695237,-0.2020274225037892,-0.9472012657747231,-17.45014212864933,18.749383112226532,2.4167343219380153,no_tremor
118,2358590,0.703,-0.4201828123242714,-0.19866330879391822,-0.9584922801667134,-17.198286817980495,11.712144292761817,2.441532427243827,no_tremor
119,2358595,0.708,-0.419741605608957,-0.19534060509166656,-0.9685434225182747,-16.8792227481187,5.214277516725487,2.426983884620081,no_tremor
120,2358620,0.733,-0.41981945624403066,-0.19207821549204993,-0.9773965935744996,-16.498554924301096,-0.7504221412854464,2.3763670962883734,no_tremor
121,2358624,0.737,-0.4203712129612645,-0.1888934341943009,-0.9850988766887391,-16.06218907314969,-6.1916107851624185,2.2930299440632944,no_tremor
122,2358629,0.742,-0.42135103069661717,-0.18580184775580477,-0.9917020000863207,-15.576257650543889,-11.122125432893839,2.180357512581127,no_tremor
123,2358634,0.747,-0.4227128264252177,-0.18281726389739872,-0.9972617714069233,-15.047046321854008,-15.557697023709222,2.041740891152577,no_tremor
124,2358639,0.752,-0.42441071387183915,-0.17995166631992843,-1.0018374913509636,-14.48092178389685,-19.516650126444635,1.8805473172688525,no_tremor
125,2358644,0.757,-0.426399413698525,-0.1772151946221436,-1.0054913532235559,-13.884261740393885,-23.0195927681365,1.7000919023498064,no_tremor
126,2358649,0.762,-0.42863463607968705,-0.17461614807278128,-1.008287835016497,-13.263387776932387,-26.089099768241017,1.5036111559947467,no_tremor
127,2358654,0.767,-0.4310734329255934,-0.17216101169671144,-1.0102930904260774,-12.624501811217595,-28.74939290387123,1.2942384987879036,no_tremor
128,2358659,0.772,-0.4336745174033234,-0.1698545028967403,-1.0115743449020207,-11.973626721159333,-31.02602114418133,1.074981926240871,no_tremor
129,2358664,0.777,-0.43639854882305734,-0.16769963665499202,-1.0121993024839406,-11.31655167691074,-32.945544078283476,0.848703958486821,no_tremor
130,2358669,0.782,-0.43920838139893104,-0.16569780724121677,-1.0122355688235283,-10.658782623427095,-34.53522152219369,0.6181039821165094,no_tremor
131,2358673,0.786,-0.44206927584942735,-0.1638488842958258,-1.011750095424735,-10.005498278653874,-35.82271212824054,0.3857030619968423,no_tremor
132,2358678,0.791,-0.44494907326470035,-0.16215132114548175,-1.0108086497671478,-9.361511930801383,-36.8357836379791,0.153831272557906,no_tremor
133,2358683,0.796,-0.4478183311300502,-0.16060227323878903,-1.009475315612003,-8.731239237297983,-37.60203722025794,-0.07538242911564735,no_tremor
134,2358688,0.801,-0.45065042184877957,-0.15919772464761675,-1.0078120274249962,-8.118672147985464,-38.14864812253922,-0.30001779163169623,no_tremor
135,2358693,0.806,-0.45342159454649367,-0.15793262065425198,-1.0058781424822394,-7.527358996106723,-38.502124637551525,-0.5183683468017866,no_tremor
136,2358698,0.811,-0.45611100135523974,-0.15680100452563095,-1.0037300538515042,-6.960390723936569,-38.6880871500118,-0.728944027588484,no_tremor
137,2358703,0.816,-0.45870068976292816,-0.15579615665541785,-1.0014208470564905,-6.420393137639058,-38.73106878171699,-0.9304713996488232,no_tremor
138,2358708,0.821,-0.4611755629653825,-0.1549107343275689,-0.999000002833854,-5.909525019663423,-38.65433890161482,-1.12189159927214,no_tremor
139,2358713,0.826,-0.4635233104703286,-0.1541369104188839,-0.9965131479781847,-5.429481866876753,-38.47975051444674,-1.3023560885760461,no_tremor
140,2358718,0.831,-0.4657343114708777,-0.15346650941316708,-0.9940018558364472,-4.981504968171332,-38.227612289460154,-1.4712203567896143,no_tremor
141,2358743,0.856,-0.4678015137276413,-0.1528911391488432,-0.991503497558465,-4.5663954865736995,-37.91658573997165,-1.6280357148836524,no_tremor
142,2358748,0.861,-0.46972029087038136,-0.15240231677125357,-0.9890511447324417,-4.1845331688091765,-37.56360781517071,-1.772539348502938,no_tremor
143,2358753,0.866,-0.47148828114747743,-0.15199158742071925,-0.9866735235340102,-3.8358992707656396,-37.18383891779212,-1.9046428091838785,no_tremor
144,2358758,0.871,-0.47310521070936096,-0.15165063427141406,-0.9843950199951013,-3.5201032607304925,-36.790636115274,-2.024419135040749,no_tremor
145,2358763,0.876,-0.47457270450901085,-0.1513713786559054,-0.9822357354587583,-3.236412843416682,-36.39555106667112,-2.1320887993083195,no_tremor
146,2358767,0.88,-0.4758940878446528,-0.15114606917001835,-0.9802115907347392,-2.983786835778054,-36.008351940963365,-2.228004688542715,no_tremor
147,2358772,0.885,-0.47707418146921987,-0.15096735884818138,-0.9783344769169352,-2.7609104185892823,-35.637068353313985,-2.3126363124082703,no_tremor
148,2358777,0.89,-0.4781190930618213,-0.1508283697218934,-0.9766124502753629,-2.5662322830372513,-35.28805809489118,-2.3865534451668724,no_tremor
149,2358782,0.895,-0.4790360077106371,-0.15072274431389102,-0.9750499680989738,-2.3980031869156933,-34.966094180859905,-2.4504093974110535,no_tremor
150,2358787,0.9,-0.4798329799040952,-0.15064468386895824,-0.9736481618452603,-2.2543154298411894,-34.67447049194487,-2.5049241169748644,no_tremor
151,2358792,0.905,-0.48051872937550766,-0.15058897337092964,-0.9724051434516383,-2.1331427517341335,-34.415124039173335,-2.5508673201436234,no_tremor
152,2358797,0.91,-0.48110244300080474,-0.15055099363745017,-0.971316340183566,-2.032380153972501,-34.18877164102155,-2.5890418562189,no_tremor
153,2358802,0.915,-0.4815935848122225,-0.15052672101439743,-0.9703748529358038,-1.949883137848003,-33.99505857003132,-2.6202675079960094,no_tremor
