sample,t_ms,t_s,ax,ay,az,gx,gy,gz,tremor
0,2291493,0.0,-0.7210200833460685,-0.11992549512585082,0.5808095139683945,4.290550737987728,11.432456817639018,-1.6825765128241603,no_tremor
1,2291497,0.004,-0.7213308892733156,-0.11987097342998998,0.5810353325004307,3.865560191907634,11.354225475788951,-1.860464174729626,no_tremor
2,2291502,0.009,-0.7217644416167628,-0.11979757978773288,0.5813474104300699,3.432577189495483,11.245580868361392,-2.0461313815812727,no_tremor
3,2291512,0.019,-0.7223344965342097,-0.11970486081603562,0.5817525080700362,2.9930580874513715,11.109961265206776,-2.2404240129285666,no_tremor
4,2291517,0.024,-0.7230341449571767,-0.1195960994150117,0.5822412767521629,2.548563214743224,10.951431354290634,-2.444229200547878,no_tremor
5,2291522,0.029,-0.7238455267077462,-0.11947629308505793,0.5827956995415028,2.1007539006712315,10.774695708220579,-2.6584686324492797,no_tremor
6,2291527,0.034,-0.724749059967233,-0.11935045822974756,0.5833960448939312,1.6513888007504212,10.585108895609546,-2.8840909647990065,no_tremor
7,2291532,0.039,-0.7257284403698858,-0.11922281614299217,0.5840245856139792,1.2023194904231862,10.388682022944348,-3.1220633649519103,no_tremor
8,2291536,0.043,-0.7267722487493848,-0.1190966122221094,0.5846667572697337,0.755485310183865,10.192085531739679,-3.3733622211221066,no_tremor
9,2291541,0.048,-0.7278737755840304,-0.1189742359205629,0.5853109862012872,0.3129074606008969,10.002648113210078,-3.6389630679231546,no_tremor
10,2291546,0.053,-0.729030203056482,-0.11885742817297813,0.5859480503871273,-0.12331764096764757,9.82835162626415,-3.919829791720449,no_tremor
11,2291556,0.063,-0.7302417157969883,-0.11874747904241843,0.586570401071203,-0.5510257214131102,9.677821903962958,-4.2169031932803644,no_tremor
12,2291561,0.068,-0.7315107512234617,-0.1186453852656163,0.5871716005652164,-0.9679927076457937,9.560315305610638,-4.531088994176804,no_tremor
13,2291566,0.073,-0.7328414287122356,-0.11855196658103268,0.5877459029089164,-1.3719434572237619,9.485700822245192,-4.863245375295808,no_tremor
14,2291590,0.097,-0.7342391328539878,-0.11846794908680822,0.5882879567743149,-1.7605611498553808,9.464437483788856,-5.214170131038668,no_tremor
15,2291595,0.102,-0.7357102112267316,-0.11839402491399889,0.5887925995675284,-2.1314973312892262,9.507546758740665,-5.584587515269504,no_tremor
16,2291600,0.107,-0.7372617506305482,-0.11833089584506486,0.5892547148349934,-2.482382604714957,9.626579595231751,-5.97513485000811,no_tremor
17,2291605,0.112,-0.7389014040038733,-0.1182793064410191,0.5896691316425815,-2.8108379660716265,9.833577740319155,-6.386348969481813,no_tremor
18,2291610,0.117,-0.7406372482258966,-0.11824007049867157,0.5900305508117514,-3.1144867775857734,10.141029002875092,-6.818652581441727,no_tremor
19,2291615,0.122,-0.7424776593029346,-0.11821409336688375,0.5903334877448437,-3.3909673669609393,10.561816192914327,-7.272340642782662,no_tremor
20,2291620,0.127,-0.7444311959978053,-0.11820239173776306,0.5905722250424247,-3.6379462275672827,11.10915956584793,-7.747566865000633,no_tremor
21,2291625,0.132,-0.7465064861466357,-0.11820611189126655,0.5907407704926054,-3.8531317794369606,11.796552711935174,-8.244330485377194,no_tremor
22,2291630,0.137,-0.7487121121104707,-0.1182265469221601,0.5908328176044697,-4.034288634858407,12.637691950042653,-8.762463461130233,no_tremor
23,2291635,0.142,-0.7510564933497491,-0.11826515315491884,0.5908417069187234,-4.179252298585797,13.646399403776897,-9.301618264918751,no_tremor
24,2291639,0.146,-0.7535477652185424,-0.11832356571563014,0.5907603870450403,-4.285944222489474,14.83654005108361,-9.861256479396234,no_tremor
25,2291644,0.151,-0.7561936539051621,-0.11840361305705387,0.5905813748763271,-4.352387128019189,16.221933140088893,-10.440638404551503,no_tremor
26,2291649,0.156,-0.7590013480895907,-0.1185073301102943,0.5902967147995665,-4.376720506820299,17.816258449601815,-11.038813903544426,no_tremor
27,2291654,0.161,-0.7619773683970785,-0.11863696965544054,0.5898979370121336,-4.357216209721259,19.632957938297032,-11.654614719932335,no_tremor
28,2291659,0.166,-0.765127436124302,-0.11879501145728759,0.5893760152891389,-4.292294036269991,21.68513336888407,-12.286648500371296,no_tremor
29,2291664,0.171,-0.7684563430066043,-0.11898416869487745,0.5887213247436183,-4.180537240165972,23.98544051062861,-12.933294750670767,no_tremor
30,2291669,0.176,-0.7719678239811804,-0.11920739121980033,0.5879236002800914,-4.0207078698440375,26.545980516220915,-13.592702938843168,no_tremor
31,2291674,0.181,-0.7756644349789062,-0.119467865203662,0.5869718965607559,-3.8117618679079883,29.37818904197871,-14.262792936950543,no_tremor
32,2291679,0.186,-0.7795474377462857,-0.11976900877702111,0.5858545503780663,-3.552863857681819,32.492723641877205,-14.941257965125923,no_tremor
33,2291683,0.19,-0.7836166935630913,-0.1201144633193684,0.5845591463544527,-3.2434015490870287,35.89934992456669,-15.625570167270325,no_tremor
34,2291688,0.195,-0.7878705674918793,-0.12050808013280295,0.58307248686982,-2.882999698339565,39.606826924962746,-16.312988909790203,no_tremor
35,2291714,0.221,-0.7923058444913554,-0.12095390232195477,0.5813805670549034,-2.4715335553752493,43.6227921135034,-17.00057185375942,no_tremor
36,2291719,0.226,-0.7969176583745189,-0.12145614180923725,0.5794685555925246,-2.0091417281090704,47.95364645653468,-17.68518880897135,no_tremor
37,2291724,0.231,-0.8016994342353307,-0.1220191515338693,0.5773207819532233,-1.4962383821435894,52.6044399709433,-18.36353833805342,no_tremor
38,2291729,0.236,-0.8066428446556594,-0.122647393006104,0.5749207305749447,-0.9335246772424443,57.57875830956848,-19.03216704273439,no_tremor
39,2291734,0.241,-0.8117377797828133,-0.12334539950177673,0.5722510423968097,-0.3219993181957162,62.878611077718695,-19.687491433632914,no_tremor
40,2291743,0.25,-0.8169723312564305,-0.12411773527446403,0.5692935240864643,0.3370319297231006,68.50432279168963,-20.32582225841335,no_tremor
41,2291748,0.255,-0.8223327899515195,-0.12496895122586957,0.5660291652619646,1.0419479375868306,74.45442760825323,-20.943391138157875,no_tremor
42,2291753,0.26,-0.8278036575642804,-0.12590353750816655,0.5624381639979081,1.7908053213079649,80.72556914667967,-21.536379335903003,no_tremor
43,2291758,0.265,-0.8333676721662351,-0.12692587353857568,0.5584999609126502,2.581333175617004,87.31240687243817,-22.100948453582568,no_tremor
44,2291763,0.27,-0.8390058479582218,-0.12804017589345204,0.5541932821485436,3.4109296518152243,94.20753060523903,-22.63327282472482,no_tremor
45,2291768,0.275,-0.8446975295408573,-0.12925044452535492,0.5494961915703453,4.276660592232909,101.4013847518593,-23.129573341151715,no_tremor
46,2291773,0.28,-0.850420461059447,-0.13056040772119054,0.5443861525098458,5.1752604210440545,108.88220384905384,-23.58615242278561,no_tremor
47,2291778,0.285,-0.8561508705626049,-0.13197346620109182,0.5388400993710175,6.103135472438878,116.63596093821734,-23.99942980976313,no_tremor
48,2291782,0.289,-0.8618635698254944,-0.13349263675293338,0.5328345193756302,7.056369914976584,124.64633018653961,-24.365978824882543,no_tremor
49,2291787,0.294,-0.8675320697285731,-0.1351204958101361,0.52634554467281,8.030734405740237,132.8946650261915,-24.68256272283978,no_tremor
50,2291792,0.299,-0.8731287110559968,-0.13685912341151488,0.5193490549576214,9.02169757966476,141.3599929131303,-24.94617071305759,no_tremor
51,2291797,0.304,-0.8786248102948625,-0.1387100480296939,0.5118207906446551,10.024440448832332,150.01902762105263,-25.154053217749574,no_tremor
52,2291802,0.309,-0.8839908196915245,-0.14067419281555946,0.5037364765248417,11.033873755350408,158.84619979252568,-25.30375590764052,no_tremor
53,2291807,0.314,-0.8891965004716077,-0.14275182387542928,0.49507195569992285,12.044658291481374,167.8137062736414,-25.393152044783545,no_tremor
54,2291812,0.319,-0.8942111077760092,-0.14494250126905858,0.48580333344280463,13.051228172933202,176.89157856392941,-25.42047265558605,no_tremor
55,2291838,0.345,-0.8990035855285767,-0.1472450334833815,0.4759071304787279,14.047817025444374,186.04777052422912,-25.384334059003145,no_tremor
56,2291843,0.35,-0.9035427691587881,-0.1496574361913231,0.46536044502946106,15.02848702050011,195.24826531386307,-25.28376228725857,no_tremor
57,2291848,0.355,-0.9077975938897895,-0.15217689613853416,0.4541411228192662,15.987160673866759,204.4572014013805,-25.11821396167106,no_tremor
58,2291853,0.36,-0.9117373062114675,-0.1547997410049258,0.4422279341147585,16.917655302529422,213.63701744189882,-24.887593225034713,no_tremor
59,2291858,0.365,-0.915331676221744,-0.15752141605667888,0.429600756765783,17.813720022484024,222.74861584533014,-24.592264382713534,no_tremor
60,2291863,0.37,-0.9185512087331809,-0.16033646833783785,0.416240764133049,18.669075159853772,231.75154493979164,-24.233059963065728,no_tremor
61,2291868,0.375,-0.9213673513648662,-0.16323853905373725,0.40213061672969075,19.477453937715534,240.60419971170433,-23.81128396983984,no_tremor
62,2291873,0.38,-0.9237526982163399,-0.16622036467868243,0.38725465636465933,20.232646288537858,249.26404113999425,-23.328710162242054,no_tremor
63,2291877,0.384,-0.9256811881040361,-0.16927378718464325,0.3715991015499826,20.928544626284012,257.68783411753253,-22.787575261288577,no_tremor
64,2291883,0.39,-0.927128296697206,-0.17238977364241495,0.35515224291368735,21.559191392127314,265.8319038602568,-22.19056704302857,no_tremor
65,2291888,0.395,-0.928071222193692,-0.17555844529724166,0.33790463733619336,22.118828161965848,273.652410539593,-21.540807339540496,no_tremor
66,2291893,0.4,-0.9284890644053034,-0.17876911607255255,0.31984929949028096,22.60194607117427,281.1056416358728,-20.84183002725515,no_tremor
67,2291898,0.405,-0.9283629972610344,-0.1820103403134163,0.3009818894055186,23.00333727134361,288.14832120031076,-20.097554140456207,no_tremor
68,2291903,0.41,-0.9276764347728188,-0.18526996945017557,0.2813008945949019,23.318147084159815,294.7379348324739,-19.31225230752939,no_tremor
69,2291907,0.414,-0.926415190439531,-0.18853521714567595,0.26080780517795205,23.541926458188957,300.83306873078766,-18.490514768719084,no_tremor
70,2291912,0.419,-0.9245676298950046,-0.1917927323882055,0.23950728031798726,23.670684265668275,306.3937606589719,-17.637209294628317,no_tremor
71,2291917,0.424,-0.9221248163455512,-0.1950286799074923,0.21740730417012502,23.70093890110575,311.3818600999975,-16.757437382602046,no_tremor
72,2291922,0.429,-0.9190806480067555,-0.1982288272236477,0.19451932941916422,23.629768565447016,315.7613942556438,-15.856487164306031,no_tremor
73,2291927,0.434,-0.91543198635665,-0.20137863758982338,0.17085840638201727,23.454859542066906,319.4989359116869,-14.939783515172111,no_tremor
74,2291932,0.439,-0.9111787735941341,-0.20446336805926144,0.1464432955691125,23.174551695379346,322.5639685454449,-14.012835917543166,no_tremor
75,2291937,0.444,-0.9063241372510481,-0.207468171895788,0.12129656155634748,22.787880349443792,324.9292434256888,-13.081184695074148,no_tremor
76,2291964,0.471,-0.9008744794779968,-0.21037820455151612,0.09544464602640045,22.294613633276896,326.57112287130184,-12.150346304837193,no_tremor
77,2291969,0.476,-0.8948395481349017,-0.21317873245300953,0.06891791790216041,21.69528431677824,327.4699033360922,-11.225758440932424,no_tremor
78,2291974,0.481,-0.8882324865021877,-0.2158552438623046,0.04175069860762792,20.991215118988023,327.6101116476265,-10.312725758591416,no_tremor
79,2291979,0.486,-0.8810698582305337,-0.21839356110534955,0.013981260626589293,20.18453646675524,326.98076764525746,-9.416367056264288,no_tremor
80,2291984,0.491,-0.8733716441054411,-0.22077995348055116,-0.014348202345148324,19.278195730485596,325.57560669784425,-8.541564746665664,no_tremor
81,2291989,0.496,-0.8651612073368856,-0.2230012501685475,-0.043191635258806975,18.275957066629157,323.39325611740776,-7.692917410685127,no_tremor
82,2291994,0.501,-0.856465224390654,-0.2250449524576917,-0.07249921310845328,17.182391148010204,320.43736025518706,-6.874696170713615,no_tremor
83,2291998,0.505,-0.8473135788408659,-0.2268993445765009,-0.10221746531032255,16.002854256441545,316.71665000870115,-6.090805547555309,no_tremor
84,2292003,0.51,-0.8377392163248304,-0.2285536023838108,-0.1322894344130284,14.74345644157321,312.2449535341875,-5.344749376620924,no_tremor
85,2292009,0.516,-0.8277779594056378,-0.22999789910916835,-0.16265487034665807,13.411018707563247,307.0411461053388,-4.639602253196309,no_tremor
86,2292014,0.521,-0.8174682819800183,-0.23122350725996038,-0.1932504612210827,12.013019464168321,301.1290382535307,-3.9779868564139935,no_tremor
87,2292019,0.526,-0.8068510437943733,-0.2322228957184337,-0.22401010140995356,10.557530760993952,294.53720255073284,-3.3620573748123825,no_tremor
88,2292023,0.53,-0.7959691866342741,-0.23298982094273915,-0.2548651972894741,9.053145104751408,287.2987406516169,-2.7934891319488373,no_tremor
89,2292028,0.535,-0.7848673948129675,-0.23351941106460866,-0.2857450105238577,7.50889393052294,279.4509934976613,-2.2734743953020646,no_tremor
90,2292033,0.54,-0.7735917236801682,-0.2338082415472414,-0.3165770381880374,5.934159046029508,271.0351988952282,-1.8027242493215385,no_tremor
91,2292038,0.545,-0.7621892009785334,-0.23385440093743176,-0.34728742828188947,4.338578574929787,262.0961019738058,-1.381476324462024,no_tremor
92,2292043,0.55,-0.7507074069636536,-0.23365754512508474,-0.37780142831394675,2.731949072614101,252.68152523253167,-1.009508095873787,no_tremor
93,2292048,0.555,-0.7391940402418228,-0.23321893842265984,-0.4080438636195173,1.1241255637125445,242.8419058987939,-0.6861553934720475,no_tremor
94,2292057,0.564,-0.7276964772284031,-0.23254147971140146,-0.4379396409429156,-0.4750787439306406,232.62980907880294,-0.410335695196722,no_tremor
95,2292085,0.592,-0.7162613339313513,-0.23162971188977974,-0.4674142715896712,-2.055991365615739,222.0994256298192,-0.18057570761125674,no_tremor
96,2292090,0.597,-0.7049340393259627,-0.23048981292968376,-0.49639440721573275,-3.60917645879335,211.30606377659143,0.004957320183284316,no_tremor
97,2292095,0.602,-0.6937584297644123,-0.22912956703392565,-0.5248083802098686,-5.12552628197733,200.30564316578835,0.14842114096396225,no_tremor
98,2292100,0.607,-0.6827763734970917,-0.22755831473006588,-0.5525867398438014,-6.59634689344151,189.15419928157712,0.25226151474052366,no_tremor
99,2292105,0.612,-0.6720274333849319,-0.22578688124408894,-0.5796627750841847,-8.013436989143191,177.90740503225538,0.3191732663002596,no_tremor
100,2292110,0.617,-0.6615485743093882,-0.2238274831496233,-0.6059730152284307,-9.369158986070794,166.6201150621154,0.35205996308369886,no_tremor
101,2292115,0.622,-0.6513739198195702,-0.2216936140294508,-0.63145770025894,-10.656501654180849,155.34593713641914,0.35399275574121586,no_tremor
102,2292120,0.627,-0.6415345604185015,-0.21939991064808248,-0.6560612138651749,-11.869133780747033,144.13683389594397,0.32816890009197774,no_tremor
103,2292125,0.632,-0.6320584137900456,-0.21696200185080763,-0.6797324733223021,-13.001448515881977,133.0427574090797,0.27787045975049723,no_tremor
104,2292130,0.637,-0.6229701353701838,-0.21439634301948052,-0.70242527172509,-14.04859819887504,122.11131825547541,0.20642367359645603,no_tremor
105,2292134,0.641,-0.6142910760868365,-0.2117200393877234,-0.7240985693668243,-15.00651960261667,111.38749033353353,0.11715945990837673,no_tremor
106,2292139,0.646,-0.6060392828976731,-0.20895066182511546,-0.7447167322585714,-15.871949658609756,100.91335216465811,0.013375516160969497,no_tremor
107,2292144,0.651,-0.5982295369700756,-0.206106058833758,-0.7642497168593692,-16.642431839647966,90.72786513487127,-0.10169954373916845,no_tremor
108,2292149,0.656,-0.5908734239632651,-0.2032041684664764,-0.7826732010080628,-17.316313483381133,80.86668883323188,-0.2249395983066551,no_tremor
109,2292154,0.661,-0.5839794308539039,-0.20026283368974887,-0.7999686618053833,-17.892734439130972,71.3620333855913,-0.3533515929804675,no_tremor
110,2292159,0.666,-0.5775530640348783,-0.19729962440157445,-0.8161234017984359,-18.371607512648197,62.242548420104285,-0.484102947790406,no_tremor
111,2292164,0.671,-0.5715969839367024,-0.19433166890789463,-0.8311305252884176,-18.75359126858149,53.533248026098406,-0.6145455249308586,no_tremor
112,2292169,0.676,-0.566111152086921,-0.19137549719850033,-0.8449888669422274,-19.04005582755409,45.25547077757836,-0.7422359510879658,no_tremor
113,2292174,0.681,-0.561092987249817,-0.18844689788253266,-0.8577028751678698,-19.23304236273975,37.42687359094969,-0.8649521630796727,no_tremor
114,2292179,0.686,-0.5565375280000483,-0.1855607901785546,-0.8692824529397855,-19.335217058949627,30.06145788307323,-0.9807061216872053,no_tremor
115,2292205,0.712,-0.5524375997171299,-0.18273111193142796,-0.8797427589593152,-19.349820346333146,23.16962620418201,-1.08775271479946,no_tremor
116,2292210,0.717,-0.5487839844970658,-0.17997072426547883,-0.8891039722270551,-19.280612261363995,16.758267257155303,-1.1845949438208396,no_tremor
117,2292215,0.722,-0.5455655928344818,-0.1772913331870928,-0.8973910232931077,-19.13181481609171,10.830866997896122,-1.2699855521576673,no_tremor
118,2292220,0.727,-0.5427696361261652,-0.17470342821378834,-0.9046332956263586,-18.908052265185564,5.387643354961886,-1.3429253071559712,no_tremor
119,2292225,0.732,-0.5403817991049494,-0.17221623791470697,-0.9108643006858909,-18.61429014401768,0.42570201339724956,-1.4026581857391065,no_tremor
120,2292230,0.737,-0.538386411277818,-0.16983770207972584,-0.9161213303735039,-18.25577391189953,-4.060789330568093,-1.4486637416466015,no_tremor
121,2292235,0.742,-0.5367666163725047,-0.16757446007480792,-0.9204450905937972,-17.83796797929432,-8.08041083354184,-1.4806469524118595,no_tremor
122,2292240,0.747,-0.5355045387440471,-0.16543185478004777,-0.9238793196529514,-17.36649583265166,-11.64428704132424,-1.4985258592249806,no_tremor
123,2292245,0.752,-0.5345814456893052,-0.16341395134087197,-0.926470395198011,-16.84708189931888,-14.76587258940162,-1.5024173225570334,no_tremor
124,2292250,0.757,-0.5339779046769111,-0.16152356979372773,-0.92826693334438,-16.285495720341995,-17.460729478279795,-1.4926212199322884,no_tremor
125,2292255,0.762,-0.5336739346218193,-0.15976233046038113,-0.929319383568081,-15.68749892320012,-19.74629824195623,-1.4696034094003187,no_tremor
126,2292260,0.767,-0.5336491505071201,-0.15813071084684244,-0.9296796228561988,-15.0587954116374,-21.64166523146646,-1.4339777743642983,no_tremor
127,2292265,0.772,-0.533882900863884,-0.15662811264243043,-0.9294005525157212,-14.404985117130606,-23.167328139408397,-1.3864876541111635,no_tremor
128,2292269,0.776,-0.5343543978414774,-0.15525293730024586,-0.9285357009364967,-13.731521586763172,-24.344961796788866,-1.3279869503808537,no_tremor
129,2292274,0.781,-0.5350428398142034,-0.154002668599851,-0.9271388354848007,-13.043673615267506,-25.197186179621024,-1.2594211833847468,no_tremor
130,2292279,0.786,-0.5359275266555296,-0.15287396055174884,-0.9252635865653939,-12.346491064311753,-25.747338467032506,-1.1818087505233015,no_tremor
131,2292284,0.791,-0.5369879679526289,-0.15186272900459008,-0.9229630867272891,-11.644774949831808,-26.019250891137204,-1.096222617800662,no_tremor
132,2292289,0.796,-0.5382039845204153,-0.15096424536094813,-0.9202896274975779,-10.94305181956634,-26.037036006722897,-1.0037726481884857,no_tremor
133,2292294,0.801,-0.5395558036000632,-0.15017323089476414,-0.9172943364054265,-10.245552389741503,-25.82488088224146,-0.9055887436740369,no_tremor
134,2292299,0.806,-0.541024148092145,-0.1494839502896144,-0.9140268764028329,-9.556194363265783,-25.406851571571124,-0.802804948890601,no_tremor
135,2292304,0.811,-0.54259032008446,-0.14889030317583002,-0.91053516960045,-8.878569311970463,-24.80670907006966,-0.6965446344212556,no_tremor
136,2292329,0.836,-0.5442362788001961,-0.1483859126278935,-0.906865146919567,-8.21593347180498,-24.04773779192867,-0.5879068482168553,no_tremor
137,2292334,0.841,-0.5459447129302729,-0.14796420978055233,-0.9030605249229264,-7.571202271438419,-23.15258743349809,-0.47795389642333674,no_tremor
138,2292339,0.846,-0.5476991071493164,-0.1476185139185358,-0.8991626107389922,-6.946948390044871,-22.143128915207217,-0.36770019279847943,no_tremor
139,2292343,0.85,-0.5494838024780941,-0.14734210757407204,-0.8952101356511564,-6.345403118126641,-21.040324929743214,-0.25810239983551275,no_tremor
140,2292348,0.855,-0.551284050071975,-0.14712830631457802,-0.891239117599589,-5.768460776289832,-19.864115471005388,-0.1500508736483474,no_tremor
141,2292353,0.86,-0.5530860579946333,-0.14697052301405777,-0.8872827525490691,-5.217685932394785,-18.63331857765098,-0.044362416539979785,no_tremor
142,2292358,0.865,-0.5548770305713593,-0.14686232647856987,-0.8833713344149975,-4.694323148832784,-17.36554639457584,0.05822566545934372,no_tremor
143,2292363,0.87,-0.5566451999913508,-0.14679749434548903,-0.8795322030106764,-4.1993089886757735,-16.077136533004772,0.15706020794755454,no_tremor
144,2292368,0.875,-0.5583798499275983,-0.14677006020530659,-0.8757897192779589,-3.7332860103807435,-14.783098593114996,0.2515755473708555,no_tremor
145,2292373,0.88,-0.5600713310537022,-0.1467743549095549,-0.8721652668854759,-3.2966184837249703,-13.497075600570149,0.34129560659090924,no_tremor
146,2292378,0.885,-0.5617110684495266,-0.1468050420344511,-0.8686772791186669,-2.8894095639379413,-12.231319998723597,0.4258347211880809,no_tremor
147,2292382,0.889,-0.5632915609950486,-0.1468571474718369,-0.8653412898389923,-2.5115196668712083,-10.996683731336114,0.5048972256972951,no_tremor
148,2292387,0.894,-0.5648063729495072,-0.1469260831213223,-0.8621700071519491,-2.162585796008662,-9.802621847633263,0.578275828185924,no_tremor
149,2292392,0.899,-0.5662501179982201,-0.14700766466431744,-0.8591734082918585,-1.8420415822816625,-8.657208964957308,0.6458488149364283,no_tremor
150,2292397,0.904,-0.5676184361209496,-0.1470981234157493,-0.856358854104071,-1.5491378097318445,-7.5671678373711,0.7075761428957281,no_tremor
151,2292402,0.909,-0.5689079636932038,-0.14719411227643156,-0.853731221381818,-1.2829632136798363,-6.537909204156942,0.7634944943015087,no_tremor
152,2292407,0.914,-0.5701162972758403,-0.14729270585159662,-0.8512930511964328,-1.04246535289099,-5.5735820320431575,0.8137113845612355,no_tremor
153,2292412,0.919,-0.5712419515796233,-0.14739139486127256,-0.8490447112484628,-0.8264713728551942,-4.6771332201320766,0.8583984307313484,no_tremor
154,2292416,0.923,-0.5722843121108758,-0.14748807504649308,-0.8469845701668963,-0.6337084930524989,-3.8503758070403986,0.8977839036925297,no_tremor
155,2292421,0.928,-0.5732435830128368,-0.14758103087025184,-0.8451091815986128,-0.462824066208688,-3.0940647046173,0.9321447023543409,no_tremor
156,2292426,0.933,-0.5741207306153143,-0.14766891442035837,-0.843413475864681,-0.3124050714517312,-2.4079789788821184,0.961797902993413,no_tremor
157,2292451,0.958,-0.5749174231932893,-0.14775072003805195,-0.8418909569183284,-0.18099691563216758,-1.7910097017098345,0.9870920506554788,no_tremor
158,2292456,0.963,-0.5756359674147954,-0.1478257553141858,-0.8405339023246631,-0.06712142787583,-1.2412524001287677,1.0083983709433437,no_tremor
159,2292461,0.968,-0.5762792419338763,-0.1478936092027893,-0.8393335639971863,0.030706058063500637,-0.7561031273862983,1.0261020870648914,no_tremor
160,2292466,0.973,-0.5768506285633646,-0.14795411808484926,-0.8382803674720924,0.11396063073024515,-0.3323571663709082,1.0405940263528566,no_tremor
161,2292471,0.978,-0.577353941453686,-0.14800733065944427,-0.8373641075771394,0.18409282703723087,0.03369064887819936,1.0522626918036158,no_tremor
162,2292476,0.983,-0.5777933547145754,-0.1480534725388533,-0.8365741384532017,0.24251484104264479,0.34614503980784767,1.0614869589593865,no_tremor
163,2292480,0.987,-0.5781733289488471,-0.1480929113821341,-0.8358995560072296,0.29058799291985,0.6094098979497306,1.0686295390693503,no_tremor
164,2292485,0.992,-0.5784985372198438,-0.14812612332664266,-0.835329371009014,0.3296115289620955,0.8280895183879258,1.0740313275728897,no_tremor
165,2292490,0.997,-0.578773791043131,-0.14815366137911454,-0.8348526711859006,0.36081281582161234,1.006892588712238,1.078006733223669,no_tremor
