sample,t_ms,t_s,ax,ay,az,gx,gy,gz,tremor
0,2376968,0.0,-0.7712773502483669,-0.10912734159981925,0.5092596350752786,-2.8323429023093816,-22.84570232424463,2.93211250547081,no_tremor
1,2376973,0.005,-0.7718148167120847,-0.10881033286918215,0.5098316848301923,-3.359699515984806,-24.009609323619454,2.408945209392511,no_tremor
2,2376978,0.01,-0.7726259019715133,-0.10836447158629613,0.5106732112313505,-3.8785956287022856,-25.00264608839787,1.8434459369120522,no_tremor
3,2376983,0.015,-0.7737770768315255,-0.10777531304335788,0.5118368007812047,-4.385605947268499,-25.798646921403396,1.2344988568617508,no_tremor
4,2376988,0.02,-0.7752985328225899,-0.10705147511582627,0.5133338831772245,-4.8772270828982505,-26.370905154360564,0.5811711100758721,no_tremor
5,2376993,0.025,-0.7771929421620971,-0.10621517255666212,0.5151469953160458,-5.3499005157954045,-26.692345214305107,-0.11726609833725893,no_tremor
6,2376998,0.03,-0.7794493338545639,-0.10529262628249761,0.5172457479664027,-5.800037126336604,-26.735708429076116,-0.8613167407180343,no_tremor
7,2377003,0.035,-0.7820530109051402,-0.10430859198893573,0.519597369983095,-6.2240431780541545,-26.473751764449254,-1.6512397876488332,no_tremor
8,2377007,0.039,-0.7849904701863646,-0.10328439550511809,0.5221714741729926,-6.618347625486052,-25.8794585164117,-2.487029859570373,no_tremor
9,2377012,0.044,-0.7882509040390587,-0.10223789647319774,0.5249411680969321,-6.979430608002941,-24.926259810171924,-3.3683989655069575,no_tremor
10,2377017,0.049,-0.7918259691591389,-0.10118419595481536,0.5278824609391749,-7.303852978077698,-23.588265584052873,-4.294759587168719,no_tremor
11,2377022,0.054,-0.7957089053718759,-0.10013646813948146,0.5309731304919233,-7.58828669841779,-21.840503562940807,-5.265209366137484,no_tremor
12,2377027,0.059,-0.799893546329568,-0.09910667133721594,0.5341915914400915,-7.8295459262717895,-19.659164554251362,-6.278517648680143,no_tremor
13,2377052,0.084,-0.8043734394950335,-0.09810607974767625,0.537515956717326,-8.024618584828591,-17.021852231864735,-7.333114136358979,no_tremor
14,2377057,0.089,-0.8091411339032505,-0.09714565116429123,0.5409233238803655,-8.170698201654524,-13.907835413302825,-8.427079880619536,no_tremor
15,2377062,0.094,-0.8141876290740631,-0.09623626600229525,0.5443892593023469,-8.265215773875642,-10.29830068568487,-9.558140846875265,no_tremor
16,2377067,0.099,-0.8195019582520853,-0.09538887223492704,0.5478874391560645,-8.305871400474476,-6.17660309911968,-10.723664260158221,no_tremor
17,2377072,0.104,-0.8250708776388965,-0.0946145637785819,0.5513894095630244,-8.290665404314108,-1.5285125243119875,-11.920657931168204,no_tremor
18,2377077,0.109,-0.8308786381116848,-0.0939246123817251,0.5548644364565881,-8.2179286506722,3.6575468329865983,-13.145772747703896,no_tremor
19,2377082,0.114,-0.8369068219056006,-0.09333046695256318,0.5582794238146824,-8.086351755520019,9.390266351194807,-14.395308500387523,no_tremor
20,2377087,0.119,-0.843134232005444,-0.09284372975941758,0.5615988854766685,-7.895012866169168,15.675234995466226,-15.66522319232992,no_tremor
21,2377092,0.124,-0.8495368260786857,-0.09247611580453428,0.5647849606032374,-7.643403689942916,22.514736086215326,-16.951145959732205,no_tremor
22,2377097,0.129,-0.8560876897436903,-0.09223939956208967,0.567797466232288,-7.331453443385652,29.907561521057644,-18.248393704113738,no_tremor
23,2377102,0.134,-0.8627570460146817,-0.09214535188250723,0.5705939826726226,-6.959550394708888,37.84884611239611,-19.55199150597983,no_tremor
24,2377107,0.139,-0.8695122991185754,-0.09220566896868883,0.5731299689656618,-6.528560675034812,46.32992464530671,-20.85669685309766,no_tremor
25,2377111,0.143,-0.8763181117224416,-0.09243189476274871,0.5753589065691441,-6.039844039297377,55.338214167614105,-22.15702767344449,no_tremor
26,2377116,0.148,-0.8831365150846485,-0.09283533773321503,0.5772324699475158,-5.495266265671221,64.85712389259169,-23.44729411345981,no_tremor
27,2377121,0.153,-0.8899270518502572,-0.09342698284832711,0.5787007230120753,-4.897207893560511,74.86599492068596,-24.72163394702262,no_tremor
28,2377126,0.158,-0.8966469512249721,-0.09421739941230439,0.5797123404232756,-4.248569014790875,85.34007176656584,-25.974051440080487,no_tremor
29,2377136,0.168,-0.9032513361330913,-0.09521664539652709,0.5802148527051406,-3.5527698509204986,96.25050740952788,-27.19845943055041,no_tremor
30,2377146,0.178,-0.9096934617290688,-0.09643416889590588,0.5801549139669325,-2.81374687159197,107.56440326957143,-28.388724313787606,no_tremor
31,2377151,0.183,-0.9159249843148987,-0.09787870736939465,0.5794785908075434,-2.035944234055791,119.24488515331161,-29.538713551904753,no_tremor
32,2377177,0.209,-0.9218962593364721,-0.0995581853747402,0.5781316707139368,-1.2243003513551418,131.25121582302282,-30.642345252546534,no_tremor
33,2377182,0.214,-0.9275566667107316,-0.10147961157569126,0.576059987973953,-0.384229425708676,143.53894443431804,-31.693639292855465,no_tremor
34,2377187,0.219,-0.9328549612958795,-0.10364897587907823,0.573209764825347,0.4784021847792181,156.06009268884117,-32.686769403360024,no_tremor
35,2377192,0.224,-0.9377396458890115,-0.10607114764158941,0.5695279652800813,1.3573048624687731,168.76337718823888,-33.61611558185098,no_tremor
36,2377197,0.229,-0.9421593637482489,-0.10874977596322412,0.5649626588184422,2.2457999459389524,181.5944671694283,-34.47631618312646,no_tremor
37,2377202,0.234,-0.9460633073080141,-0.11168719314977597,0.5594633909577053,3.1368592768671864,194.4962765343161,-35.26231902430778,no_tremor
38,2377206,0.238,-0.9494016394916118,-0.11488432247705792,0.5529815575716619,4.023150040472728,207.40928882952534,-35.969430851075096,no_tremor
39,2377211,0.243,-0.9521259238216789,-0.11834059142440599,0.5454707797699102,4.897084807609875,220.27191356105482,-36.59336452299141,no_tremor
40,2377216,0.248,-0.9541895593797883,-0.12205385156523177,0.5368872761350612,5.7508766267647315,233.02087193807867,-37.13028329487534,no_tremor
41,2377221,0.253,-0.9555482165633217,-0.12602030630945266,0.5271902291556312,6.576598948598729,245.59160983059618,-37.57684159682206,no_tremor
42,2377226,0.258,-0.9561602695217328,-0.13023444768784537,0.5163421427749917,7.366250094021781,257.918735399539,-37.93022174864919,no_tremor
43,2377231,0.263,-0.955987221116912,-0.13468900335268974,0.5043091880940344,8.111821899091943,269.9364785161285,-38.18816608469528,no_tremor
44,2377236,0.268,-0.9549941162360517,-0.13937489494288363,0.4910615344085831,8.805372086904887,281.5791687317969,-38.349004011477604,no_tremor
45,2377241,0.273,-0.9531499392846452,-0.14428120892458535,0.47657366292458636,9.439099828733902,292.7817281964794,-38.4116735750989,no_tremor
46,2377246,0.278,-0.9504279916989727,-0.14939518096901047,0.46082466067010436,10.0054238646146,303.4801755604431,-38.3757371799625,no_tremor
47,2377251,0.283,-0.946806245341664,-0.15470219486516656,0.44379849231140656,10.497062459349827,313.61213654452445,-38.241391175306326,no_tremor
48,2377256,0.288,-0.9422676676837712,-0.1601857968846678,0.4254842477813439,10.907114378625598,323.11735653955515,-38.009469106952594,no_tremor
49,2377260,0.292,-0.9368005147382636,-0.16582772641596305,0.40587636384205544,11.229139988382306,331.9382103117944,-37.68143851321375,no_tremor
50,2377265,0.297,-0.9303985878014017,-0.1716079635641095,0.38497481793043525,11.45724151324153,340.02020365712593,-37.25939122502531,no_tremor
51,2377270,0.302,-0.9230614501905824,-0.17750479426768503,0.36278529287152983,11.586141436623807,347.31246166658514,-36.74602721476052,no_tremor
52,2377275,0.307,-0.9147946003521196,-0.18349489331519148,0.33931931128991716,11.611257983677707,353.7681981392372,-36.14463213000263,no_tremor
53,2377302,0.334,-0.9056095979628338,-0.1895534254492577,0.31459433880065524,11.528776596248058,359.3451606048961,-35.459048748556754,no_tremor
54,2377307,0.339,-0.89552413997561,-0.19565416453153475,0.28863385531335223,11.335716286624518,364.0060454047538,-34.69364269544581,no_tremor
55,2377312,0.344,-0.884562083964267,-0.20176963051527463,0.2614673940122812,11.029989745604334,367.718877343268,-33.853262864112956,no_tremor
56,2377317,0.349,-0.8727534165991943,-0.20787124375507676,0.23313054774033184,10.610456083818333,370.457348598325,-32.943197073651156,no_tremor
57,2377322,0.354,-0.8601341656151581,-0.21392949599303263,0.20366494257644713,10.07696510589828,372.2011118714841,-31.96912356537088,no_tremor
58,2377327,0.359,-0.8467462541968049,-0.21991413720541303,0.17311817834775262,9.430392054937105,372.9360231593446,-30.937058994725486,no_tremor
59,2377332,0.364,-0.8326372972893308,-0.2257943773684295,0.14154373568421053,8.672661818478716,372.65433000171447,-29.85330361170283,no_tremor
60,2377337,0.369,-0.8178603399302726,-0.2315391020924105,0.1090008490432741,7.806761657203943,371.3548015944183,-28.72438434742315,no_tremor
61,2377342,0.374,-0.8024735382862123,-0.2371171009670356,0.07555434494176894,6.83674160700208,369.0427977418936,-27.5569965385976,no_tremor
62,2377346,0.378,-0.7865397846618316,-0.24249730734364902,0.04127444446636535,5.767701820578321,365.730274272756,-26.35794502589013,no_tremor
63,2377351,0.383,-0.7701262783294205,-0.24764904814350788,0.006236529021255148,4.6057662640459025,361.4357232574425,-25.134085357835176,no_tremor
64,2377356,0.388,-0.7533040446117681,-0.25254230211442674,-0.02947913176859118,3.3580423745720727,356.1840471540159,-23.89226581775743,no_tremor
65,2377361,0.393,-0.7361474052526573,-0.2571479647561753,-0.06578769103684962,2.0325665214095467,350.0063668602498,-22.639270964288116,no_tremor
66,2377366,0.398,-0.718733403741629,-0.2614381178931553,-0.10260007544231739,0.6382353930091356,342.9397645540919,-21.381767334643914,no_tremor
67,2377371,0.403,-0.7011411899376216,-0.2653863015902253,-0.13982337639635536,-0.8152762506253927,335.02696314898196,-20.12625190481805,no_tremor
68,2377376,0.408,-0.6834513690712635,-0.26896778578660757,-0.17736128209166294,-2.317610680863357,326.31594517137097,-18.87900383496756,no_tremor
69,2377380,0.412,-0.6657453210052108,-0.27215983867083476,-0.21511455022863168,-3.8578340288492834,316.8595148876902,-17.64603995434426,no_tremor
70,2377385,0.417,-0.6481044964964998,-0.27494198844908035,-0.25298152077234975,-5.424553363900096,306.71480857193154,-16.43307436097409,no_tremor
71,2377395,0.427,-0.630609698126512,-0.27729627478701524,-0.29085866738126587,-7.006042221270689,295.9427589161938,-15.245482429919742,no_tremor
72,2377400,0.432,-0.6133403545250538,-0.27920748585257615,-0.3286411853172274,-8.590372491025063,284.60752073506654,-14.088269441490521,no_tremor
73,2377426,0.458,-0.5963737974828669,-0.2806633765800722,-0.36622361267064285,-10.165550347357735,272.7758662520667,-12.966043954746857,no_tremor
74,2377430,0.462,-0.579784552460065,-0.2816548635502246,-0.4035004806286359,-11.719653739592953,260.51655926653416,-11.882995960199832,no_tremor
75,2377435,0.467,-0.5636436537441897,-0.2821761917824933,-0.4403669873361261,-13.240968902586193,247.8997181999288,-10.84287975614908,no_tremor
76,2377440,0.472,-0.5480179959302431,-0.28222506881538373,-0.4767196887563562,-14.718123390591003,234.9961782328469,-9.84900142243352,no_tremor
77,2377450,0.482,-0.5329697333340359,-0.2818027617408617,-0.512457198946638,-16.14021329162017,221.87686240975464,-8.904210725528392,no_tremor
78,2377455,0.487,-0.5185557383394325,-0.2809141533606898,-0.5474808914052465,-17.496922512407433,208.61217081094472,-8.010897275957772,no_tremor
79,2377460,0.492,-0.5048271285488769,-0.27956775431716796,-0.5816955926442715,-18.778632301787663,195.2713958446435,-7.170990758809304,no_tremor
80,2377465,0.497,-0.491828871041371,-0.2777756688811961,-0.6150102589062166,-19.97651947605405,181.9221705315348,-6.385965058859304,no_tremor
81,2377469,0.501,-0.4795994701455161,-0.27555351302327624,-0.6473386269704735,-21.08264210925936,168.6299554199446,-5.656846098195186,no_tremor
82,2377474,0.506,-0.46817074301473993,-0.27292028441816957,-0.6785998302822263,-22.09001174623421,155.4575685446928,-4.984223195304195,no_tremor
83,2377479,0.511,-0.45756768505891665,-0.26989818511101155,-0.7087189721599356,-22.992651479958653,142.4647616809913,-4.368263741245505,no_tremor
84,2377484,0.516,-0.4478084250533814,-0.2665123986679922,-0.7376276485653553,-23.78563950295995,129.70784508563278,-3.808730972221157,no_tremor
85,2377489,0.521,-0.4389042676203362,-0.2627908247103499,-0.7652644138095293,-24.46513799198158,117.23936198265926,-3.3050045998495965,no_tremor
86,2377494,0.526,-0.4308598188543304,-0.25876377474666495,-0.7915751835716305,-25.028407416360373,105.10781324949147,-2.8561040411879355,no_tremor
87,2377499,0.531,-0.42367318921773295,-0.25446363413792633,-0.8165135706779685,-25.473806575283735,93.35743209339405,-2.4607139699027134,no_tremor
88,2377504,0.536,-0.4173362665139145,-0.24992449582061624,-0.8400411501839177,-25.800778869306388,82.02800796991488,-2.117211887955991,no_tremor
89,2377509,0.541,-0.4118350507819485,-0.24518177204863698,-0.8621276513853345,-26.009825497750686,71.15475856848168,-1.823697394638051,no_tremor
90,2377514,0.546,-0.407150042353463,-0.24027179087332354,-0.8827510754275887,-26.102466444991297,60.7682483529947,-1.5780228085420605,no_tremor
91,2377519,0.551,-0.403256674057904,-0.2352313843455861,-0.9018977381559535,-26.081190273684776,50.89435187310193,-1.377824780153808,no_tremor
92,2377523,0.555,-0.4001257786272415,-0.2300974754889223,-0.9195622387450422,-25.94939388076384,41.5542598344677,-1.220556519649737,no_tremor
93,2377549,0.581,-0.39772408268700843,-0.2249066709643602,-0.9357473554503881,-25.711313491781823,32.764525717607015,-1.1035202573142835,no_tremor
94,2377554,0.586,-0.39601471925924486,-0.21969486604914898,-0.9504638705465089,-25.37194826819552,24.53715055137133,-1.0238995540185514,no_tremor
95,2377559,0.591,-0.3949577513556674,-0.21449686810808552,-0.9637303271716687,-24.936977972554654,16.87970326902172,-0.9787910885672522,no_tremor
96,2377564,0.596,-0.39451069990799587,-0.2093460441790333,-0.9755727214206555,-24.412676167408858,9.79547389969475,-0.9652355694435624,no_tremor
97,2377569,0.601,-0.3946290698875608,-0.20427399765036802,-0.9860241336409503,-23.80582040983887,3.2836566837871795,-0.9802474506973524,no_tremor
98,2377574,0.606,-0.39526686897526553,-0.19931027830277911,-0.9951243035027562,-23.12360085102349,-2.6604399390460087,-1.0208431731596896,no_tremor
99,2377579,0.611,-0.3963771135698206,-0.194482129241402,-1.0029191540151463,-22.373528571510025,-8.04515962499882,-1.0840676989477094,no_tremor
100,2377583,0.615,-0.3979123173041762,-0.18981427347154445,-1.0094602702235351,-21.563344887893834,-12.882243924777422,-1.1670191544763948,no_tremor
101,2377588,0.62,-0.3998249576146464,-0.1853287420829594,-1.0148043388224002,-20.700932760768392,-17.18656083166765,-1.2668714402691583,no_tremor
102,2377593,0.625,-0.40206791630226435,-0.18104474521260652,-1.0190125553309357,-19.79423131988604,-20.975819313043683,-1.380894702543628,no_tremor
103,2377598,0.63,-0.4045948904588006,-0.17697858616349638,-1.0221500057922097,-18.851154402709238,-24.270273013910707,-1.5064735924223245,no_tremor
104,2377603,0.635,-0.40736077060849746,-0.17314361827905023,-1.0242850301566182,-17.879513879483348,-27.092416247197644,-1.6411232650764924,no_tremor
105,2377608,0.64,-0.4103219834406927,-0.16955024342308395,-1.0254885745901305,-16.886948414503976,-29.466675288876914,-1.7825030943847193,no_tremor
106,2377613,0.645,-0.4134367970712661,-0.16620595021263493,-1.0258335399045426,-15.880858191906794,-31.419097881430385,-1.9284281003295094,no_tremor
107,2377618,0.65,-0.41666558736018705,-0.16311538951282614,-1.0253941331450693,-14.86834601679322,-32.97704372071131,-2.0768781078165395,no_tremor
108,2377623,0.655,-0.41997106441292115,-0.16028048414605767,-1.024245229100685,-13.856165089999884,-34.1688785626425,-2.226004677070158,no_tremor
109,2377628,0.66,-0.4233184589882811,-0.157700569304226,-1.0224617481389717,-12.8506736482652,-35.023674440955375,-2.374135866164656,no_tremor
110,2377632,0.664,-0.42667566910836324,-0.15537255979032116,-1.0201180563256593,-11.85779656155282,-35.570918337907436,-2.5197789044063583,no_tremor
111,2377637,0.669,-0.4300133677033103,-0.15329113995899643,-1.017287393285765,-10.882993886063158,-35.84023149755789,-2.661620870695437,no_tremor
112,2377642,0.674,-0.4333050726129386,-0.15144897207613273,-1.0140413327143634,-9.931236285054386,-35.8611014148457,-2.7985274838012115,no_tremor
113,2377647,0.679,-0.43652718069916496,-0.14983691877415922,-1.0104492798662226,-9.00698715016775,-35.66262837164302,-2.9295401221010104,no_tremor
114,2377673,0.705,-0.43965896819036865,-0.14844427533886428,-1.0065780097596728,-8.114191183759466,-35.27328822172833,-3.0538711993727703,no_tremor
115,2377678,0.71,-0.4426825596770241,-0.14725900771611972,-1.002491249234758,-7.256269138233473,-34.720712948804405,-3.1708980313831563,no_tremor
116,2377683,0.715,-0.44558286840653144,-0.14626799235983887,-0.9982493054203678,-6.43611835277585,-34.03149033266266,-3.28015533563054,no_tremor
117,2377687,0.719,-0.44834751068740525,-0.14545725433765866,-0.9939087425978236,-5.656118683215857,-33.230983855836385,-3.3813265134007944,no_tremor
118,2377692,0.724,-0.45096669731567024,-0.14481220044768084,-0.9895221089028448,-4.918143388321428,-32.34317376788127,-3.4742338685430054,no_tremor
119,2377697,0.729,-0.45343310498871325,-0.14431784445777643,-0.9851377137831017,-4.2235745150794015,-31.390520003285864,-3.558827920330414,no_tremor
120,2377702,0.734,-0.45574173068328494,-0.14395902194112595,-0.9807994566210528,-3.5733223144276662,-30.393847430232427,-3.6351759681306675,no_tremor
121,2377707,0.739,-0.457889731951666,-0.1437205925349584,-0.976546706437989,-2.967848215507379,-29.37225369671877,-3.7034500639288606,no_tremor
122,2377712,0.744,-0.45987625603661597,-0.1435876277857861,-0.97241423211372,-2.4071908894376324,-28.34303973991609,-3.7639145463735777,no_tremor
123,2377717,0.749,-0.4617022606225773,-0.1435455830601969,-0.9684321820882342,-1.8909949420115284,-27.321662833581684,-3.816913288225358,no_tremor
124,2377722,0.754,-0.4633703289280265,-0.14358045229532154,-0.9646261120599977,-1.418541787713113,-26.321711865078946,-3.8628568084070674,no_tremor
125,2377727,0.759,-0.4648844817030204,-0.14367890463929678,-0.961017058764524,-0.9887822739400337,-25.354904355843363,-3.9022094002953094,no_tremor
126,2377731,0.763,-0.46624998852971405,-0.14382840229190952,-0.9576216575111304,-0.6003706431014704,-24.431104565199426,-3.93547642925194,no_tremor
127,2377736,0.768,-0.46747318063680965,-0.1440172991014341,-0.9544523007801352,-0.25169944032297925,-23.558361846337682,-3.963191953927565,no_tremor
128,2377741,0.773,-0.4685612672384482,-0.14423491970706517,-0.9515173348414031,0.05906500498984236,-22.742968254406957,-3.9859068260542445,no_tremor
129,2377746,0.778,-0.46952215720235474,-0.14447161923815618,-0.9488212910510821,0.33394687492344444,-21.989534239585076,-4.004177420695715,no_tremor
130,2377751,0.783,-0.4703642876495447,-0.14471882379204648,-0.9463651482176278,0.5751252667001655,-21.301081092949552,-4.018555142568254,no_tremor
131,2377756,0.788,-0.4710964608955112,-0.14496905211179276,-0.9441466221997087,0.7848990138768858,-20.679148651592616,-4.029576844407564,no_tremor
132,2377761,0.793,-0.47172769096493483,-0.14521591907395104,-0.9421604787047493,0.9656522142123959,-20.123916614273227,-4.037756280910574,no_tremor
133,2377766,0.798,-0.47226706075038055,-0.1454541217754221,-0.9403988650941478,1.1198207340374366,-19.634337672414617,-4.043576706499117,no_tremor
134,2377771,0.803,-0.47272359073962145,-0.1456794091785674,-0.9388516568657058,1.2498599419813419,-19.208280524733944,-4.047484706768951,no_tremor
135,2377796,0.828,-0.4731061201035118,-0.14588853643716504,-0.937506814371633,1.3582139108155107,-18.842680717140986,-4.0498853321086,no_tremor
136,2377801,0.833,-0.4734232008118615,-0.14607920518459247,-0.9363507452381314,1.4472863150810804,-18.533697132032888,-4.051138578130039,no_tremor
137,2377806,0.838,-0.473683005321465,-0.1462499912223649,-0.9353686678772308,1.519413244053689,-18.27687184215168,-4.051557231714559,no_tremor
