sample,t_ms,t_s,ax,ay,az,gx,gy,gz,tremor
0,2565934,0.0,-0.5358168040188651,-0.10947763304943756,-0.8866859248390649,0.014615137369892757,1.0034216487848169,-2.0861966451909515,no_tremor
1,2565938,0.004,-0.5356919164234778,-0.10961394831995616,-0.8867328985616696,0.006448659896056189,1.0183015922929475,-1.9900768069293437,no_tremor
2,2565943,0.009,-0.5355241810643502,-0.10979912528207066,-0.8867971912449549,-0.0020476745007129015,1.0333899339503503,-1.8953296338303762,no_tremor
3,2565948,0.014,-0.5353126924788724,-0.11003520406049391,-0.8868798857872278,-0.010813119779095567,1.04868978177135,-1.8022984781370446,no_tremor
4,2565953,0.019,-0.5350649751554034,-0.11031470104691186,-0.8869788112432853,-0.01978600472936917,1.0642024752643113,-1.7113111073646778,no_tremor
5,2565958,0.024,-0.5347923009818639,-0.11062551473088439,-0.8870901613485683,-0.02890444529949219,1.079927434505639,-1.6226767079508861,no_tremor
6,2565963,0.029,-0.5345058063894761,-0.11095520329035641,-0.8872099391386824,-0.03810705015645827,1.0958619451839373,-1.536683149148885,no_tremor
7,2565968,0.034,-0.5342146489590158,-0.11129313567633303,-0.88733469746269,-0.04733360938773749,1.1120008700419746,-1.4535945518861846,no_tremor
8,2565973,0.039,-0.5339256123143225,-0.111631061715981,-0.8874617454601174,-0.0565257563777409,1.1283362884488655,-1.3736492015891426,no_tremor
9,2565998,0.064,-0.5336433902449644,-0.11196290560466357,-0.8875890880232367,-0.06562759274673051,1.1448570808634688,-1.2970578368720282,no_tremor
10,2566003,0.069,-0.5333710617383365,-0.11228431549415614,-0.8877152784464031,-0.07458626573670193,1.1615484909448446,-1.2240023371405055,no_tremor
11,2566008,0.074,-0.5331105365641233,-0.11259221974104364,-0.8878392705484145,-0.08335248741238888,1.1783917101519878,-1.1546348224863874,no_tremor
12,2566013,0.079,-0.5328629042541765,-0.11288447279483267,-0.8879602997910334,-0.0918809867298411,1.1953635341724254,-1.0890771698333044,no_tremor
13,2566018,0.084,-0.5326286855902964,-0.11315959835779973,-0.8880777969451611,-0.10013088942540338,1.21243613682949,-1.0274209404807473,no_tremor
14,2566023,0.089,-0.5324080066000423,-0.11341661195324457,-0.8881913287936386,-0.10806602600627975,1.2295769970405004,-0.9697277059870166,no_tremor
15,2566028,0.094,-0.5322007170526293,-0.1136549010784307,-0.8883005587255558,-0.11565517336350936,1.246749000960141,-0.916029751938256,no_tremor
16,2566033,0.099,-0.532006471383152,-0.11387414451883121,-0.8884052210552952,-0.1228722393913033,1.263910728276557,-0.8663311328366101,no_tremor
17,2566037,0.103,-0.5318247850302963,-0.11407425723773677,-0.8885051044444542,-0.12969640182229472,1.28101692174875,-0.8206090460401378,no_tremor
18,2566042,0.108,-0.5316550750212653,-0.114255351494859,-0.8886000411940351,-0.13611221216943836,1.2980191330423834,-0.7788154880722985,no_tremor
19,2566047,0.113,-0.5314966905715888,-0.11441770803706763,-0.8886899002332802,-0.14210967341331765,1.314866533535286,-0.7408791525872108,no_tremor
20,2566052,0.118,-0.5313489373350794,-0.11456175343657629,-0.8887745823796847,-0.1476842962748825,1.331506873326444,-0.7067075262438711,no_tremor
21,2566057,0.123,-0.531211097503595,-0.11468804115052667,-0.888854016952354,-0.15283713428145038,1.3478875645054018,-0.6761891373584035,no_tremor
22,2566062,0.128,-0.5310824470134522,-0.11479723485309519,-0.8889281591582426,-0.15757479349436293,1.3639568571451228,-0.6491959127537705,no_tremor
23,2566067,0.133,-0.5309622705161869,-0.114890093211307,-0.8889969878938374,-0.16190940981877527,1.379665069915529,-0.6255856002728769,no_tremor
24,2566072,0.138,-0.5308498744094176,-0.11496745565627929,-0.8890605037536733,-0.16585858567089276,1.3949658321929757,-0.605204217075541,no_tremor
25,2566077,0.143,-0.5307445980201144,-0.11503022892410662,-0.8891187271385667,-0.16944527802505552,1.4098172913163813,-0.5878884864855859,no_tremor
26,2566081,0.147,-0.5306458229310063,-0.11507937426096479,-0.8891716964273803,-0.1726976307933453,1.424183237905107,-0.5734682288915761,no_tremor
27,2566086,0.152,-0.5305529804045473,-0.11511589524358322,-0.8892194662261057,-0.17564874559532972,1.438034104419463,-0.5617686755238455,no_tremor
28,2566091,0.157,-0.5304655568653392,-0.11514082618527927,-0.8892621057417798,-0.17833638600750928,1.451347796917923,-0.5526126779863625,no_tremor
29,2566096,0.162,-0.5303830974360515,-0.11515522109720304,-0.8892996973479451,-0.1808026112808497,1.4641103263521693,-0.5458227908216677,no_tremor
30,2566122,0.188,-0.5303052075721009,-0.11516014316649495,-0.8893323354131141,-0.18309333633064984,1.4763162136116403,-0.5412232086526568,no_tremor
31,2566127,0.193,-0.5302315528970069,-0.11515665470591417,-0.8893601254540925,-0.18525781556454884,1.4879686522503408,-0.53864154324322,no_tremor
32,2566132,0.198,-0.530161857394973,-0.11514580752848352,-0.8893831836537435,-0.1873480489839032,1.4990794240536003,-0.5379104286960157,no_tremor
33,2566137,0.203,-0.5300959001626874,-0.11512863370874264,-0.8894016367518809,-0.1894181105725229,1.5096685740273474,-0.5388689445724726,no_tremor
34,2566141,0.207,-0.5300335109538884,-0.11510613670980811,-0.8894156222841527,-0.19152340196392467,1.5197638615556266,-0.5413638474113497,no_tremor
35,2566146,0.212,-0.5299745647668498,-0.11507928288081673,-0.8894252891124369,-0.19371983873359933,1.5294000124411742,-0.5452506022262463,no_tremor
36,2566151,0.217,-0.5299189757285836,-0.11504899335916477,-0.8894307981653308,-0.19606298162813013,1.5386178021701116,-0.5503942081230269,no_tremor
37,2566156,0.222,-0.5298666905233328,-0.11501613644248854,-0.8894323232908391,-0.1986071298861482,1.5474630045000906,-0.5566698160500201,no_tremor
38,2566161,0.227,-0.5298176815995885,-0.11498152052308616,-0.8894300521159089,-0.20140439823098302,1.5559852417552436,-0.5639631408140034,no_tremor
39,2566166,0.232,-0.5297719403714234,-0.11494588769962492,-0.8894241868083288,-0.20450380282920583,1.5642367737559928,-0.5721706729353497,no_tremor
40,2566171,0.237,-0.5297294706077917,-0.11490990819548715,-0.8894149446441733,-0.20795038381302425,1.5722712606362383,-0.5811996985743051,no_tremor
41,2566176,0.242,-0.5296902821785835,-0.11487417571875666,-0.8894025582965711,-0.2117843920939055,1.5801425311267419,-0.5909681380408902,no_tremor
42,2566181,0.247,-0.5296543852993574,-0.11483920389506885,-0.8893872757773601,-0.21604056608185562,1.5879033832620968,-0.601404215424999,no_tremor
43,2566185,0.251,-0.5296217853884337,-0.11480542389130746,-0.8893693599806575,-0.22074752036074355,1.5956044400899205,-0.6124459734509725,no_tremor
44,2566190,0.256,-0.5295924786210734,-0.11477318332587702,-0.8893490877953523,-0.22592726418643255,1.603293079598278,-0.6240406489528153,no_tremor
45,2566195,0.261,-0.529566448236693,-0.1147427465309405,-0.8893267487711691,-0.23159486300799198,1.6110124559753483,-0.6361439259796065,no_tremor
46,2566200,0.266,-0.5295436616276287,-0.11471429619500237,-0.8893026433397598,-0.2377582508737476,1.6188006282721081,-0.648719085661662,no_tremor
47,2566205,0.271,-0.5295240682131773,-0.114687936372413,-0.8892770806080815,-0.24441819573262435,1.6266898121583497,-0.6617360741283776,no_tremor
48,2566210,0.276,-0.5295075980817984,-0.11466369680200104,-0.8892503757562416,-0.25156841365031585,1.6347057704038075,-0.6751705114775741,no_tremor
49,2566219,0.285,-0.5294941613684423,-0.11464153843253859,-0.8892228470862426,-0.25919582201472224,1.6428673575700845,-0.6890026658722481,no_tremor
50,2566246,0.312,-0.5294836483235458,-0.11462136001067902,-0.8891948127818081,-0.26728091608778853,1.6511862334510778,-0.7032164171953094,no_tremor
51,2566251,0.317,-0.52947593002502,-0.11460300555024484,-0.8891665874524622,-0.2757982483336154,1.6596667572361201,-0.7177982342159617,no_tremor
52,2566255,0.321,-0.5294708596829818,-0.11458627247360097,-0.8891384785463327,-0.2847169867141611,1.6683060697636993,-0.7327361878665959,no_tremor
53,2566260,0.326,-0.5294682744861494,-0.11457092019950879,-0.8891107827241929,-0.29400152739373175,1.6770943647903174,-0.7480190210970205,no_tremor
54,2566265,0.331,-0.5294679979357187,-0.11455667894892446,-0.8890837822906598,-0.3036121392154674,1.6860153426865199,-0.7636352930316131,no_tremor
55,2566270,0.336,-0.5294698426053985,-0.11454325854977862,-0.8890577417768324,-0.3135056212432395,1.6950468324172567,-0.7795726116703633,no_tremor
56,2566280,0.346,-0.5294736132551039,-0.11453035704112317,-0.8890329047626317,-0.323635959405776,1.704161560811636,-0.7958169646110244,no_tremor
57,2566285,0.351,-0.5294791102116373,-0.11451766890305119,-0.8890094910177745,-0.33395497276435426,1.7133280420850612,-0.8123521511160062,no_tremor
58,2566290,0.356,-0.5294861329141252,-0.11450489276880765,-0.8889876940287408,-0.34441294362956226,1.7225115552246402,-0.8291593125577302,no_tremor
59,2566294,0.36,-0.5294944835070096,-0.11449173850721478,-0.8889676789661904,-0.3549592285679894,1.7316751725372448,-0.8462165539475056,no_tremor
60,2566299,0.365,-0.5295039703512525,-0.11447793359486132,-0.888949581133826,-0.3655428491898333,1.7407808001125142,-0.8634986479707205,no_tremor
61,2566304,0.37,-0.5295144113171946,-0.11446322872665578,-0.8889335049263162,-0.3761130623591133,1.7497901906050977,-0.8809768137812378,no_tremor
62,2566309,0.375,-0.5295256367218734,-0.11444740263892123,-0.888919523310984,-0.3866199090792608,1.7586658906866102,-0.898618564029427,no_tremor
63,2566314,0.38,-0.5295374917806854,-0.11443026614023587,-0.8889076778357597,-0.39701473996968417,1.767372089907739,-0.9163876146203058,no_tremor
64,2566319,0.385,-0.529549838458625,-0.11441166536112718,-0.8888979791544979,-0.40725071351556075,1.775875344449486,-0.9342438532922676,no_tremor
65,2566324,0.39,-0.5295625566299074,-0.11439148424430551,-0.888890408050219,-0.417283261899328,1.7841451574117908,-0.9521433660134965,no_tremor
66,2566329,0.395,-0.5295755444858616,-0.11436964630249952,-0.8888849169272014,-0.42707051860635276,1.792154405630647,-0.970038524062802,no_tremor
67,2566334,0.4,-0.5295887181681733,-0.11434611567153596,-0.8888814317341713,-0.43657370201475276,1.7998796109765398,-0.9878781383177209,no_tremor
68,2566339,0.405,-0.5296020106458613,-0.11432089748276937,-0.8888798542731959,-0.44575744970558756,1.807301061851902,-1.005607689582725,no_tremor
69,2566344,0.41,-0.5296153698973742,-0.11429403757228153,-0.8888800648423152,-0.45459009932746514,1.814402798229387,-1.0231696442830969,no_tremor
70,2566368,0.434,-0.5296287565013001,-0.11426562153567722,-0.888881925154486,-0.4630439133183108,1.8211724804736922,-1.0405038638637825,no_tremor
71,2566373,0.439,-0.5296421407775821,-0.1142357731283921,-0.8888852814710955,-0.4710952461069581,1.8276011673273138,-1.0575481145240628,no_tremor
72,2566378,0.444,-0.5296554996523143,-0.114204652004335,-0.8888899678852015,-0.47872465329829983,1.833683030732099,-1.0742386818925147,no_tremor
73,2566383,0.449,-0.5296688134390696,-0.11417245078301569,-0.8888958096879394,-0.48591694295074017,1.8394150340802389,-1.0905110925981922,no_tremor
74,2566388,0.454,-0.5296820627350018,-0.11413939143935964,-0.8889026267513624,-0.4926611697143341,1.8447965967812734,-1.1063009409518807,no_tremor
75,2566393,0.459,-0.5296952256199924,-0.11410572102220966,-0.8889102368625084,-0.4989505735662935,1.8498292635677287,-1.1215448141656594,no_tremor
76,2566398,0.464,-0.5297082753238723,-0.11407170672661794,-0.8889184589466765,-0.5047824661963773,1.854516393383485,-1.1361813042934819,no_tremor
77,2566402,0.468,-0.5297211784936056,-0.11403763037008603,-0.8889271161226386,-0.5101580694745003,1.8588628802217522,-1.150152089983081,no_tremor
78,2566407,0.473,-0.5297338941526495,-0.1140037823521697,-0.8889360385384778,-0.5150823114349687,1.8628749159678037,-1.16340306632133,no_tremor
79,2566412,0.478,-0.5297463734015593,-0.11397045520836158,-0.8889450659436019,-0.5195635856267563,1.8665598022929288,-1.1758854961989484,no_tremor
80,2566417,0.483,-0.5297585598649206,-0.1139379369007244,-0.8889540499597511,-0.5236134797301243,1.8699258149700393,-1.1875571516721322,no_tremor
81,2566422,0.488,-0.529770390847185,-0.11390650401704279,-0.888962856021129,-0.5272464794885281,1.8729821202990526,-1.1983834094928105,no_tremor
82,2566427,0.493,-0.5297817991209536,-0.11387641507486679,-0.88897136496083,-0.5304796545463373,1.8757387400709846,-1.2083382621631475,no_tremor
83,2566432,0.498,-0.5297927152373881,-0.1138479041443118,-0.8889794742273335,-0.533332333586065,1.8782065584982672,-1.217405204669152,no_tremor
84,2566436,0.502,-0.52980307022116,-0.11382117501164023,-0.8889870987209504,-0.535825776723247,1.8803973615556562,-1.225577957101342,no_tremor
85,2566442,0.508,-0.5298127984927212,-0.11379639610289496,-0.8889941712457406,-0.537982852765077,1.8823238964050322,-1.2328609845201417,no_tremor
86,2566447,0.513,-0.5298218408493384,-0.11377369637260222,-0.889000642577657,-0.5398277270647769,1.8839999364021465,-1.2392697777102606,no_tremor
87,2566452,0.518,-0.529830147333303,-0.11375316233730508,-0.8890064811546085,-0.5413855621966652,1.8854403357700107,-1.2448308616797763,no_tremor
88,2566456,0.522,-0.5298376798205823,-0.11373483639875547,-0.8890116723989403,-0.5426822292111623,1.8866610574170792,-1.2495815025287997,no_tremor
