sample,t_ms,t_s,ax,ay,az,gx,gy,gz,tremor
0,1033337,0.0,-0.46984420878269556,0.10223309381021636,-1.0469841339760613,8.668335865397552,7.086682383476409,-15.180517453200428,no_tremor
1,1033342,0.005,-0.47006329393548135,0.10232993767444751,-1.0506259710514823,10.106642061982598,-2.068505017859171,-16.394190233216452,no_tremor
2,1033347,0.01,-0.4702837709311437,0.10238150518903917,-1.055430992787709,11.521853234258192,-11.74814410087475,-17.56405476180182,no_tremor
3,1033352,0.015,-0.4704589093391326,0.10233433067311416,-1.0613406283968674,12.908324311324984,-21.94403758052243,-18.682292667423514,no_tremor
4,1033366,0.029,-0.47053029043788885,0.10212915847189526,-1.068029711189107,14.260556152957955,-32.644584357837324,-19.741168189907942,no_tremor
5,1033371,0.034,-0.4704453356751738,0.10171451287734906,-1.075056024555281,15.57324256274813,-43.83466925387424,-20.73309031785584,no_tremor
6,1033376,0.039,-0.470165924220202,0.101052011247624,-1.081981099603019,16.841316915038366,-55.49557649208023,-21.65067591183869,no_tremor
7,1033381,0.044,-0.4696694531039814,0.10011586759164712,-1.0884265033105536,18.059997956281848,-67.60492938769724,-22.48681328400508,no_tremor
8,1033386,0.049,-0.46894649130757743,0.09889023419858081,-1.0940853062646272,19.22483432012877,-80.13665851274077,-23.234725674875893,no_tremor
9,1033390,0.053,-0.46799779051277446,0.09736649235373596,-1.098713040764837,20.331747279755447,-93.06100036485975,-23.88803404456392,no_tremor
10,1033395,0.058,-0.4668317913506988,0.09554121863295932,-1.1021132814336425,21.377071250908962,-106.3445282735963,-24.440818577974454,no_tremor
11,1033400,0.063,-0.46546284961278417,0.09341486540382882,-1.1041245258379264,22.357591554459788,-119.95021692545676,-24.887678291442533,no_tremor
12,1033405,0.068,-0.4639100607423616,0.09099097695900014,-1.1046103061447177,23.270578947247298,-133.83754147941585,-25.223788121757167,no_tremor
13,1033410,0.073,-0.4621964930507893,0.08827575036573543,-1.1034524517695066,24.113820433924307,-147.96261177818343,-25.444952877229607,no_tremor
14,1033415,0.078,-0.4603486696832651,0.08527779701198343,-1.1005468159458065,24.885645880056614,-162.2783416403015,-25.54765743356004,no_tremor
15,1033420,0.083,-0.4583961873221439,0.0820080102115703,-1.0958007449814542,25.584949958443882,-176.7346526488162,-25.529112563772507,no_tremor
16,1033425,0.088,-0.45637140012895966,0.07847948107187766,-1.0891317110242984,26.21120897757341,-191.27871124275936,-25.387295800470103,no_tremor
17,1033452,0.115,-0.45430912594813155,0.07470742894479879,-1.0804666906085438,26.764492164364434,-205.85519728466537,-25.1209867399583,no_tremor
18,1033456,0.119,-0.45224635031908095,0.07070912758754286,-1.0697420033660265,27.24546700489024,-220.40660165965897,-24.729796213443766,no_tremor
19,1033461,0.124,-0.45022191539709977,0.06650381694757149,-1.056903421037231,27.65539829190145,-234.87354993973386,-24.21418877520141,no_tremor
20,1033466,0.129,-0.44827618793033597,0.06211259561389821,-1.0419064223308272,27.99614059472815,-249.19514882435112,-23.57549799634919,no_tremor
21,1033471,0.134,-0.4464507046679648,0.057558291950204524,-1.0247165124895163,28.270123959906904,-263.3093519988418,-22.815934107443613,no_tremor
22,1033476,0.139,-0.444787796065322,0.052865313655658074,-1.0053095546415574,28.480332765419835,-277.1533421895461,-21.938583601029308,no_tremor
23,1033481,0.144,-0.44333019058415146,0.04805947652698869,-0.983672078310793,28.630277777951452,-290.66392643710685,-20.947400482728582,no_tremor
24,1033486,0.149,-0.44212060267893183,0.04316781383467747,-0.9598015423624676,28.723961592109422,-303.777941871988,-19.847188944164106,no_tremor
25,1033491,0.154,-0.44120130796711765,0.03821836815594064,-0.9337065375130361,28.76583775732481,-316.4326695135657,-18.643577322318496,no_tremor
26,1033496,0.159,-0.4406137092549857,0.03323996782660865,-0.9054069188316874,28.7607640185384,-328.5662538024926,-17.34298330775798,no_tremor
27,1033501,0.164,-0.4403978971258037,0.028261990435843168,-0.874933862355868,28.71395020841966,-340.11812569993,-15.952570468481229,no_tremor
28,1033505,0.168,-0.44059220875397914,0.023314116017889925,-0.8423298426160838,28.63090142976298,-351.02942723605355,-14.480196267036138,no_tremor
29,1033510,0.173,-0.4412327885302579,0.018426072803835222,-0.8076485298652747,28.51735725439708,-361.2434353581701,-12.934351865971108,no_tremor
30,1033515,0.178,-0.44235315400293385,0.013627378583927468,-0.7709546073352616,28.37922773673401,-370.70598281495165,-11.324094140430084,no_tremor
31,1033520,0.183,-0.44398377058879945,0.00894708089179895,-0.7323235100114661,28.222527094233218,-379.3658736213753,-9.658970446033425,no_tremor
32,1033525,0.188,-0.4461516385123388,0.004413499347738669,-0.6918410873000099,28.053305943539176,-387.17529038666623,-7.948936823521627,no_tremor
33,1033535,0.198,-0.4488798955141135,5.397358130561792e-05,-0.6496031926138924,27.87758300132126,-394.0901904670378,-6.204270456199413,no_tremor
34,1033540,0.203,-0.45218743904433556,-0.004105379812617476,-0.6057152033728495,27.701277164582603,-400.07068754504826,-4.435477327763308,no_tremor
35,1033545,0.208,-0.45608857193381064,-0.00803989785302751,-0.5602914752302542,27.530140876342394,-405.0814148654983,-2.6531961510358104,no_tremor
36,1033549,0.212,-0.4605926759128506,-0.011726585944313854,-0.5134547345375842,27.369695656690464,-409.0918660074139,-0.8680997470229477,no_tremor
37,1033577,0.24,-0.4657039178173253,-0.015144313659267359,-0.4653354131612866,27.22517063377541,-412.07670877509315,0.9092048541932446,no_tremor
38,1033582,0.245,-0.47142099384275515,-0.018273988592746534,-0.4160709298164993,27.101444844107615,-414.0160675823484,2.6682762442324104,no_tremor
39,1033587,0.25,-0.47773691770684396,-0.021098705663067985,-0.3658049221194477,27.002993987815017,-414.8957696326452,4.39893699728591,no_tremor
40,1033592,0.255,-0.4846388589477661,-0.02360386963233277,-0.3146864336187676,26.933842223557605,-414.70755032069354,6.091369132485034,no_tremor
41,1033597,0.26,-0.4921080377105945,-0.025777289082184258,-0.2628690601672551,26.89751947305945,-413.4492136158204,7.736205258366083,no_tremor
42,1033601,0.264,-0.5001196821943795,-0.027609240605565653,-0.2105100601583308,26.897024583645116,-411.1247436850187,9.324614026327195,no_tremor
43,1033606,0.269,-0.5086430544420005,-0.029092502538960112,-0.1577694333933572,26.934794577678154,-407.7443645949243,10.848378597524343,no_tremor
44,1033611,0.274,-0.5176415493821508,-0.03022235814288127,-0.10480897367449374,27.01268010891544,-403.324545542836,12.299966930018108,no_tremor
45,1033616,0.279,-0.52707287101458,-0.0309965687226041,-0.05179130062547456,27.13192715542601,-397.887949690426,13.672592817478872,no_tremor
46,1033621,0.284,-0.5368892884030286,-0.031415317749783817,0.0011211232867356091,27.293164914525015,-391.4633253121101,14.960266758873882,no_tremor
47,1033626,0.289,-0.5470379727422888,-0.031481127582950685,0.053766984038771504,27.49639983345907,-384.08533862943204,16.157835913739206,no_tremor
48,1033631,0.294,-0.5574614152342212,-0.031198750875942937,0.10598710860375676,27.741015712932878,-375.7943483897435,17.2610126021246,no_tremor
49,1033636,0.299,-0.5680979238794546,-0.030575039194994304,0.1576254511554605,28.025779855039836,-366.63612296825085,18.266391040240677,no_tremor
50,1033640,0.303,-0.5788821956014796,-0.02961879172658005,0.20853006473203303,28.348855280027987,-356.6615015333076,19.171452253769324,no_tremor
51,1033645,0.308,-0.5897459583981907,-0.028340587240566848,0.25855404960548706,28.707819086334357,-345.92600162159334,19.97455736530917,no_tremor
52,1033660,0.323,-0.6006186764879539,-0.026752602670197342,0.30755646908111284,29.099687050622464,-334.4893763281715,20.674929693722895,no_tremor
53,1033665,0.328,-0.6114283097056319,-0.02486842177817737,0.3554032230076987,29.52094453866495,-322.4151252312367,21.27262632191025,no_tremor
54,1033670,0.333,-0.6221021167342093,-0.02270283739699562,0.40196786897312275,29.967583712913246,-309.7699641447775,21.76849998634537,no_tremor
55,1033675,0.338,-0.6325674901611743,-0.020271650668723135,0.4471323810627017,30.435146878275802,-296.623259819349,22.164152319807894,no_tremor
56,1033701,0.364,-0.6427528098597232,-0.017591470580302714,0.49078783622983946,30.91877561490676,-283.04643677023546,22.461879635692064,no_tremor
57,1033706,0.369,-0.6525882998572461,-0.014679516914248864,0.532835018799641,31.41326512866648,-269.1123644432735,22.664612568948986,no_tremor
58,1033711,0.374,-0.6620068727541311,-0.011553429525063674,0.5731849344132286,31.913123040460164,-254.89473380549077,22.77585097353081,no_tremor
59,1033716,0.379,-0.6709449450434117,-0.008231086607575482,0.6117592258523171,32.41263167292773,-240.46743300076682,22.79959551056548,no_tremor
60,1033726,0.389,-0.6793432065197162,-0.004730434332727849,0.6484904846791677,32.90591280397681,-225.90393182003854,22.74027734444001,no_tremor
61,1033731,0.394,-0.6871473274555849,-0.0010693298770146874,0.6833224544496481,33.38699384534432,-211.27668439958697,22.602687302383874,no_tremor
62,1033736,0.399,-0.694308588383852,0.00273460054036999,0.7162101233095742,33.8498744542786,-196.65655885694375,22.39190575583017,no_tremor
63,1033740,0.403,-0.7007844191289556,0.006664087468355747,0.7471197059476268,34.28859267310418,-182.11230158360962,22.11323435457675,no_tremor
64,1033745,0.408,-0.7065388361204517,0.010702327251364125,0.7760285170442963,34.697289792073555,-167.71004270897262,21.77213059217863,no_tremor
65,1033750,0.413,-0.7115427698981338,0.01483307417381392,0.8029247404385687,35.070273228452656,-153.51284791170025,21.374146010549808,no_tremor
66,1033755,0.418,-0.7157742779353807,0.01904071614253403,0.8278071001647006,35.40207679877018,-139.58032037026155,20.924868673871327,no_tremor
67,1033760,0.423,-0.7192186412988744,0.023310334803027716,0.8506844412387666,35.68751782644772,-125.96825528847427,20.429870367071896,no_tremor
68,1033765,0.428,-0.7218683470596461,0.02762775138437971,0.871575229559118,35.9217505718358,-112.72834816360438,19.8946588106602,no_tremor
69,1033770,0.433,-0.7237229616075191,0.0319795598628943,0.8905069814976471,36.1003154968868,-99.90795682843255,19.32463503728201,no_tremor
70,1033775,0.438,-0.7247889029369027,0.03635314920555152,0.9075156346847782,36.21918388645489,-87.54991632762913,18.725055950054674,no_tremor
71,1033779,0.442,-0.7250791224141776,0.04073671649070267,0.9226448721298226,36.27479735072213,-75.6924049030025,18.10100198149417,no_tremor
72,1033784,0.447,-0.7246127083814475,0.045119272608563576,0.9359454121759767,36.264101740774365,-64.36885876853941,17.45734969608247,no_tremor
73,1033789,0.452,-0.7234144251244509,0.049490642035273626,0.9474742768687705,36.184575036722215,-53.60793294694348,16.798749127434327,no_tremor
74,1033794,0.457,-0.7215142012171961,0.053841457879296964,0.9572940511129678,36.03424882896192,-43.43350519255656,16.129605606933186,no_tremor
75,1033799,0.462,-0.7189465810827683,0.058163153051793155,0.965472144492649,35.81172311693692,-33.864719908398776,15.454065816234108,no_tremor
76,1033825,0.488,-0.715750152845723,0.06244794805046614,0.9720800668128834,35.516174295375194,-24.91606894007354,14.776007772544409,no_tremor
77,1033830,0.493,-0.7119669643029152,0.06668883550868523,0.977192727267422,35.14735637230688,-16.597506157346597,14.0990344270451,no_tremor
78,1033835,0.498,-0.7076419372667893,0.07087956139022794,0.9808877656367593,34.70559564197029,-8.914592774930597,13.426470522646685,no_tremor
79,1033839,0.502,-0.7028222888477845,0.07501460254341737,0.9832449221076154,34.191779192357956,-1.8686703832147673,12.761362323826535,no_tremor
80,1033844,0.507,-0.6975569666470667,0.07908914028605359,0.9843454502741507,33.60733774495939,4.542941353704088,12.106479809127007,no_tremor
81,1033849,0.512,-0.691896103460559,0.08309902976176872,0.9842715757821116,32.954223401433055,10.326725403419841,11.46432091475481,no_tremor
82,1033854,0.517,-0.685890495987983,0.08704076495164412,0.9831060010746415,32.234882914582805,15.492729558316423,10.837117438132756,no_tremor
83,1033859,0.522,-0.6795911111710661,0.09091143939955657,0.9809314549386556,31.452227113991817,20.054313179975534,10.226842249666959,no_tremor
84,1033864,0.527,-0.6730486231047802,0.09470870288272208,0.9778302841452812,30.609597102248497,24.0278814978421,9.6352175128917,no_tremor
85,1033869,0.532,-0.666312982922169,0.09843071440980933,0.9738840835007825,29.710727799393307,27.43261036692786,9.063723671032875,no_tremor
86,1033873,0.536,-0.659433023597009,0.1020760920478573,0.969173360106361,28.75970935794008,30.290164261083547,8.513609016601972,no_tremor
87,1033878,0.541,-0.6524561011955097,0.10564386016424498,0.9637772275491241,27.760946908000633,32.624410131418436,7.985899715612783,no_tremor
88,1033883,0.546,-0.6454277737056394,0.1091333947252234,0.9577731260525907,26.719119031593536,34.46112960701,7.481410205694899,no_tremor
89,1033888,0.551,-0.6383915181620688,0.11254436732571908,0.9512365652152305,25.63913531568712,35.82773186906732,7.0007539245592385,no_tremor
90,1033893,0.556,-0.6313884863622552,0.11587668864527688,0.9442408867577531,24.526093300656783,36.752969398018884,6.544354349367768,no_tremor
91,1033898,0.561,-0.6244572990421153,0.11913045204064816,0.9368570455786009,23.385235126601582,37.26665867737134,6.112456337054377,no_tremor
92,1033903,0.566,-0.6176338779621543,0.12230587800327915,0.92915340828016,22.22190418190615,37.39940783366925,5.705137751110786,no_tremor
93,1033908,0.571,-0.6109513149636663,0.1254032602335094,0.9211955690823175,21.041502069905395,37.18235308745342,5.322321345189559,no_tremor
94,1033912,0.575,-0.6044397767057206,0.12842291411262244,0.9130461836082826,19.84944622181018,36.646905770975586,4.96378685358225,no_tremor
95,1033917,0.58,-0.5981264434990599,0.131365128384836,0.904764821360755,18.651128489795298,35.824511520082865,4.629183218992419,no_tremor
96,1033923,0.586,-0.5920354804181259,0.13423012088591532,0.8964078377925293,17.45187504955516,34.74642306047833,4.318040873618768,no_tremor
97,1033948,0.611,-0.5861880386941364,0.1370179991627522,0.8880282667405339,16.256907926255394,33.44348778078641,4.029783983109225,no_tremor
98,1033953,0.616,-0.5806022852581345,0.1397287268071827,0.8796757336954466,15.071308432660286,31.945951025020705,3.763742564751227,no_tremor
99,1033958,0.621,-0.5752934581924964,0.14236209626593685,0.8713963900060628,13.89998277462395,30.28327576602629,3.519164398324154,no_tremor
100,1033963,0.626,-0.5702739457397688,0.14491770877832125,0.8632328677633625,12.747630039579102,28.48397906867871,3.295226654675311,no_tremor
101,1033967,0.63,-0.5655533863967727,0.14739496193301754,0.8552242548469847,11.618712742835154,26.575485541267458,3.0910471687212597,no_tremor
102,1033973,0.636,-0.5611387874980293,0.1497930451345505,0.8474060894735478,10.517430070134438,24.583997812045702,2.9056952802921785,no_tremor
103,1033978,0.641,-0.5570346595910285,0.15211094304524883,0.8398103735443843,9.447693927104128,22.534383946329985,2.738202161586107,no_tremor
104,1033982,0.645,-0.5532431638548336,0.15434744683775506,0.8324656041089643,8.413107887984463,20.45008162418773,2.5875705472937063,no_tremor
105,1033987,0.65,-0.5497642698316129,0.15650117287116558,0.8253968222951386,7.416949125555421,18.35301881796782,2.452783784365479,no_tremor
106,1033992,0.655,-0.5465959208332389,0.15857058820169692,0.8186256790701415,6.462153397865299,16.263550633718797,2.332814123951667,no_tremor
107,1033997,0.66,-0.5437342045457946,0.1605540421642248,0.8121705171590785,5.551303160607143,14.200411904865877,2.226630189122061,no_tremor
108,1034002,0.665,-0.5411735265687515,0.16244980311950766,0.8060464683445765,4.686618862686766,12.180685047635304,2.1332035687629576,no_tremor
109,1034007,0.67,-0.538906784871846,0.16425609935659957,0.800265565200242,3.8699534643089706,10.2197826053383,2.051514509760591,no_tremor
110,1034012,0.675,-0.5369255434072173,0.16597116307160925,0.7948368660835766,3.102790191349913,8.33144382373688,1.9805567046283798,no_tremor
111,1034017,0.68,-0.5352202033542183,0.16759327631058263,0.7897665919559125,2.3862435076046555,6.527744514041861,1.919341198092704,no_tremor
112,1034021,0.684,-0.5337801706816256,0.16912081776183321,0.7850582733410586,1.7210632487007207,4.819119376067655,1.8668994617368946,no_tremor
113,1034026,0.689,-0.5325940188765381,0.17055230930685517,0.7807129055164433,1.107641819151486,3.2143958747640267,1.8222857087001256,no_tremor
114,1034031,0.694,-0.5316496458084712,0.17188646128492582,0.7767291098836696,0.5460243090226271,1.7208386924261903,1.78457853897649,no_tremor
115,1034036,0.699,-0.530934423775465,0.17312221549169385,0.7731032994166426,0.03592134226610093,0.34420372059355797,1.7528820189761702,no_tremor
116,1034041,0.704,-0.5304353418270308,0.17425878501488032,0.7698298461528467,-0.4232755708842657,-0.9111994852032955,1.7263263065110612,no_tremor
117,1034046,0.709,-0.5301391394925606,0.17529569011033144,0.76690124888244,-0.8324764365489812,-2.0424378830631276,1.7040679346155145,no_tremor
118,1034070,0.733,-0.5300324310834046,0.17623278943918427,0.7643082994905489,-1.1928732156348902,-3.0478788418859857,1.6852898647586143,no_tremor
119,1034075,0.738,-0.5301018198035542,0.1770703061212049,0.7620402467918532,-1.5059185903584418,-3.927108810476615,1.6692014118549758,no_tremor
120,1034080,0.743,-0.5303340010170075,0.17780884820757586,0.7600849571125543,-1.773303353029254,-4.680847755014565,1.6550381303121497,no_tremor
121,1034085,0.748,-0.5307158541915178,0.17844942333246233,0.7584290712550553,-1.9969327050326138,-5.310860295708433,1.6420617338252235,no_tremor
122,1034090,0.753,-0.5312345232666279,0.17899344745775164,0.7570581577627079,-2.1789017422825085,-5.819864411111981,1.6295601047297295,no_tremor
123,1034095,0.758,-0.5318774854597684,0.17944274776994437,0.7559568625560289,-2.3214703892581583,-6.211438528168084,1.616847434432158,no_tremor
124,1034099,0.762,-0.5326326087974944,0.17979955991433696,0.7551090550462127,-2.4270380293781457,-6.489927779485678,1.603264526135371,no_tremor
125,1034104,0.767,-0.5334881989086008,0.18006651985412941,0.7544979707761614,-2.4981180661703037,-6.660350183435613,1.5881792841019917,no_tremor
126,1034109,0.772,-0.5344330358177494,0.18024665071844267,0.7541063505270803,-2.537312637790073,-6.728303481606262,1.5709874081988944,no_tremor
127,1034114,0.777,-0.5354564016176452,0.1803433450534993,0.7539165756900404,-2.5472876966006703,-6.699873345608627,1.551113306532592,no_tremor
128,1034119,0.782,-0.5365480999693819,0.18036034291760128,0.753910799562271,-2.5307486549949423,-6.581543635859219,1.5280112313640337,no_tremor
129,1034123,0.786,-0.5376984683875762,0.18030170626691402,0.7540710741081211,-2.490416787578959,-6.380109355911086,1.5011666338599148,no_tremor
130,1034128,0.791,-0.538898384219965,0.1801717900704804,0.7543794716403439,-2.429006568121664,-6.102592897017468,1.4700977221854017,no_tremor
131,1034133,0.796,-0.5401392651465112,0.17997521057496207,0.7548182008381462,-2.349204108030367,-5.756164110701168,1.4343571961938573,no_tremor
132,1034138,0.801,-0.5414130649197831,0.17971681111787507,0.7553697165268174,-2.253646851777515,-5.348064684464866,1.3935341218645076,no_tremor
133,1034143,0.806,-0.5427122649649763,0.17940162586746072,0.7560168226956758,-2.1449046722531704,-4.885537229171705,1.3472559005352023,no_tremor
134,1034148,0.811,-0.5440298623696608,0.17903484185178975,0.7567427683178679,-2.0254624932513083,-4.375759417298168,1.2951902819867431,no_tremor
135,1034153,0.816,-0.5453593547305874,0.17862175963215712,0.7575313356457258,-1.8977045460338366,-3.8257834403914326,1.2370473662423507,no_tremor
136,1034157,0.82,-0.5466947222927862,0.17816775297811058,0.7583669207759891,-1.7639003425016966,-3.2424809827242984,1.1725815363169971,no_tremor
137,1034162,0.825,-0.5480304078147761,0.17767822791421964,0.7592346063967701,-1.6261924202073779,-2.6324938371417628,1.1015932631117191,no_tremor
138,1034167,0.83,-0.5493612946185789,0.17715858153133943,0.7601202267296598,-1.4865858859357222,-2.002190219185147,1.0239307242056819,no_tremor
139,1034191,0.854,-0.5506826833264759,0.17661416098559818,0.7610104247543676,-1.3469397566748096,-1.357626767741427,0.9394911801830433,no_tremor
140,1034195,0.858,-0.5519902678366825,0.17605022314249055,0.7618927018422115,-1.2089600714615532,-0.7045161567243495,0.8482220551949095,no_tremor
141,1034200,0.863,-0.5532801111322251,0.17547189535405913,0.762755459927899,-1.0741947271272094,-0.04820018712197265,0.7501216733838341,no_tremor
142,1034205,0.868,-0.5545486215338444,0.1748841378744134,0.7635880363240242,-0.9440299772958006,0.606371811852314,0.645239610734755,no_tremor
143,1034210,0.873,-0.5557925299845929,0.17429170841414562,0.7643807312435907,-0.8196885268129732,1.25465946683491,0.5336766328968531,no_tremor
144,1034215,0.878,-0.5570088688861474,0.17369912930454692,0.7651248280583822,-0.7022291504118164,1.8925429328208034,0.41558420178279626,no_tremor
145,1034219,0.882,-0.558194952900091,0.17311065769125453,0.765812606298332,-0.5925477622316022,2.5163297592506337,0.29116354513068926,no_tremor
146,1034224,0.887,-0.5593483619928401,0.1725302591108605,0.7664373473982162,-0.4913798610978288,3.1227572564774526,0.1606642928089933,no_tremor
147,1034229,0.892,-0.5604669268538118,0.1719615847303069,0.7669933332276956,-0.39930427553031167,3.7089905751678147,0.024382691762864228,no_tremor
148,1034234,0.897,-0.5615487166667374,0.17140795245390608,0.7674758374993341,-0.31674813195461643,4.272616723654042,-0.11734058151494164,no_tremor
149,1034239,0.902,-0.5625920290775883,0.17087233203148136,0.767881110232677,-0.24399296844208734,4.81163476868288,-0.26412298656197486,no_tremor
150,1034244,0.907,-0.5635953820917332,0.17035733423666252,0.7682063555530878,-0.18118191319478377,5.324442493466162,-0.4155430347477105,no_tremor
151,1034249,0.912,-0.564557507556521,0.16986520412837677,0.7684497032118907,-0.12832784105633113,5.809819822542774,-0.5711435265084656,no_tremor
152,1034254,0.917,-0.5654773458478645,0.16939781836125536,0.7686101743185831,-0.08532241257392889,6.266909363572604,-0.7304350819754584,no_tremor
153,1034258,0.921,-0.5663540413807098,0.1689566864712035,0.76868764186584,-0.051945889320644964,6.695194457718677,-0.8928999381774344,no_tremor
154,1034263,0.926,-0.5671869385998927,0.1685429560291387,0.7686827866941293,-0.02787760730145169,7.094475166932166,-1.0579959869596962,no_tremor
155,1034268,0.931,-0.5679755781726693,0.16815742152665533,0.768597049577245,-0.012706978390943062,7.464842652139918,-1.225161028290499,no_tremor
156,1034273,0.936,-0.5687196931866332,0.16780053682938445,0.7684325801080604,-0.005944879389542266,7.80665240589361,-1.3938172132603008,no_tremor
157,1034278,0.941,-0.5694192052433699,0.16747243100412423,0.7681921830245643,-0.007035281326043811,8.120496792850323,-1.5633756489307493,no_tremor
158,1034283,0.946,-0.5700742204143028,0.16717292729172772,0.7678792625440519,-0.015366969498687417,8.407177320252808,-1.7332411327869928,no_tremor
159,1034288,0.951,-0.5706850250768413,0.1669015649575295,0.7674977651769406,-0.03028520756485495,8.667677010447274,-1.9028169782594486,no_tremor
160,1034313,0.976,-0.5712520816653082,0.16665762370445325,0.7670521213828185,-0.05110320580398144,8.903133183909786,-2.0715098853322473,no_tremor
161,1034318,0.981,-0.5717760243467658,0.16644015028252684,0.7665471863240438,-0.07711326344329059,9.114810892598545,-2.2387348024643967,no_tremor
162,1034323,0.986,-0.5722576545701126,0.16624798687675846,0.765988179883063,-0.10759746718440522,9.304077180408138,-2.4039197193787096,no_tremor
163,1034328,0.991,-0.5726979363516738,0.16607980081019535,0.7653806260559365,-0.14183784248216613,9.472376300659993,-2.5665103267824145,no_tremor
164,1034332,0.995,-0.5730979910733407,0.16593411506755465,0.7647302918279767,-0.1791258695131864,9.621205995162052,-2.725974479980522,no_tremor
165,1034337,1.0,-0.573459091501263,0.16580933913097282,0.7640431256773927,-0.21877129000754061,9.752094932628006,-2.881806407944561,no_tremor
166,1034342,1.005,-0.5737826546991645,0.1657037996230898,0.763325195927256,-0.260110142490062,9.866581409165063,-3.03353061594631,no_tremor
167,1034347,1.01,-0.5740702335180674,0.16561577027147992,0.7625826292577883,-0.3025119718099958,9.966193424234865,-3.180705436986046,no_tremor
168,1034352,1.015,-0.5743235063942898,0.16554350073943588,0.7618215497839103,-0.34538616524484345,10.052430258324442,-3.3229261946031254,no_tremor
169,1034357,1.02,-0.5745442652748066,0.16548524390850317,0.761048019184631,-0.3881873734333319,10.12674569038981,-3.4598279477081557,no_tremor
170,1034362,1.025,-0.5747344016036908,0.1654392812453979,0.7602679784323605,-0.43041998101280626,10.1905330003182,-3.591087797214234,no_tremor
171,1034367,1.03,-0.5748958904332089,0.16540394593771773,0.7594871917061233,-0.47164159946077544,10.245111900692338,-3.7164267439047567,no_tremor
172,1034372,1.035,-0.5750307728553873,0.16537764353708392,0.7587111930806978,-0.5114655632316312,10.291717530721252,-3.8356110956082428,no_tremor
173,1034377,1.04,-0.5751411370718076,0.1653588699031653,0.7579452365647327,-0.5495624201769296,10.33149162252702,-3.94845342792484,no_tremor
174,1034382,1.045,-0.5752290985193111,0.16534622629591805,0.7571942500188467,-0.5856604193650625,10.365475916389782,-4.054813106320773,no_tremor
175,1034387,1.05,-0.575296779537796,0.16533843151532696,0.7564627934261805,-0.6195450145681165,10.394607858250133,-4.1545963793415535,no_tremor
176,1034391,1.054,-0.5753462890976674,0.1653343310375229,0.7557550219211279,-0.6510574197749361,10.41971856176768,-4.247756053638355,no_tremor
177,1034396,1.059,-0.5753797030972279,0.1653329031434388,0.7550746539155706,-0.680092273131206,10.44153296140759,-4.334290761081177,no_tremor
178,1034401,1.064,-0.5753990456963609,0.16533326208161236,0.754424944603604,-0.7065944862296752,10.460672026115542,-4.414243826293175,no_tremor
179,1034406,1.069,-0.5754062720771693,0.16533465835109695,0.7538086650815773,-0.7305553752302778,10.477656849645355,-4.487701740908819,no_tremor
180,1034411,1.074,-0.5754032529222807,0.16533647623465725,0.7532280872943029,-0.7520081879676636,10.492914388406545,-4.5547922508946,no_tremor
181,1034435,1.098,-0.5753917607876006,0.16533822875753298,0.7526849750116779,-0.7710231565552403,10.506784585361931,-4.615682066240838,no_tremor
182,1034440,1.103,-0.5753734584320301,0.16533955029379915,0.7521805810490749,-0.7877022169640453,10.519528602065808,-4.670574207412277,no_tremor
183,1034445,1.108,-0.5753498890692529,0.1653401870905346,0.7517156509580402,-0.8021735431055617,10.531337880380567,-4.719705008961962,no_tremor
184,1034450,1.113,-0.5753224684439312,0.16533998602784925,0.7512904334108946,-0.8145860403403542,10.542343766755474,-4.763340806984656,no_tremor
185,1034454,1.117,-0.575292478617355,0.1653388819769575,0.7509046974618737,-0.8251039320019828,10.55262744830879,-4.80177434307187,no_tremor
186,1034459,1.122,-0.5752610633730246,0.1653368841548466,0.7505577567751177,-0.8339015560189105,10.56222996483454,-4.835320922436389,no_tremor
187,1034464,1.127,-0.5752292252056892,0.16533406189900388,0.7502485007659615,-0.8411584715581601,10.571162071109047,-4.864314367229401,no_tremor
188,1034469,1.132,-0.5751978239182364,0.16533053029665754,0.749975432415991,-0.8470549601148141,10.57941372962403,-4.889102807274111,no_tremor
189,1034474,1.137,-0.5751675769023444,0.16532643609891617,0.7497367123078167,-0.8517679912586851,10.586963016676822,-4.910044349440106,no_tremor
190,1034479,1.142,-0.5751390612092007,0.16532194433110226,0.7495302081971084,-0.8554677089078088,10.593784226809962,-4.927502664579977,no_tremor
191,1034484,1.147,-0.575112717519835,0.1653172259774447,0.7493535492117854,-0.858314478631552,10.599854965027847,-4.941842528942098,no_tremor
