sample,t_ms,t_s,ax,ay,az,gx,gy,gz,tremor
0,1070374,0.0,-0.42439275846344315,-0.20879966545108836,-1.0056723276209192,-0.7349841141526693,39.789366370511345,-6.16545473808929,no_tremor
1,1070379,0.005,-0.4235577586372292,-0.20878567643527887,-1.0095008219296844,0.47529706012989376,36.87371898913819,-7.395374005546557,no_tremor
2,1070384,0.01,-0.4223469343578658,-0.20876684520488326,-1.0146977730301896,1.728331285485098,33.378435069469674,-8.611739906279237,no_tremor
3,1070389,0.015,-0.42069666880473544,-0.20874572524129992,-1.0213066507386008,3.0210721434244627,29.283027886998138,-9.81089795306975,no_tremor
4,1070394,0.02,-0.41860398425817263,-0.2087281380075493,-1.0290931379782675,4.350120150888292,24.569822445072628,-10.989269508053809,no_tremor
5,1070399,0.025,-0.41610617621800233,-0.208722470486312,-1.0376835393068968,5.7117317780907335,19.224227814981024,-12.143370896078416,no_tremor
6,1070404,0.03,-0.4132566345159386,-0.2087387334736012,-1.0466866101951005,7.101832422728505,13.234997381372274,-13.269832021848845,no_tremor
7,1070408,0.034,-0.4101095615634494,-0.20878787231063808,-1.0557554865628123,8.516033507269777,6.594473887154927,-14.365414410217635,no_tremor
8,1070413,0.039,-0.40671343151418865,-0.2088813797218911,-1.0646046837351426,9.949653807833105,-0.7011838884263549,-15.427028568984152,no_tremor
9,1070418,0.044,-0.4031097340000732,-0.20903110532710872,-1.073004872178178,11.397745059261755,-8.651796012388726,-16.451750551127084,no_tremor
10,1070423,0.049,-0.39933404982962295,-0.2092491552050209,-1.0807706014628085,12.855121814624558,-17.252981023922942,-17.43683757072341,no_tremor
11,1070428,0.054,-0.39541777054365795,-0.20954781552672316,-1.0877481667073154,14.316395470267087,-26.49600343117977,-18.379742506161733,no_tremor
12,1070433,0.059,-0.39138971404362055,-0.2099394689995981,-1.0938060348986924,15.776012298897417,-36.367652102950544,-19.278127108383508,no_tremor
13,1070438,0.064,-0.3872773957093637,-0.21043649311456045,-1.0988280834150423,17.22829526107945,-46.85015242212457,-20.129873724006,no_tremor
14,1070443,0.069,-0.38310793663969145,-0.21105113883283394,-1.1027091597046759,18.667489288489637,-57.92111485070033,-20.9330953463841,no_tremor
15,1070448,0.074,-0.3789086669195242,-0.21179539221215626,-1.105352346241061,20.087809650053572,-69.55352227168348,-21.68614382441901,no_tremor
16,1070452,0.078,-0.37470749495830663,-0.212680822689727,-1.1066674039693154,21.483492925726125,-81.71575811385392,-22.38761609072529,no_tremor
17,1070457,0.083,-0.37053310458927763,-0.2137184219306168,-1.1065700003106531,22.848850024618425,-94.37167682435246,-23.036358317393642,no_tremor
18,1070462,0.088,-0.3664150271636654,-0.21491843704099345,-1.1049814453569442,24.178320597324085,-107.4807177271841,-23.63146796596801,no_tremor
19,1070467,0.093,-0.36238362269839347,-0.21629020181448091,-1.1018287486531764,25.466528109547497,-120.99806269436195,-24.1722937625149,no_tremor
20,1070472,0.098,-0.35846999394866697,-0.217841969606767,-1.0970448712444185,26.708334768405837,-134.87483736903843,-24.658433692025135,no_tremor
21,1070498,0.124,-0.35470585003694366,-0.21958075141690156,-1.090569089676399,27.898895427539845,-149.05835493340092,-25.08973116328397,no_tremor
22,1070503,0.129,-0.3511233314134015,-0.22151216276288194,-1.0823474163571636,29.03370954872596,-163.49240064183508,-25.466269541688135,no_tremor
23,1070508,0.134,-0.3477548048217712,-0.22364028293257707,-1.0723330387519112,30.10867027789762,-178.11755460589944,-25.78836527948675,no_tremor
24,1070512,0.138,-0.3446326350499726,-0.22596753012417337,-1.0604867515951497,31.120109715757405,-192.87154970487754,-26.056559886697446,no_tremor
25,1070517,0.143,-0.3417889391253115,-0.22849455582611933,-1.0467773639105085,32.06483953062321,-207.68966105574623,-26.271610979388562,no_tremor
26,1070522,0.148,-0.33925532795505203,-0.23122016150676644,-1.0311820676213095,32.940186161567546,-222.50512319666979,-26.434482617005852,no_tremor
27,1070527,0.153,-0.337062640000911,-0.2341412402896599,-1.0136867578897133,33.7440199759693,-237.24957097100432,-26.546335102538006,no_tremor
28,1070532,0.158,-0.3352406712682308,-0.23725274579327685,-0.9942862976665995,34.474777867055785,-251.8535000091371,-26.608514375617045,no_tremor
29,1070537,0.163,-0.33381790559539687,-0.2405476897288246,-0.9729847206655139,35.131478901617875,-266.2467426801277,-26.62254108611642,no_tremor
30,1070542,0.168,-0.3328212488939169,-0.24401716919342978,-0.9497953683390765,35.713732756095084,-280.35895541702365,-26.590099400568256,no_tremor
31,1070547,0.173,-0.3322757705935979,-0.24765042388824343,-0.9247409575861406,36.22174080975312,-294.1201133984878,-26.513025569605546,no_tremor
32,1070552,0.178,-0.33220445509296803,-0.25143492275365514,-0.8978535769429559,36.65628989373048,-307.46100868014526,-26.39329627173453,no_tremor
33,1070556,0.182,-0.33262796552124196,-0.25535647877091505,-0.8691746099631021,37.01873881993652,-320.3137479922102,-26.23301674397245,no_tremor
34,1070561,0.187,-0.33356442161506494,-0.2593993899571079,-0.8387545853946416,37.310997930141305,-332.612246532925,-26.034408709375242,no_tremor
35,1070566,0.192,-0.33502919303988016,-0.2635466039075529,-0.8066529546272885,37.53550201103078,-344.29271417010534,-25.799798112488435,no_tremor
36,1070571,0.197,-0.3370347090854354,-0.2677799026473937,-0.7729377977074868,37.695177015653705,-355.29413050253544,-25.531602675072318,no_tremor
37,1070576,0.202,-0.3395902853784567,-0.2720801040716838,-0.7376854600047512,37.793401117071284,-365.5587052238003,-25.232319285963154,no_tremor
38,1070581,0.207,-0.34270196811331666,-0.2764272759030714,-0.7009801223608507,37.833960697453904,-375.0323201760237,-24.904511240908572,no_tremor
39,1070586,0.212,-0.3463723963199471,-0.28080095789152626,-0.6629133082685911,37.8210019449372,-383.66494939170315,-24.550795350721298,no_tremor
40,1070591,0.217,-0.3506006828702253,-0.2851803879268919,-0.623583332312315,37.758978788942244,-391.41105331897035,-24.173828939094985,no_tremor
41,1070596,0.222,-0.35538231526115877,-0.289544727831928,-0.5830946947582946,37.652597949662045,-398.2299433345337,-23.776296755483873,no_tremor
42,1070623,0.249,-0.36070907768542765,-0.29387328484553366,-0.5415574278080242,37.50676190698107,-404.0861125958784,-23.36089783501191,no_tremor
43,1070628,0.254,-0.3665689964688422,-0.2981457251815194,-0.49908639961560514,37.32651060533367,-408.94952930232046,-22.930332348108582,no_tremor
44,1070633,0.259,-0.372946311549112,-0.3023422765364279,-0.455800582703234,37.11696269794862,-412.79588856866536,-22.48728849818178,no_tremor
45,1070638,0.264,-0.3798214771844485,-0.30644391698704965,-0.41182229384720964,36.883257090208055,-415.6068194091923,-22.034429545060153,no_tremor
46,1070643,0.269,-0.38717119540045447,-0.3104325483228635,-0.3672764128101149,36.630495468530725,-417.37004378612124,-21.57438105238361,no_tremor
47,1070648,0.274,-0.3949684857319275,-0.3142911524603569,-0.3222895874521458,36.36368641063509,-418.07948524316447,-21.1097184749635,no_tremor
48,1070653,0.279,-0.40318279456696693,-0.31800393015304584,-0.2769894327907515,36.08769158353318,-417.7353252525,-20.64295521401485,no_tremor
49,1070657,0.283,-0.4117801468637973,-0.32155642171928167,-0.23150373152879844,35.80717446346603,-416.34400601154124,-20.17653127188913,no_tremor
50,1070662,0.288,-0.4207233422107503,-0.32493560994038206,-0.18595964346156255,35.52655196797821,-413.91817902507546,-19.712802632498505,no_tremor
51,1070667,0.293,-0.4299721961694785,-0.32813000561936384,-0.14048293100972487,35.249949378462645,-410.4765994030958,-19.254031478006496,no_tremor
52,1070672,0.298,-0.4394838266214516,-0.3311297165297409,-0.09519720790820808,34.981158946931636,-406.04396640152027,-18.802377324271053,no_tremor
53,1070677,0.303,-0.44921298347767524,-0.3339265006296854,-0.050223217807574425,34.723602608572214,-400.6507113384934,-18.359889113905773,no_tremor
54,1070682,0.308,-0.4591124186688967,-0.33651380448002044,-0.00567814921507865,34.480299240478665,-394.3327346395418,-17.928498245912277,no_tremor
55,1070687,0.313,-0.4691332918721529,-0.33888678779500353,0.038325007187814765,34.25383689717129,-387.1310944065114,-17.510012450097246,no_tremor
56,1070692,0.318,-0.4792256060185871,-0.34104233498170505,0.0816780532774089,34.04635040502969,-379.0916495708949,-17.10611034562566,no_tremor
57,1070697,0.323,-0.4893386653430634,-0.342979054397831,0.12427812525140709,33.85950461359126,-370.2646613736494,-16.71833647216941,no_tremor
58,1070702,0.328,-0.49942154766448943,-0.34469726589297445,0.16602817808193546,33.69448349576388,-360.7043575808693,-16.348096563071742,no_tremor
59,1070707,0.333,-0.5094235818217998,-0.34619897701050595,0.2068374091301546,33.55198517944082,-350.46846444702754,-15.996652851188681,no_tremor
60,1070712,0.338,-0.5192948208247583,-0.34748784803264904,0.24662161834855892,33.43222289456508,-339.6177119250852,-15.665119260961832,no_tremor
61,1070717,0.343,-0.5289865013789601,-0.34856914586356663,0.2853035035681352,33.33493174117644,-328.21531797084594,-15.354456437047638,no_tremor
62,1070744,0.37,-0.5384514810443113,-0.34944968657552394,0.32281289051474155,33.25938112918495,-316.32645800130734,-15.06546667289846,no_tremor
63,1070749,0.375,-0.5476446453747852,-0.35013776630272186,0.3590868983638925,33.20439270664418,-304.01772566336535,-14.79878890689733,no_tremor
64,1070754,0.38,-0.5565232788855754,-0.3506430800742747,0.39407004274545626,33.16836356653537,-291.3565910760097,-14.554894020177695,no_tremor
65,1070759,0.385,-0.565047395436258,-0.35097662815906955,0.4277142790539122,33.14929448250887,-278.4108626499646,-14.33408067671045,no_tremor
66,1070764,0.39,-0.5731800253775692,-0.3511506095768593,0.45997898962511524,33.14482286032684,-265.2481584729154,-14.136471893523025,no_tremor
67,1070769,0.395,-0.5808874583653627,-0.351178302621303,0.4908309187767295,33.15226000987569,-251.9353930640368,-13.962012446638315,no_tremor
68,1070774,0.4,-0.5881394419523829,-0.3510739325291054,0.5202440599032802,33.16863225607817,-238.53828502351493,-13.81046714656751,no_tremor
69,1070779,0.405,-0.5949093368762819,-0.3508525267875843,0.5481994988282196,33.19072532281064,-225.12089070841603,-13.681419983760955,no_tremor
70,1070784,0.41,-0.6011742303995661,-0.3505297589690127,0.5746852175124219,33.2151313414422,-211.7451685459123,-13.574274157267416,no_tremor
71,1070788,0.414,-0.6069150092030328,-0.35012178238363106,0.5996958620644544,33.23829775623863,-198.4705779572521,-13.488253049802532,no_tremor
72,1070793,0.419,-0.612116393293692,-0.34964505522823286,0.6232324788477485,33.25657733294711,-185.35371614017342,-13.422402278269326,no_tremor
73,1070798,0.424,-0.6167669322742405,-0.349116159252572,0.6453022223762305,33.26627844041399,-172.4479951880898,-13.375593006198068,no_tremor
74,1070803,0.429,-0.6208589652393783,-0.3485516142553743,0.6659180386573983,33.263714779233055,-159.80336125770512,-13.34652673673073,no_tremor
75,1070808,0.434,-0.6243885455952701,-0.3479676909445911,0.6850983276806979,33.245253774898856,-147.46605676977643,-13.333741806849895,no_tremor
76,1070813,0.439,-0.6273553322844948,-0.34738022484743586,0.7028665888377142,33.207362924304036,-135.47842596518205,-13.335621779263043,no_tremor
77,1070818,0.444,-0.6297624492415778,-0.346804434033858,0.719251053162992,33.14665347055512,-123.87876355343367,-13.350405883727337,no_tremor
78,1070823,0.449,-0.6316163153732678,-0.34625474342399687,0.7342843063575186,33.05992087360296,-112.70120568595992,-13.376201599677213,no_tremor
79,1070828,0.454,-0.6329264479015723,-0.34574461838792786,0.7480029065570194,32.9441816398839,-101.9756620565281,-13.410999401345167,no_tremor
80,1070833,0.459,-0.6337052424625511,-0.34528641021642387,0.7604470006937609,32.796706172074586,-91.72778756679665,-13.45268961068607,no_tremor
81,1070838,0.464,-0.6339677338530654,-0.3448912158459878,0.771659943042727,32.6150473991115,-81.9789916862568,-13.499081228755736,no_tremor
82,1070864,0.49,-0.6337313417020347,-0.3445687539626994,0.7816879191264468,32.397065045014386,-72.74648337377546,-13.547922548275135,no_tremor
83,1070869,0.495,-0.6330156055703976,-0.34432725929387803,0.7905795775878545,32.14094548958388,-64.04334920608927,-13.596923292095653,no_tremor
84,1070874,0.5,-0.6318419140327285,-0.3441733965373586,0.7983856719733217,31.845217258776493,-55.87866217401856,-13.643777975347417,no_tremor
85,1070878,0.504,-0.6302332321598675,-0.3441121949961132,0.8051587136803858,31.50876224981851,-48.25761846022183,-13.686190153335945,no_tremor
86,1070883,0.509,-0.628213831522681,-0.34414700460538417,0.8109526367090859,31.130822841562086,-41.18169940467809,-13.721897191796936,no_tremor
87,1070888,0.514,-0.6258090264084764,-0.3442794736808055,0.8158224743773956,30.711005066918034,-34.64885579617887,-13.748695178977643,no_tremor
88,1070893,0.519,-0.6230449194299521,-0.34450954839054654,0.8198240478429618,30.249278038494587,-28.6537115972617,-13.764463588682336,no_tremor
89,1070898,0.524,-0.6199481591549508,-0.3448354936653035,0.8230136661087717,29.745969827004735,-23.18778421069923,-13.767189299996472,no_tremor
90,1070903,0.529,-0.6165457118267991,-0.34525393500480395,0.825447837160894,29.201759997829456,-18.239718421535496,-13.754989583845305,no_tremor
91,1070908,0.534,-0.6128646487037114,-0.34575992041350717,0.8271829899685714,28.617669015794014,-13.795531194684951,-13.726133679207555,no_tremor
92,1070913,0.539,-0.6089319500399418,-0.34634700149511555,0.8282752072434172,27.9950447329389,-9.83886457137553,-13.67906260220438,no_tremor
93,1070918,0.544,-0.604774326276228,-0.3470073325484793,0.8287799690749744,27.335546180411534,-6.3512439869969946,-13.612406858893445,no_tremor
94,1070923,0.549,-0.6004180566153269,-0.3477317863298651,0.8287519078031055,26.641124894813544,-3.312339427567528,-13.525001767199688,no_tremor
95,1070927,0.553,-0.5958888448393103,-0.34851008497297614,0.8282445747241226,25.914004021275055,-0.7002269512290376,-13.415900134536955,no_tremor
96,1070932,0.558,-0.5912116919827283,-0.3493309443853568,0.8273102194322011,25.156655448744324,1.5083517758202354,-13.28438208428816,no_tremor
97,1070937,0.563,-0.5864107853077941,-0.35018223026746764,0.8259995827511831,24.371775245848312,3.337734142517473,-13.12996187524651,no_tremor
98,1070947,0.573,-0.5815094029271625,-0.3510511237312082,0.824361704301398,23.56225767709039,4.813087516381328,-12.95239161228326,no_tremor
99,1070952,0.578,-0.5765298333747432,-0.3519242943335352,0.8224437457645428,22.73116808827121,5.960168319107175,-12.751661802699415,no_tremor
100,1070957,0.583,-0.5714933094184029,-0.35278807819729213,0.8202908308552729,21.881714955938858,6.805090959998737,-12.527998769776014,no_tremor
101,1070961,0.587,-0.5664199554194209,-0.3536286587779245,0.817945902884578,21.017221397480924,7.374108131081114,-12.281858992112834,no_tremor
102,1070988,0.614,-0.5613287475513152,-0.35443224776418536,0.8154496006177309,20.1410964354322,7.693403752645111,-12.013920493724068,no_tremor
103,1070993,0.619,-0.5562374861794249,-0.35518526358312164,0.8128401529077239,19.256806301041646,7.7888996331603,-11.725071464375961,no_tremor
104,1070998,0.624,-0.5511627796640008,-0.35587450502154416,0.8101532923514754,18.367846047257196,7.686076678934605,-11.41639634010786,no_tremor
105,1071003,0.629,-0.5461200387825743,-0.3564873175825126,0.8074221880023766,17.47771171940023,7.409811265381942,-11.089159617401602,no_tremor
106,1071008,0.634,-0.5411234808795655,-0.3570117503651974,0.8046773970042229,16.58987330403615,6.984227172080482,-10.744787709293645,no_tremor
107,1071013,0.639,-0.536186142758554,-0.3574367014793929,0.8019468348974098,15.707748646511723,6.4325632931188705,-10.384849178452416,no_tremor
108,1071022,0.648,-0.5313199012556773,-0.35775205026384443,0.7992557642811671,14.834678499801983,5.7770571637959724,-10.011033702591195,no_tremor
109,1071027,0.653,-0.5265355003894948,-0.3579487748510086,0.7966268014782943,13.973902844820765,5.038844194243967,-9.625130142408077,no_tremor
110,1071032,0.658,-0.521842583985456,-0.35801905389359706,0.7940799408198049,13.128538606154004,4.237872369432258,-9.229004091088452,no_tremor
111,1071037,0.663,-0.5172497327265734,-0.3579563515282274,0.7916325961231363,12.301558876455895,3.392832062345493,-8.824575286091944,no_tremor
112,1071047,0.673,-0.5127645046831315,-0.35775548489145775,0.7892996588593544,11.495773755875367,2.521100511163094,-8.413795257072886,no_tremor
113,1071051,0.677,-0.5083934785130131,-0.35741267372187624,0.7870935723807619,10.713812908302778,1.6387004291631695,-7.998625567374378,no_tremor
114,1071061,0.687,-0.5041422986839377,-0.3569255717828609,0.7850244214094027,9.958109932445605,0.7602721443633997,-7.5810169806588465,no_tremor
115,1071066,0.692,-0.5000157222288121,-0.3562932800322569,0.7831000357765239,9.230888640596156,-0.10094139807328956,-7.162889849883398,no_tremor
116,1071071,0.697,-0.4960176666838649,-0.3555163416573859,0.7813261071679516,8.534151328553747,-0.9330974945357158,-6.746115984271051,no_tremor
117,1071076,0.702,-0.4921512589582411,-0.3545967192957959,0.7797063173924773,7.8696691041324645,-1.7257451751917536,-6.332502202527152,no_tremor
118,1071081,0.707,-0.4884188849327707,-0.35353775498089846,0.7782424764758737,7.238974318748719,-2.4698061407090806,-5.923775729196147,no_tremor
119,1071086,0.712,-0.4848222395836007,-0.3523441135904322,0.7769346687163662,6.643355118864879,-3.1575459823648617,-5.521571538340653,no_tremor
120,1071110,0.736,-0.4813623773807672,-0.3510217108337454,0.7757814047357378,6.083852104769943,-3.7825365426717976,-5.12742169719681,no_tremor
121,1071115,0.741,-0.47803976263678327,-0.3495776270846506,0.7747797775324493,5.561257056252061,-4.339610283717473,-4.742746713811438,no_tremor
122,1071120,0.746,-0.47485431939550127,-0.34802000863434185,0.7739256205886872,5.076113660611628,-4.824807533741822,-4.368848848035159,no_tremor
123,1071125,0.751,-0.4718054803794813,-0.3463579581780939,0.7732136661917451,4.6287201600174885,-5.235317480302418,-4.006907306095652,no_tremor
124,1071130,0.756,-0.46889223447454637,-0.3446014165332739,0.77263770228258,4.219133822844973,-5.5694137716292245,-3.657975207073944,no_tremor
125,1071135,0.761,-0.46611317223337356,-0.3427610376981548,0.7721907263178224,3.847177135987835,-5.826385576593231,-3.322978186046473,no_tremor
126,1071140,0.766,-0.4634665289254388,-0.34084805939916135,0.7718650948053466,3.5124456100594106,-6.0064649374053865,-3.002714483218,no_tremor
127,1071145,0.771,-0.46095022474136965,-0.3388741712455636,0.7716526673332789,3.214317085294722,-6.110751226954544,-2.6978563597153986,no_tremor
128,1071149,0.775,-0.4585619018662261,-0.336851382525088,0.7715449440506019,2.9519624221473024,-6.141133494757741,-2.408952676974128,no_tremor
129,1071154,0.78,-0.4562989582579767,-0.33479189154171357,0.7715331956728224,2.7243574569169717,-6.10021145336404,-2.1364324761437454,no_tremor
130,1071159,0.785,-0.45415857809347937,-0.3327079582287961,0.7716085851817089,2.530296099403875,-5.9912158231001476,-1.8806093956603156,no_tremor
131,1071164,0.79,-0.4521377589640273,-0.33061178157777893,0.7717622804702251,2.368404446722888,-5.81792871919936,-1.6416867686943208,no_tremor
132,1071169,0.795,-0.4502333360071023,-0.3285153832159704,0.7719855572604124,2.237155784880791,-5.584604731749959,-1.4197632474398607,no_tremor
133,1071174,0.8,-0.4484420032441172,-0.32643049825572795,0.772269891701115,2.1348863472533233,-5.295893313687704,-1.2148388082508215,no_tremor
134,1071179,0.805,-0.4467603324520667,-0.3243684743294427,0.7726070421411737,2.059811696945458,-4.956763052745859,-1.0268210010463055,no_tremor
135,1071184,0.81,-0.44518478992917615,-0.3223401795254608,0.7729891196778417,2.0100435989431875,-4.57242835826893,-0.8555313189993434,no_tremor
136,1071189,0.815,-0.4437117515223454,-0.32035591975315814,0.7734086472037893,1.9836072484237837,-4.148279042824717,-0.7007115804380393,no_tremor
137,1071193,0.819,-0.44233751627124007,-0.318425365893046,0.7738586068210064,1.9784587230862454,-3.6898132223578077,-0.5620302333550697,no_tremor
138,1071198,0.824,-0.4410583189959961,-0.31655749093118635,0.7743324756552816,1.9925025288247307,-3.202573898806258,-0.4390885127911318,no_tremor
139,1071203,0.829,-0.43987034211947257,-0.31476051713678643,0.7748242502872312,2.023609108798273,-2.6920895280599195,-0.331426401663208,no_tremor
140,1071208,0.834,-0.43876972697751265,-0.3130418732175705,0.775328460209652,2.069632186003838,-2.1638188168613075,-0.23852836581367948,no_tremor
141,1071233,0.859,-0.43775258483721124,-0.31140816127901094,0.7758401709194968,2.128425809148351,-1.6230999377639341,-0.1598288538985936,no_tremor
142,1071238,0.864,-0.43681500781688176,-0.30986513331994214,0.776354977447112,2.197860971126096,-1.0751043038080477,-0.09471757139103332,no_tremor
143,1071243,0.869,-0.43595307988207965,-0.3084176769170884,0.776868989302928,2.2758416691676775,-0.5247950048269349,-0.04254455330180078,no_tremor
144,1071248,0.874,-0.4351628880757725,-0.3070698096827101,0.777378807966768,2.3603202766550253,0.02311002586216513,-0.002625069555369135,no_tremor
145,1071252,0.878,-0.43444053412155387,-0.30582468202099156,0.7778814981438479,2.449312099540103,0.5641700747713382,0.02575560076440373,no_tremor
146,1071257,0.883,-0.4337821465113238,-0.30468458765865053,0.7783745540596017,2.540908995479501,1.09424893037512,0.04333749349135702,no_tremor
147,1071262,0.888,-0.43318389315019656,-0.30365098138299657,0.778855862067115,2.6332919410412807,1.609537403611878,0.050881355728687364,no_tremor
148,1071267,0.893,-0.4326419945811761,-0.30272450338620804,0.7793236608050931,2.724742441597262,2.1065711410990966,0.04916409692392686,no_tremor
149,1071272,0.898,-0.43215273775220653,-0.3019050095879254,0.7797765000798289,2.8136526898294636,2.5822438244477324,0.0389742864893536,no_tremor
150,1071277,0.903,-0.43171249022241387,-0.3011916072892548,0.7802131995590149,2.8985343920752986,3.0338158915126265,0.021107699252591577,no_tremor
151,1071282,0.908,-0.4313177146381594,-0.30058269549970684,0.7806328082642895,2.9780261968420336,3.4589189600380834,-0.003637081220507399,no_tremor
152,1071286,0.912,-0.4309649832490715,-0.30007600927411054,0.7810345657375428,3.05089967672226,3.8555561789909167,-0.034462983838275896,no_tremor
153,1071291,0.917,-0.4306509921853909,-0.2996686673987859,0.7814178656364358,3.116063833851759,4.222098774768362,-0.07057867204379542,no_tremor
154,1071296,0.922,-0.4303725751855684,-0.29935722277486493,0.7817822223895674,3.172568120050266,4.557279094847204,-0.1112026387322939,no_tremor
155,1071301,0.927,-0.4301267164503017,-0.2991377148613258,0.7821272414128135,3.219603985323936,4.860180477861887,-0.1555671439428219,no_tremor
156,1071306,0.932,-0.429910562307307,-0.29900572356073674,0.7824525932567957,3.2565049912356043,5.130224296003924,-0.2029219653916909,no_tremor
157,1071311,0.937,-0.4297214313991086,-0.2989564239565456,0.7827579919224696,3.282745547158337,5.367154523812285,-0.25253793373166017,no_tremor
158,1071316,0.942,-0.429556823150882,-0.2989846413416196,0.7830431774491172,3.297938346041194,5.571020187861149,-0.3037102272811838,no_tremor
159,1071321,0.947,-0.4294144243323404,-0.2990849060132898,0.7833079027489686,3.3018305909762846,5.742156044787142,-0.355761404821166,no_tremor
160,1071326,0.952,-0.4292921135917406,-0.29925150735021255,0.7835519245384915,3.2942991145480613,5.881161820169614,-0.4080441601846177,no_tremor
161,1071330,0.956,-0.4291879639064585,-0.29947854673099733,0.783774998102223,3.2753445006063675,5.988880318256108,-0.4599437884977544,no_tremor
162,1071355,0.981,-0.42910024295887167,-0.29975998890400163,0.7839768755259403,3.2450843237620735,6.066374684367385,-0.5108803598627559,no_tremor
163,1071359,0.985,-0.42902741150429385,-0.3000897114720399,0.784157306957827,3.20374562588543,6.114905071849582,-0.5603106006521886,no_tremor
164,1071364,0.99,-0.4289681198451064,-0.30046155221416054,0.7843160444047939,3.1516567509449,6.135904939127147,-0.6077294850997279,no_tremor
165,1071369,0.995,-0.42892120255828997,-0.3008693540267916,0.7844528475499889,3.089238659622832,6.130957185523411,-0.652671541323431,no_tremor
166,1071374,1.0,-0.42888567164117736,-0.3013070073248401,0.784567491085932,3.0169958438226594,6.101770330028987,-0.6947118771340296,no_tremor
167,1071379,1.005,-0.42886070824532985,-0.3017684897960047,0.7846597730893419,2.9355069591321086,6.050154942925186,-0.7334669321841017,no_tremor
168,1071384,1.01,-0.42884565316692413,-0.3022479034457702,0.7847295240089227,2.8454152909140635,5.978000550034737,-0.7685949642704819,no_tremor
169,1071389,1.015,-0.4288399962602211,-0.3027395089049064,0.7847766158867311,2.7474191669731294,5.887253236766117,-0.799796279014647,no_tremor
170,1071394,1.02,-0.4288433649430394,-0.30323775699583894,0.7848009714805733,2.6422624263535326,5.779894179100746,-0.826813213325257,no_tremor
171,1071399,1.025,-0.42885551197140964,-0.30373731757020606,0.7848025729955944,2.5307250491258526,5.6579193183242955,-0.8494298832409554,no_tremor
172,1071404,1.03,-0.4288763026739042,-0.30423310563910655,0.7847814701667274,2.4136140452849375,5.523320374279663,-0.8674717059556212,no_tremor
173,1071409,1.035,-0.428905701851785,-0.30472030482201856,0.7847377874606546,2.291754691471905,5.378067358288035,-0.8808047051516095,no_tremor
174,1071413,1.039,-0.42894376056526184,-0.3051943881420971,0.7846717301884724,2.1659821918541438,5.224092703654942,-0.8893346092242594,no_tremor
175,1071418,1.044,-0.42899060303456676,-0.30565113619632767,0.7845835893413601,2.037133824710215,5.063277083137632,-0.8930057533572735,no_tremor
176,1071423,1.049,-0.4290464138833225,-0.306086652730361,0.7844737449847357,1.9060416205909818,4.897436934459841,-0.8917997976891338,no_tremor
177,1071428,1.054,-0.42911142593811086,-0.30649737765087404,0.7843426680748257,1.7735256029261854,4.728313671820779,-0.8857342743352751,no_tremor
178,1071433,1.059,-0.4291859087714292,-0.30688009751349815,0.7841909205975957,1.6403876083575764,4.557564526352395,-0.8748609758910575,no_tremor
179,1071438,1.064,-0.42927015813664005,-0.30723195353160027,0.7840191539745878,1.5074056921880814,4.386754932838994,-0.859264197762649,no_tremor
180,1071443,1.069,-0.4293644863959888,-0.30755044715987256,0.7838281057329721,1.375329114706623,4.217352363688613,-0.8390588468902029,no_tremor
181,1071448,1.074,-0.42946921399029736,-0.30783344331580226,0.7836185944960652,1.2448738973700977,4.05072150314684,-0.8143884306195434,no_tremor
182,1071453,1.079,-0.4295846619462179,-0.3080791713103896,0.7833915134123619,1.116718933728594,3.8881206536168955,-0.7854229416832048,no_tremor
183,1071477,1.103,-0.4297111453689782,-0.3082862235655908,0.7831478222014747,0.9915026376593792,3.730699270334413,-0.7523566579373347,no_tremor
184,1071482,1.108,-0.42984896783024495,-0.308453552198584,0.7828885380494028,0.8698201100525534,3.579496529064851,-0.715405877725039,no_tremor
185,1071487,1.113,-0.42999841653591325,-0.3085804635511257,0.7826147256276993,0.7522208041583178,3.435440841877686,-0.6748066125871803,no_tremor
186,1071492,1.118,-0.43015975814894036,-0.3086666107356132,0.7823274865355959,0.639206669230292,3.299350246237873,-0.6308122581419783,no_tremor
187,1071497,1.123,-0.4303332351465113,-0.3087119842584623,0.7820279484673422,0.5312307518054716,3.1719336013376958,-0.5836912616444023,no_tremor
188,1071502,1.128,-0.43051906260513545,-0.3087169007674518,0.7817172543895498,0.42869623395417733,3.0537925323392625,-0.5337248018322434,no_tremor
189,1071507,1.133,-0.4307174253271333,-0.3086819899547682,0.7813965519799047,0.3319558881161281,2.945424067648539,-0.4812044939597022,no_tremor
190,1071511,1.137,-0.43092847524345634,-0.3086081796340313,0.7810669835353978,0.24131192847442806,2.8472239158788146,-0.4264301306469459,no_tremor
191,1071516,1.142,-0.43115232904828366,-0.30849667900137706,0.7807296765110145,0.15701623879466584,2.75949032734515,-0.36970746700015783,no_tremor
192,1071521,1.147,-0.4313890660387998,-0.30834896009420254,0.7803857348035164,0.07927095600986094,2.6824284799395217,-0.31134605610649263,no_tremor
193,1071526,1.152,-0.43163872614801563,-0.3081667374831264,0.7800362308536347,0.008229387489493633,2.6161553219721796,-0.2516571386814177,no_tremor
194,1071536,1.162,-0.4319013081686785,-0.30795194627358774,0.7796821986068341,-0.05600276217569242,2.560704796536005,-0.19095158873578316,no_tremor
195,1071541,1.167,-0.43217676817156786,-0.3077067185454904,0.7793246273498099,-0.11336588189755817,2.516033364864945,-0.12953791591516667,no_tremor
196,1071546,1.172,-0.43246501812137017,-0.3074333584125116,0.7789644564278896,-0.16384469262442897,2.482025741506165,-0.06772032487193562,no_tremor
197,1071551,1.177,-0.4327659246879434,-0.30713431593163787,0.7786025708473286,-0.2074662670674343,2.4585007531543197,-0.00579683285668301,no_tremor
198,1071565,1.191,-0.4330793082409339,-0.306812160136824,0.7782397977748658,-0.2442978663340925,2.4452172365740568,0.05594255137311323,no_tremor
199,1071570,1.196,-0.4334049420031606,-0.30646955150777194,0.7778769039620586,-0.2744446304567882,2.441879899030749,0.11721758157996501,no_tremor
200,1071575,1.201,-0.43374255132571604,-0.30610921421399007,0.7775145941392437,-0.2980471595376052,2.448145075680557,0.17775945233237778,no_tremor
201,1071600,1.226,-0.4340918130387591,-0.30573390849284926,0.777153510437262,-0.3152790195667966,2.4636263305748596,0.23731238992275497,no_tremor
202,1071605,1.231,-0.43445235482946293,-0.30534640352580966,0.7767942328981791,-0.3263442015838196,2.487899859956934,0.29563514133580815,no_tremor
203,1071610,1.236,-0.4348237546040274,-0.3049494511680697,0.7764372811248332,-0.331474555885105,2.5205096677831316,0.35250234394541397,no_tremor
204,1071615,1.241,-0.43520553980391263,-0.3045457608638316,0.7760831170917564,-0.33092721644770623,2.5609724935462053,0.40770575689629895,no_tremor
205,1071620,1.246,-0.4355971866661699,-0.30413797604393306,0.7757321490987025,-0.3249820260190157,2.6087824810187272,0.46105533538575183,no_tremor
206,1071625,1.251,-0.435998119441895,-0.3037286522580013,0.7753847367975195,-0.3139389695898331,2.66341558316398,0.5123801314652563,no_tremor
207,1071629,1.255,-0.43640770961303643,-0.3033202372436764,0.7750411971699426,-0.298115622645929,2.724333703492869,0.561529008702182,no_tremor
208,1071634,1.26,-0.4368252751736824,-0.3029150530849049,0.7747018112843523,-0.2778446199046298,2.7909885782649817,0.608371162164672,no_tremor
209,1071639,1.265,-0.4372500800653532,-0.3025152805630524,0.7743668316182344,-0.2534711494417513,2.8628254077013384,0.652796439492692,no_tremor
210,1071644,1.27,-0.437681333874836,-0.30212294576080945,0.7740364897026871,-0.22535047575637446,2.9392862479973636,0.6947154633658648,no_tremor
211,1071649,1.275,-0.4381181919161242,-0.30173990894081465,0.7737110038269561,-0.1938454935414636,3.019813179149962,0.7340595601009032,no_tremor
212,1071654,1.28,-0.4385597558238769,-0.3013678556891506,0.7733905865347143,-0.15932431230232494,3.103851265737562,0.7707805028052283,no_tremor
213,1071659,1.285,-0.43900507478369594,-0.3010082902884345,0.7730754516490644,-0.12215787105846207,3.190851327853035,0.8048500804891671,no_tremor
214,1071664,1.29,-0.4394531475140819,-0.30066253126576914,0.7727658205790546,-0.08271758248298837,3.2802725366534475,0.8362595074776019,no_tremor
215,1071669,1.295,-0.439902925096336,-0.3003317090466098,0.7724619276856458,-0.04137300709604335,3.3715848437218856,0.8650186907807832,no_tremor
216,1071673,1.299,-0.44035331472278233,-0.30001676563550805,0.7721640245181853,0.0015104394208673786,3.4642712472994655,0.8911553762716707,no_tremor
217,1071678,1.304,-0.4408031844020919,-0.29971845623723314,0.7718723827719584,0.04557373925437578,3.5578298937056796,0.9147141964671242,no_tremor
218,1071683,1.309,-0.4412513686255672,-0.29943735272522476,0.771587295861651,0.09046647547810768,3.6517760104002073,0.935755642469763,no_tremor
219,1071688,1.314,-0.44169667496293297,-0.2991738488569288,0.7713090790528093,0.1358489715639141,3.74564366830782,0.9543549798268198,no_tremor
220,1071693,1.319,-0.44213789152372346,-0.29892816712567544,0.7710380681418892,0.18139435216953362,3.838987374496609,0.9706011229474892,no_tremor
221,1071698,1.324,-0.44257379519392237,-0.29870036712504966,0.7707746167234317,0.2267905097690801,3.931383500969723,0.9845954760459955,no_tremor
222,1071723,1.349,-0.44300316053978855,-0.298490355283331,0.7705190921283341,0.2717419625774481,4.022431560048284,0.9964507414630057,no_tremor
223,1071728,1.354,-0.4434247692635155,-0.2982978958026016,0.770271870158074,0.31597159052904517,4.1117553406150265,1.0062896898413936,no_tremor
224,1071733,1.359,-0.443837420098569,-0.2981226226112874,0.770033328774113,0.35922223685388033,4.199003921874442,1.0142438818829607,no_tremor
225,1071737,1.363,-0.4442399390438002,-0.29796405211401844,0.7698038409282623,0.40125816213646437,4.283852582448342,1.0204523288580456,no_tremor
226,1071742,1.368,-0.444631189850039,-0.297821596503688,0.769583766738497,0.4418663354181173,4.366003622930129,1.0250600791244666,no_tremor
227,1071747,1.373,-0.44501008468528536,-0.29769457739157185,0.7693734452271223,0.48085754367195294,4.445187119304734,1.0282167209557802,no_tremor
228,1071752,1.378,-0.44537559491017353,-0.2975822395143661,0.7691731858466357,0.518067298339115,4.521161622273502,1.0300747979335338,no_tremor
229,1071757,1.383,-0.445726761891171,-0.29748376429216705,0.7689832600251502,0.5533565172712422,4.593714812978022,1.0307881414834572,no_tremor
230,1071767,1.393,-0.4460627077637399,-0.2973982830376698,0.7688038929687712,0.5866119631795335,4.662664118756326,1.0305101349622794,no_tremor
231,1071772,1.398,-0.44638264603174,-0.29732488965223136,0.7686352559625843,0.6177464243285697,4.727857283814809,1.0293919339872577,no_tremor
232,1071777,1.403,-0.44668589185465524,-0.2972626526859539,0.7684774594132825,0.6466986274309918,4.789172880233575,1.027580677234077,no_tremor
233,1071782,1.408,-0.4469718718344512,-0.2972106266825779,0.7683305468723414,0.6734328754591494,4.8465207360309615,1.025217729563735,no_tremor
234,1071787,1.413,-0.44724013307383204,-0.2971678627713238,0.7681944902663276,0.6979384051739329,4.899842249968839,1.0224370043106246,no_tremor
235,1071791,1.417,-0.4474903512423137,-0.2971334185030223,0.7680691865387873,0.7202284617282606,4.949110557387262,1.0193634133565892,no_tremor
236,1071796,1.422,-0.4477223373601838,-0.29710636695419795,0.7679544558760931,0.7403390910867976,4.994330507531147,1.016111491899218,no_tremor
237,1071801,1.427,-0.4479360429964794,-0.29708580513863825,0.7678500416486606,0.7583276547304943,5.035538410990731,1.0127842399850255,no_tremor
238,1071806,1.432,-0.448131563578142,-0.2970708617707499,0.7677556121506887,0.774271074720836,5.0728015164265665,1.0094722160798613,no_tremor
239,1071811,1.437,-0.4483091395253134,-0.2970607044188286,0.7676707641678678,0.7882638212702293,5.10621717839777,1.0062529100923605,no_tremor
240,1071816,1.442,-0.4484691549633495,-0.29705454607011317,0.7675950283451688,0.8004156608664268,5.135911682088637,1.003190414363449,no_tremor
241,1071821,1.447,-0.4486121338155353,-0.29705165110466686,0.7675278762674577,0.8108491913516109,5.162038695290144,1.000335401064489,no_tremor
242,1071851,1.477,-0.4487387331502662,-0.2970513406437979,0.7674687291054084,0.8196972003233699,5.184777322504259,0.9977254038017646,no_tremor
243,1071861,1.487,-0.4488497337395955,-0.2970529972036943,0.767416967618918,0.827099893415379,5.204329740216109,0.995385390956849,no_tremor
244,1071865,1.491,-0.4489460278778411,-0.2970560685501484,0.7673719432513693,0.8332020483786202,5.220918396931178,0.9933286089394074,no_tremor
245,1071870,1.496,-0.44902860460340294,-0.29706007062097756,0.7673329899935679,0.8381501584397643,5.2347827682506045,0.9915576653212018,no_tremor
