sample,t_ms,t_s,ax,ay,az,gx,gy,gz,tremor
0,1110541,0.0,-0.4473629737677099,-0.24374958545620634,-1.0300140171283503,-2.59858707457636,-19.720695757313866,-8.29962917401427,no_tremor
1,1110546,0.005,-0.4476422460020771,-0.2425073764489615,-1.031147579023552,-2.099197297366025,-38.247198688340646,-9.724915265253413,no_tremor
2,1110551,0.01,-0.44802170775166794,-0.2408545002670967,-1.0323269952451106,-1.636703603243757,-57.00561177194121,-11.138962494163081,no_tremor
3,1110556,0.015,-0.44850773472973476,-0.2387952719448048,-1.0333078144666277,-1.2129511152363521,-75.94284089218286,-12.536122563473642,no_tremor
4,1110561,0.02,-0.44908910816161823,-0.23641983192403185,-1.0337587470762564,-0.8293955167535052,-95.00307175562136,-13.910803866702437,no_tremor
5,1110587,0.046,-0.44974696724275115,-0.23385530701650237,-1.0333488570853606,-0.4870733276660686,-114.12795201933623,-15.257514359231367,no_tremor
6,1110592,0.051,-0.45046321118860244,-0.23122614433006028,-1.031795982037516,-0.186576012332995,-133.25680480047407,-16.570903819208823,no_tremor
7,1110597,0.056,-0.4512245525024135,-0.2286356277691233,-1.0288779215554986,0.07197156672791835,-152.32687483382878,-17.84580503469696,no_tremor
8,1110601,0.06,-0.4520234306930827,-0.22616217044123038,-1.0244250327494329,0.28892786763157235,-171.27360798999953,-19.077273452563595,no_tremor
9,1110606,0.065,-0.4528574213668447,-0.22386240590351336,-1.018307967238028,0.4651461260681219,-190.0309642237697,-20.26062484073815,no_tremor
10,1110611,0.07,-0.45372819276198817,-0.22177609684581884,-1.010426820647106,0.6019801806830101,-208.53176330055055,-21.39147054802662,no_tremor
11,1110616,0.075,-0.45464049127245887,-0.21993065376351684,-1.0007033657139524,0.701284375282394,-226.70806186283355,-22.465749988704058,no_tremor
12,1110621,0.08,-0.45560130753317923,-0.2183446180802013,-0.9890761132220552,0.7654073317576023,-244.49155957233995,-23.479760025751336,no_tremor
13,1110626,0.085,-0.4566192302743139,-0.21703012845177738,-0.9754974384205719,0.7971794752121805,-261.81403122992407,-24.430180973014316,no_tremor
14,1110631,0.09,-0.45770394878587084,-0.215994591194827,-0.9599320548000443,0.7998942791418074,-278.60778097240336,-25.314098981900816,no_tremor
15,1110636,0.095,-0.4588658598064942,-0.2152417887216268,-0.9423563016062718,0.7772832818299611,-294.80611391280377,-26.12902462213671,no_tremor
16,1110641,0.1,-0.46011574318847254,-0.2147726140646075,-0.9227578871973882,0.7334850053326996,-310.3438199675644,-26.872907506845443,no_tremor
17,1110646,0.105,-0.46146448143447116,-0.21458556684131733,-0.9011358607690441,0.6730079879563191,-325.15766413596646,-27.544146847454247,no_tremor
18,1110651,0.11,-0.4629228073703657,-0.21467710257314973,-0.8775006722891554,0.6006882236463535,-339.1868771826469,-28.14159785247136,no_tremor
19,1110656,0.115,-0.46450107104741156,-0.21504189557850628,-0.8518742359922286,0.5216413894663722,-352.37364052143465,-28.664573906479593,no_tremor
20,1110660,0.119,-0.4662090216914233,-0.21567305382444965,-0.8242899471393507,0.44121033457096553,-364.6635590932069,-29.112844483471793,no_tremor
21,1110665,0.124,-0.468055603595249,-0.2165623094957511,-0.7947926227820306,0.36490839733783104,-376.00611615661376,-29.486628764759164,no_tremor
22,1110670,0.129,-0.47004876671175533,-0.21770019936387958,-0.7634383501764334,0.29835920709739155,-386.3551041550963,-29.786584949848095,no_tremor
23,1110675,0.134,-0.4721952936861417,-0.21907624264891346,-0.7302942345598248,0.24723370883078535,-395.6690261723996,-30.013795272719058,no_tremor
24,1110680,0.139,-0.47450064542040843,-0.22067911982910685,-0.6954380432302812,0.21718521928767417,-403.9114629237509,-30.16974676898623,no_tremor
25,1110685,0.144,-0.4769688271754304,-0.2224968530230952,-0.6589577464642694,0.21378337732552907,-411.0514007282601,-30.256307883594438,no_tremor
26,1110713,0.172,-0.47960227683236434,-0.2245169866795489,-0.6209509584637751,0.2424478861305118,-417.06351644543344,-30.275701064981213,no_tremor
27,1110718,0.177,-0.48240177638416104,-0.2267267660748502,-0.5815242836279677,0.30838295550148787,-421.9284159159327,-30.230471560153596,no_tremor
28,1110723,0.182,-0.4853663871455437,-0.22911331037976204,-0.5407925751651268,0.41651333064604695,-425.63282301403103,-30.12345270623239,no_tremor
29,1110728,0.187,-0.4884934086960244,-0.23166377672307698,-0.49887811443691366,0.5714227320415551,-428.16971699161377,-29.957728107791315,no_tremor
30,1110733,0.192,-0.49177836130807484,-0.23436551169433786,-0.45590972045445355,0.7772954308435914,-429.5384163644241,-29.736591192721285,no_tremor
31,1110738,0.197,-0.4952149915821002,-0.23720618702416388,-0.41202179965397057,1.037861563687436,-429.744608152195,-29.463502744265508,no_tremor
32,1110742,0.201,-0.4987953011523244,-0.24017391668207863,-0.36735334654687524,1.3563466757277738,-428.8003218302568,-29.14204710245275,no_tremor
33,1110747,0.206,-0.5025095985458932,-0.24325735326094178,-0.3220469061548517,1.735425894472556,-426.72384788227083,-28.775887805169383,no_tremor
34,1110752,0.211,-0.5063465744719801,-0.24644576220916786,-0.2762475093763719,2.1771830936890564,-423.53960136741125,-28.368723492245813,no_tremor
35,1110757,0.216,-0.5102934009013047,-0.24972907317587253,-0.2301015926361491,2.6830754114742246,-419.2779314376279,-27.924244923392187,no_tremor
36,1110762,0.221,-0.5143358542020744,-0.25309790841038954,-0.183755913370146,3.2539035344861245,-413.9748782687275,-27.4460939623697,no_tremor
37,1110767,0.226,-0.5184584622862013,-0.25654358877585226,-0.1373564730987883,3.8897882335381366,-407.6718794099709,-26.93782535420707,no_tremor
38,1110772,0.231,-0.5226446751796251,-0.26005811847402666,-0.09104746001962599,4.590153703108562,-400.41542811759354,-26.40287206615123,no_tremor
39,1110777,0.236,-0.5268770576784371,-0.2636341500201151,-0.044970223166051336,5.353718282419484,-392.25668682482814,-25.844514873079394,no_tremor
40,1110786,0.245,-0.5311375018252483,-0.26726493134524254,0.0007377098326923764,6.178493093310886,-383.2510595204775,-25.265856745155382,no_tremor
41,1110791,0.25,-0.5354074558961818,-0.27094423714470545,0.04594355957639811,7.061789018094576,-373.4577274607839,-24.66980244581256,no_tremor
42,1110796,0.255,-0.539668165511946,-0.2746662867477879,0.0905201550129884,8.000232277309012,-362.9391533126714,-24.059043580529824,no_tremor
43,1110801,0.26,-0.5439009214840899,-0.2784256508868005,0.13434671646346552,8.989788678568035,-351.76055948846226,-23.436049159077854,no_tremor
44,1110806,0.265,-0.5480873081904383,-0.2822171498204453,0.17730955248224786,10.025796414068562,-339.9893870395323,-22.80306155090613,no_tremor
45,1110832,0.291,-0.5522094457286252,-0.2860357453467892,0.21930266319357164,11.103007095729952,-327.6947419896804,-22.162097528981107,no_tremor
46,1110847,0.306,-0.5562502188787349,-0.28987642933822605,0.2602282447703344,12.215634536495866,-314.94683637260044,-21.514953919714223,no_tremor
47,1110852,0.311,-0.5601934860530169,-0.29373411153839196,0.2999970919392465,13.357410619356676,-301.8164314379087,-20.86321722393575,no_tremor
48,1110857,0.316,-0.5640242619483272,-0.2976035094486582,0.3385288976527159,14.521647452676865,-288.37429042892626,-20.208276473097566,no_tremor
49,1110862,0.321,-0.5677288685384299,-0.3014790431549342,0.37575245120812106,15.701304899326265,-274.69064795953926,-19.551338556290354,no_tremor
50,1110867,0.326,-0.5712950502882945,-0.3053547378671785,0.41160573800181666,16.88906248623999,-260.834702357601,-18.893445294144005,no_tremor
51,1110872,0.331,-0.5747120509403544,-0.3092241367517475,0.4460359457241335,18.077394643423105,-246.87413650263082,-18.235491620642243,no_tremor
52,1110881,0.34,-0.5779706508062004,-0.31308022634161176,0.4789993831312119,19.2586481823653,-232.8746717744751,-17.578244335598576,no_tremor
53,1110891,0.35,-0.5810631651030242,-0.31691537643577766,0.5104613185934286,20.425120902074656,-218.8996588162621,-16.92236099162211,no_tremor
54,1110896,0.355,-0.5839834054182447,-0.32072129597719873,0.5403957464465236,21.56914020703261,-205.00970793800724,-16.268408571424377,no_tremor
55,1110901,0.36,-0.5867266077802096,-0.324489005961997,0.5687850897824045,22.683140636820042,-191.26236117515643,-15.616881688375456,no_tremor
56,1110911,0.37,-0.5892893319646794,-0.32820883001567486,0.5956198487226708,23.75973924221808,-177.71180729092498,-14.968220101053372,no_tremor
57,1110921,0.38,-0.5916693374959247,-0.33187040289972225,0.620898203416422,24.791807794947253,-164.40864037821873,-14.322825371941558,no_tremor
58,1110926,0.385,-0.5938654422623607,-0.3354626968946214,0.6446255809813042,25.772540886461577,-151.39966215950724,-13.68107652759019,no_tremor
59,1110931,0.39,-0.5958773697559597,-0.33897406573586364,0.6668141953451703,26.695519058233515,-138.72772756929194,-13.043344599955956,no_tremor
60,1110957,0.416,-0.5977055906959028,-0.3423923055391159,0.6874825684339004,27.554766215657388,-126.43163270652958,-12.410005951431016,no_tremor
61,1110962,0.421,-0.5993511642791647,-0.3457047319159973,0.7066550403994551,28.34480070862984,-114.54604375927163,-11.781454310674683,no_tremor
62,1110967,0.426,-0.6008155836168193,-0.34889827223566033,0.7243612756388986,29.060679606113055,-103.10146505125192,-11.158111469572797,no_tremor
63,1110972,0.431,-0.6021006291834864,-0.3519595717252611,0.7406357703054001,29.698035839509043,-92.12424397085222,-10.540436607168004,no_tremor
64,1110977,0.436,-0.603208233425178,-0.354875111834005,0.7555173659549299,30.253108031970964,-81.63661023990804,-9.928934210487162,no_tremor
65,1110982,0.441,-0.6041403590805742,-0.35763133902860184,0.7690487729860477,30.722762961337363,-71.65674676952027,-9.324160557714675,no_tremor
66,1110987,0.446,-0.6048988932628167,-0.36021480196202565,0.7812761066577563,31.104510718335348,-62.19888922458297,-8.726728722588845,no_tremor
67,1110992,0.451,-0.6054855588891728,-0.3626122947784198,0.7922484377270177,31.39651271644027,-53.273451363756834,-8.137312054832526,no_tremor
68,1110997,0.456,-0.6059018446013137,-0.3648110041949347,0.8020173591347867,31.597582785761993,-44.88717322085697,-7.556646091217652,no_tremor
69,1111002,0.461,-0.6061489538679281,-0.3667986579403933,0.8106365696838433,31.707181643809697,-37.04328923070044,-6.985528855375214,no_tremor
70,1111006,0.465,-0.606227773495107,-0.3685636721306419,0.8181614752876043,31.72540508523569,-29.741713463004373,-6.424819511735147,no_tremor
71,1111011,0.47,-0.6061388612912382,-0.37009529521802687,0.8246488081187947,31.65296627410323,-22.97923920176112,-5.875435350905271,no_tremor
72,1111016,0.475,-0.605882452155278,-0.3713837462621736,0.8301562638396576,31.491172558153195,-16.74975018908777,-5.338347101627942,no_tremor
73,1111021,0.48,-0.6054584814015074,-0.37242034542361635,0.8347421570355551,31.241897256750978,-11.044440940030722,-4.81457258837584,no_tremor
74,1111026,0.485,-0.6048666237251387,-0.37319763477126877,0.8384650949796233,30.907546904068568,-5.852043628873729,-4.305168782118148,no_tremor
75,1111031,0.49,-0.6041063458746055,-0.3737094877080156,0.841383669901246,30.491024457372387,-1.1590591498692346,-3.8112223225028288,no_tremor
76,1111036,0.495,-0.6031769708456151,-0.37395120554406497,0.8435561699879253,29.99568900746734,3.0500099324960104,-3.3338386209030606,no_tremor
77,1111041,0.5,-0.6020777512596468,-0.37391959997422036,0.8450403093927776,29.42531255456772,6.792426705345377,-2.8741296847009523,no_tremor
78,1111045,0.504,-0.6008079495388167,-0.373613060433994,0.845892977525969,28.784034437399125,10.086989526774916,-2.433200833911825,no_tremor
79,1111050,0.509,-0.5993669225360033,-0.3730316055141794,0.8461700078600122,28.076314024117387,12.953805815718122,-2.012136512264179,no_tremor
80,1111055,0.514,-0.5977542084133133,-0.3721769178007967,0.8459259663641708,27.30688228794204,15.414071713228074,-1.6119854262205957,no_tremor
81,1111082,0.541,-0.595969613766662,-0.3710523616772907,0.8452139594994986,26.48069289581288,17.489859122873323,-1.233745276157758,no_tremor
82,1111087,0.546,-0.5940132992461082,-0.3696629837830301,0.8440854614650125,25.6028734323294,19.203911426772507,-0.8783473716889149,no_tremor
83,1111092,0.551,-0.5918858621891725,-0.36801549597664995,0.842590160119293,24.67867735968448,20.579448954564356,-0.546641444247785,no_tremor
84,1111096,0.555,-0.5895884150314507,-0.3661182408188598,0.840775820760712,23.71343727282393,21.639985069579037,-0.23938098053079127,no_tremor
85,1111101,0.56,-0.5871226584563061,-0.3639811397794858,0.8386881667838602,22.712519947379405,22.409153540663752,0.04279060180618849,no_tremor
86,1111106,0.565,-0.5844909483838375,-0.3616156245919172,0.8363707761672526,21.681283602439887,22.910547691841472,0.2993526282248314,no_tremor
87,1111111,0.57,-0.5816963559892057,-0.3590345524194393,0.83386499278637,20.625037720380483,23.167571661944656,0.5299184047323449,no_tremor
88,1111116,0.575,-0.5787427200013477,-0.35625210575119115,0.8312098516663559,19.549005688969118,23.20330396041507,0.734244760248913,no_tremor
89,1111121,0.58,-0.5756346905836249,-0.3532836781982832,0.8284420174640517,18.458290460621505,23.040373375376102,0.912239670243652,no_tremor
90,1111126,0.585,-0.572377764151743,-0.35014574760100275,0.8255957356727909,17.357843361941605,22.700847179728555,1.0639677795339932,no_tremor
91,1111131,0.59,-0.5689783085502693,-0.3468557380748186,0.822702796249391,16.252436134579323,22.206131492978532,1.1896536889455753,no_tremor
92,1111135,0.594,-0.5654435780921936,-0.3434318728054423,0.8197925095458836,15.146636246038568,21.576883589766283,1.2896829199110549,no_tremor
93,1111140,0.599,-0.5617817180679301,-0.3398930195418201,0.8168916945656457,14.044785475781282,20.832935896150072,1.3646005206921754,no_tremor
94,1111145,0.604,-0.5580017584500482,-0.33625853082357504,0.8140246796370294,12.950981756663387,19.993231375380194,1.415107326341722,no_tremor
95,1111150,0.609,-0.5541135966550412,-0.33254808101363964,0.8112133155984572,11.869064232314527,19.07576996938893,1.4420539312677316,no_tremor
96,1111155,0.614,-0.5501279693694114,-0.3287815021901826,0.8084770015184924,10.802601474210862,18.09756572353829,1.4464324782774298,no_tremor
97,1111160,0.619,-0.5460564135990099,-0.3249786208907843,0.8058327228425747,9.75488278408598,17.07461417445279,1.4293664111652746,no_tremor
98,1111165,0.624,-0.5419112172516113,-0.3211590976049144,0.8032951016820453,8.728912485340384,16.021869521866382,1.3920983788513408,no_tremor
99,1111170,0.629,-0.5377053597057313,-0.3173422707883754,0.8008764587638946,7.727407080916931,14.95323103773511,1.3359765172149891,no_tremor
100,1111175,0.634,-0.5334524429453685,-0.3135470070365722,0.7985868863686768,6.7527951261725745,13.881538094077648,1.2624393697453107,no_tremor
101,1111204,0.663,-0.5291666139424089,-0.30979155891299587,0.7964343314269365,5.807219635560439,12.818573119765485,1.172999739525106,no_tremor
102,1111209,0.668,-0.5248624790402865,-0.3060934317930874,0.7944246878436154,4.89254281359083,11.775071731489026,1.0692277909722918,no_tremor
103,1111214,0.673,-0.5205550111346403,-0.3024692609529423,0.792561897086468,4.01035287640013,10.760739234858526,0.9527337356106982,no_tremor
104,1111219,0.678,-0.5162594504673368,-0.2989346999999762,0.7908480561043854,3.1619727134431233,9.78427266983191,0.8251504366156073,no_tremor
105,1111224,0.683,-0.5119911998631911,-0.29550432159735757,0.789283531715694,2.3484701311023546,8.853387586717666,0.6881162503187399,no_tremor
106,1111229,0.688,-0.5077657152586631,-0.2921915312677748,0.7878670806975407,1.5706694207300724,7.97484878028941,0.5432583930510387,no_tremor
107,1111234,0.693,-0.503598392409559,-0.28900849487407826,0.7865959748887711,0.8291640005752658,7.154504268672675,0.39217708489554226,no_tremor
108,1111239,0.698,-0.49950445072527394,-0.28596608016899205,0.7854661306707366,0.12432989210198528,6.397321869891371,0.23643068316248333,no_tremor
109,1111243,0.702,-0.49549881525929657,-0.28307381259034275,0.7844722422028072,-0.5436601947208666,5.707427794614379,0.07752198070483647,no_tremor
110,1111248,0.707,-0.4915959979831216,-0.2803398452601827,0.7836079177603594,-1.1748223760870098,5.08814673309113,-0.08311419064378889,no_tremor
111,1111253,0.712,-0.48780997957256356,-0.2777709429345392,0.7828658184585447,-1.7693469001945077,4.542042964095962,-0.244121942219035,no_tremor
112,1111258,0.717,-0.4841540930285775,-0.275372479453921,0.782237798556389,-2.3275834185015665,4.070962053731608,-0.40423381402296404,no_tremor
113,1111263,0.722,-0.48064091052630936,-0.2731484480708016,0.7817150464363556,-2.8500263818742906,3.676072745051151,-0.5622787052947695,no_tremor
114,1111268,0.727,-0.47728213492588145,-0.2711014838850408,0.7812882252582761,-3.3373007085447175,3.3579086703184777,-0.7171882142286932,no_tremor
115,1111273,0.732,-0.4740884973793557,-0.26923289750553236,0.7809476122062726,-3.790147859463982,3.116409551379351,-0.8680013728801504,no_tremor
116,1111278,0.737,-0.4710696624271018,-0.26754271897802384,0.7806832351940985,-4.209412445567559,2.950961594092603,-1.0138677853929057,no_tremor
117,1111283,0.742,-0.4682341418940842,-0.2660297509746563,0.7804850058769217,-4.596029479865354,2.860436832293675,-1.1540492000792617,no_tremor
118,1111292,0.751,-0.4655892187771995,-0.2646916302277975,0.7803428478408991,-4.95101237424195,2.8432312362931236,-1.287919568924098,no_tremor
119,1111297,0.756,-0.46314088216784544,-0.26352489620454345,0.7802468189055918,-5.275441765146115,2.8973014710726877,-1.4149636718452836,no_tremor
120,1111302,0.761,-0.46089377409238097,-0.2625250660519082,0.7801872265720469,-5.570455231882065,3.0202002698373627,-1.534774406831526,no_tremor
121,1111328,0.787,-0.4588511489921457,-0.26168671488746165,0.7801547357693804,-5.83723794366645,3.2091104762691898,-1.647048869720375,no_tremor
122,1111333,0.792,-0.45701484641776124,-0.2610035605565549,0.7801404681780696,-6.077014236925565,3.46087789545369,-1.7515833676283872,no_tremor
123,1111337,0.796,-0.45538527738678647,-0.2604685520166937,0.7801360925179394,-6.291040086638602,3.7720431645777204,-1.8482675261251134,no_tremor
124,1111342,0.801,-0.45396142474715306,-0.2600739605361382,0.7801339052621873,-6.480596401504178,4.138872893963269,-1.9370776596844472,no_tremor
125,1111347,0.806,-0.45274085779007656,-0.25981147290605083,0.7801269012645209,-6.646983047132064,4.557390329539168,-2.0180695761998915,no_tremor
126,1111352,0.811,-0.4517197612503823,-0.2596722858674447,0.7801088337708539,-6.791513485276663,5.023405757216633,-2.0913709804495917,no_tremor
127,1111357,0.816,-0.4508929787065133,-0.2596472009531223,0.780074263251673,-6.9155099091556425,5.532546823896191,-2.1571736311481833,no_tremor
128,1111362,0.821,-0.450254070239306,-0.2597267189482654,0.7800185944633931,-7.020298754067892,6.080288902517762,-2.2157253939784405,no_tremor
129,1111366,0.825,-0.44979538402602615,-0.259901133186915,0.7799381011513901,-7.107206467957882,6.661985587124027,-2.2673223197452175,no_tremor
130,1111371,0.83,-0.4495081413371245,-0.2601606209284552,0.7798299378625904,-7.177555436871869,7.2728993718146375,-2.3123008627623993,no_tremor
131,1111381,0.84,-0.44938253417481505,-0.2604953320992888,0.7796921384534459,-7.232659973557159,7.908232545701656,-2.351030339895187,no_tremor
132,1111386,0.845,-0.44940783455572714,-0.26089547473893115,0.7795236010644377,-7.273822291855808,8.56315832344751,-2.3839057155440297,no_tremor
133,1111391,0.85,-0.44957251420900596,-0.26135139655331285,0.7793240595813885,-7.302328403539451,9.2328522251991,-2.4113407825768483,no_tremor
134,1111396,0.855,-0.4498643732529667,-0.2618536620458328,0.7790940419043371,-7.319443887327386,9.912523717072471,-2.433761794186059,no_tremor
135,1111401,0.86,-0.4502706762424048,-0.2623931247625195,0.7788348156763648,-7.326409492663226,10.59744811890345,-2.451601587258485,no_tremor
136,1111406,0.865,-0.45077829385284596,-0.2629609942462134,0.7785483224633818,-7.324436554573023,11.282998774574411,-2.4652942242954823,no_tremor
137,1111410,0.869,-0.4513738483872935,-0.26354889734257136,0.7782371016978852,-7.314702211552212,11.964679457794485,-2.475270168062708,no_tremor
138,1111415,0.874,-0.45204386124959284,-0.2641489335366887,0.7779042059848885,-7.298344436160397,12.63815695037898,-2.4819519906804226,no_tremor
139,1111420,0.879,-0.45277490051773606,-0.2647537240238976,0.7775531096006555,-7.27645690729079,13.299293679984412,-2.4857506068170534,no_tremor
140,1111425,0.884,-0.45355372676047767,-0.2653564542341081,0.7771876121832028,-7.250083773229247,13.944180240341355,-2.487062009588836,no_tremor
141,1111450,0.909,-0.4543674352617925,-0.26595090953941497,0.7768117397119216,-7.2202143754967825,14.569167540955501,-2.486264478342353,no_tremor
142,1111455,0.914,-0.4552035928420368,-0.2665315038845158,0.7764296449026119,-7.187778025149606,15.170898248345265,-2.4837162200888323,no_tremor
143,1111460,0.919,-0.456050367488467,-0.26709330109574686,0.7760455091097657,-7.153638944657708,15.746337092915361,-2.479753401570235,no_tremor
144,1111465,0.924,-0.4568966490331857,-0.26763202865583424,0.7756634477399172,-7.118591507116006,16.29279953210223,-2.474688527877877,no_tremor
145,1111470,0.929,-0.45773215915062015,-0.26814408378480853,0.7752874210502354,-7.083355917630111,16.807978187713786,-2.4688091270312933,no_tremor
146,1111475,0.934,-0.45854754899788536,-0.26862653174472195,0.7749211520476327,-7.04857448806408,17.289966415354385,-2.4623767077791356,no_tremor
147,1111480,0.939,-0.45933448289731715,-0.26907709638309146,0.7745680530259204,-7.014808656446075,17.737278314497317,-2.4556259692757827,no_tremor
148,1111494,0.953,-0.4600857065666536,-0.2694941430408814,0.7742311620883436,-6.982536897295205,18.148864446268625,-2.448764255027352,no_tremor
149,1111499,0.958,-0.4607950985429905,-0.269876654068396,0.7739130908016452,-6.952153659347125,18.52412249199695,-2.4419712576165256,no_tremor
150,1111504,0.963,-0.46145770362490895,-0.27022419730973274,0.7736159839124364,-6.923969451609046,18.86290206428335,-2.4353989923661685,no_tremor
151,1111509,0.968,-0.4620697473747488,-0.2705368880266925,0.773341491821061,-6.898212175624982,19.16550288489988,-2.429172064649976,no_tremor
152,1111514,0.973,-0.46262863097886653,-0.27081534483100084,0.7730907562469997,-6.875029770534618,19.43266558278647,-2.4233882561055102,no_tremor
153,1111519,0.978,-0.463132906054285,-0.2710606402770921,0.772864409232181,-6.854494199077756,19.66555444907557,-2.4181194507661714,no_tremor
154,1111524,0.983,-0.4635822293117129,-0.27127424683758045,0.7726625853186478,-6.836606759198506,19.865731617607285,-2.4134129151009622,no_tremor
155,1111529,0.988,-0.4639772973365296,-0.27145797904326124,0.7724849464128766,-6.821304659440415,20.035122320109473,-2.4092929373688863,no_tremor
