sample,t_ms,t_s,ax,ay,az,gx,gy,gz,tremor
0,3721356,0.0,-0.41491311290482935,-0.43741876726340667,0.7156129461227164,1.040076029772746,1.1242491195032662,-0.48643650945237693,no_tremor
1,3721361,0.005,-0.4150721269508286,-0.43726427902469456,0.7155248416996353,1.0488103701236615,1.14984748989361,-0.47515949827005605,no_tremor
2,3721366,0.01,-0.4153084581099063,-0.4370417994480817,0.7153966562169684,1.0665597955979655,1.1781854427266933,-0.4677080412878445,no_tremor
3,3721371,0.015,-0.4156381839024136,-0.4367407526368896,0.715221558066689,1.093810389788776,1.2090668206374582,-0.4648153991681313,no_tremor
4,3721376,0.02,-0.41606573318607004,-0.43636190445802786,0.7149992898290096,1.130995130803401,1.2422665434522377,-0.4672291657358529,no_tremor
5,3721380,0.024,-0.4165869944287383,-0.4359134142758453,0.7147340807133338,1.1784862136848946,1.2775312039650326,-0.4757041040164726,no_tremor
6,3721385,0.029,-0.41719371280254114,-0.43540631352829384,0.7144320918657778,1.2365874262518273,1.3145797773711483,-0.49099436342712616,no_tremor
7,3721390,0.034,-0.41787650921047376,-0.4348517108907765,0.714099775446798,1.3055266484824133,1.3531044305909454,-0.5138451074840045,no_tremor
8,3721395,0.039,-0.418626315420885,-0.43425963917097815,0.7137431567388298,1.3854485465099626,1.39277142105444,-0.5449835848806418,no_tremor
9,3721400,0.044,-0.4194347700272285,-0.4336388752075391,0.7133676827542782,1.476407532895401,1.433222077519373,-0.5851096807496119,no_tremor
10,3721410,0.054,-0.4202941105610983,-0.4329971779723115,0.7129783250125367,1.5783610650627735,1.4740738583175825,-0.6348859902433602,no_tremor
11,3721419,0.063,-0.4211968924316066,-0.4323416333936466,0.7125797552021162,1.6911633533789674,1.514921484946408,-0.6949274634364186,no_tremor
12,3721424,0.068,-0.42213569404013135,-0.4316789708494849,0.7121765120232941,1.8145595492641318,1.555338150807403,-0.765790678245423,no_tremor
13,3721429,0.073,-0.4231028681825035,-0.4310158098377972,0.7117731319817316,1.9481804820910646,1.594876805990019,-0.8479628057368044,no_tremor
14,3721434,0.078,-0.42409035296314634,-0.43035883552162546,0.7113742411578949,2.091538011573174,1.6330715193304894,-0.9418503394211086,no_tremor
15,3721438,0.082,-0.42508953718339454,-0.42971491513406795,0.7109846135566016,2.244021059603853,1.669438918563614,-1.0477676667883444,no_tremor
16,3721443,0.087,-0.42609117017709347,-0.42909116909008926,0.710609203342916,2.4048923815595113,1.7034797080831732,-1.1659255675030722,no_tremor
17,3721448,0.092,-0.42708530635098946,-0.4284950085669472,0.7102531574609563,2.573286131792302,1.7346802611639585,-1.2964197288866537,no_tremor
18,3721453,0.097,-0.42806127659489096,-0.42793414842901467,0.7099218137031755,2.748206272212091,1.762514279051531,-1.4392193763028145,no_tremor
19,3721477,0.121,-0.42900768078613116,-0.42741660180566243,0.709620687956381,2.928525867486712,1.786444503486658,-1.5941561239146131,no_tremor
20,3721482,0.126,-0.429912397334911,-0.426950660657391,0.7093554532955281,3.112987305614047,1.8059244630927758,-1.7609131591051754,no_tremor
21,3721487,0.131,-0.43076260701124147,-0.4265448652529628,0.7091319128317819,3.3002034778601903,1.820400228485833,-1.9390148803878307,no_tremor
22,3721492,0.136,-0.4315448292097522,-0.42620796451202136,0.7089559676926251,3.4886599469395456,1.8293121463779412,-2.1278171129583687,no_tremor
23,3721497,0.141,-0.4322449694283532,-0.4259488685249916,0.7088335811568002,3.676718126942451,1.8320965199758814,-2.326498027904487,no_tremor
24,3721502,0.146,-0.43284837713841373,-0.42577659414907204,0.7087707397337014,3.8626194931504587,1.8281872027059942,-2.534049890829531,no_tremor
25,3721507,0.151,-0.43333991347004214,-0.4257002043252449,0.7087734118269559,4.044490834784701,1.8170170753991464,-2.749271763931336,no_tremor
26,3721511,0.155,-0.43370402827276827,-0.42572874161674507,0.7088475045281446,4.220350559036798,1.798019383029272,-2.9707632830355872,no_tremor
27,3721516,0.16,-0.4339248461730767,-0.4258711564001111,0.7089988190299845,4.388116049999734,1.7706289146402914,-3.196919628039252,no_tremor
28,3721521,0.165,-0.4339862612596586,-0.4261362301224212,0.7092330051155692,4.545612080457134,1.7342830181191997,-3.4259278015524504,no_tremor
29,3721526,0.17,-0.43387204000162805,-0.42653249405663,0.709555515162182,4.690580267480671,1.6884224492072073,-3.6557643258342716,no_tremor
30,3721531,0.175,-0.43356593195582016,-0.4270681440299781,0.709971558088154,4.820689554904337,1.6324920606439708,-3.884194462084441,no_tremor
31,3721536,0.18,-0.4330517877545714,-0.42775095166027305,0.7104860536645577,4.933547697559296,1.565941341556283,-4.10877304869544,no_tremor
32,3721541,0.185,-0.4323136837903546,-0.4285881727054085,0.7111035876068967,5.026713713578441,1.4882248187730829,-4.326847046076647,no_tremor
33,3721546,0.19,-0.4313360529317687,-0.4295864532080204,0.7118283678531641,5.097711261817451,1.3988023313332785,-4.535559864781571,no_tremor
34,3721551,0.195,-0.430103820518912,-0.4307517341957221,0.7126641824223947,5.144042891698846,1.2971391879746437,-4.731857540630097,no_tremor
35,3721555,0.199,-0.42860254479668913,-0.43208915577456924,0.7136143592315315,5.163205103117866,1.1827062153106758,-4.912496805685116,no_tremor
36,3721560,0.204,-0.426818560853414,-0.4336029615264269,0.714681728227913,5.152704144654536,1.0549797019605232,-5.074055088327509,no_tremor
37,3721565,0.209,-0.4247391270404324,-0.4352964041873382,0.7158685861701602,5.110072468842725,0.9134412417266541,-5.212942460165335,no_tremor
38,3721570,0.214,-0.4223525727577994,-0.4371716536418717,0.7171766643621165,5.032885753197139,0.7575774779930408,-5.325415532108103,no_tremor
39,3721575,0.219,-0.41964844640300636,-0.4392297083161959,0.7186070996134875,4.918780385136746,0.5868797524422511,-5.407593285844615,no_tremor
40,3721599,0.243,-0.4166176621963502,-0.44147031108909407,0.7201604086677573,4.76547129838726,0.4008436637132485,-5.455474809448819,no_tremor
41,3721604,0.248,-0.4132526445200165,-0.4438918708643878,0.7218364663039063,4.570770038315259,0.1989685451966825,-5.4649588869154355,no_tremor
42,3721609,0.253,-0.40954746834051126,-0.4464913909596878,0.723634487285204,4.332602923920529,-0.01924312415294105,-5.431865371852609,no_tremor
43,3721614,0.258,-0.40549799422772365,-0.449264405464618,0.7255530122985786,4.049029164734734,-0.2542863558518441,-5.3519582561585715,no_tremor
44,3721618,0.262,-0.40110199644035044,-0.45220492470619,0.7275898980041917,3.7182587817934145,-0.5066543070404614,-5.220970325379165,no_tremor
45,3721623,0.267,-0.39635928251829916,-0.4553053909290696,0.7297423112973906,3.338670173664216,-0.7768389194101555,-5.034629272952083,no_tremor
46,3721628,0.272,-0.3912718028095203,-0.4585566452530103,0.7320067278724565,2.9088271618251484,-1.0653315004501038,-4.788685125230002,no_tremor
47,3721633,0.277,-0.38584374836281393,-0.4619479069076291,0.7343789351666489,2.4274953448969785,-1.3726232018073439,-4.478938808360367,no_tremor
48,3721638,0.282,-0.3800816356406574,-0.4654667656650538,0.7368540397512107,1.8936575883858526,-1.6992053478578424,-4.10127166751642,no_tremor
49,3721642,0.286,-0.3739943765480763,-0.46909918829328157,0.7394264792209905,1.3065284754403346,-2.045569566610091,-3.651675729075149,no_tremor
50,3721648,0.292,-0.36759333233611263,-0.47282953973733577,0.7420900386145121,0.6655675443242791,-2.4122076734011566,-3.1262844771083915,no_tremor
51,3721652,0.296,-0.3608923500226464,-0.4766406196020635,0.7448378713705968,-0.029508860412679784,-2.7996112552253964,-2.5214038968508534,no_tremor
52,3721657,0.301,-0.3539077800804106,-0.4805137143607872,0.7476625247956168,-0.7787172935484237,-3.2082709007749655,-1.8335435198840044,no_tremor
53,3721662,0.306,-0.346658474273267,-0.4844286655496314,0.7505559699773522,-1.581798637258294,-3.638675019358,-1.059447189667467,no_tremor
54,3721667,0.311,-0.33916576267834286,-0.4883639540301824,0.7535096360377949,-2.438211408505201,-4.091308191734724,-0.19612325357777913,no_tremor
55,3721672,0.316,-0.33145340911430415,-0.4922968002152274,0.7565144485686733,-3.34712708814769,-4.566648998831224,0.7591261192304102,no_tremor
56,3721677,0.321,-0.32354754440531514,-0.49620327995537566,0.7595608720404475,-4.307427593257957,-5.065167281613641,1.8086767947895308,no_tremor
57,3721681,0.325,-0.3154765771461316,-0.5000584555798422,0.7626389559186023,-5.317704987039094,-5.587320797901315,2.954555999789144,no_tremor
58,3721686,0.33,-0.3072710818955957,-0.503836521374173,0.7657383841610704,-6.37626348833737,-6.133551259374901,4.198417396019605,no_tremor
59,3721691,0.335,-0.29896366501164684,-0.5075109625634303,0.7688485277086959,-7.481123806337332,-6.704279753257713,5.5415181653816195,no_tremor
60,3721696,0.34,-0.2905888086474149,-0.5110547266546189,0.7719584995184107,-8.630029787142345,-7.29990157586107,6.984698342525931,no_tremor
61,3721701,0.345,-0.28218269374992827,-0.5144404057817288,0.7750572116284313,-9.820457319145873,-7.92078052664663,8.52836260162017,no_tremor
62,3721730,0.374,-0.2737830032331767,-0.5176404284973769,0.7781334336892366,-11.049625404836908,-8.567242729415424,10.172464666951269,no_tremor
63,3721735,0.379,-0.2654287068245604,-0.5206272592758998,0.7811758523476966,-12.31450927008702,-9.23957006057262,11.916494475438144,no_tremor
64,3721740,0.384,-0.2571598293907271,-0.5233736038469882,0.784173130841657,-13.611855352150188,-9.937993273261723,13.759468176951874,no_tremor
65,3721745,0.389,-0.24901720481336231,-0.5258526183820642,0.7871139681582454,-14.93819798950744,-10.662684911572102,15.699921021624574,no_tremor
66,3721750,0.394,-0.241042217690274,-0.5280381205178561,0.789987157138694,-16.289877631667572,-11.41375211224121,17.735903155657716,no_tremor
67,3721759,0.403,-0.2332765352795899,-0.5299048002198965,0.7927816409751826,-17.663060390641657,-12.19122939287566,19.864978327285996,no_tremor
68,3721769,0.413,-0.22576183219682242,-0.5314284285472094,0.7954865676326095,-19.053758761590323,-12.995071525399608,22.084225488904497,no_tremor
69,3721774,0.418,-0.21853951043145758,-0.5325860624580112,0.7980913418285907,-20.45785334458407,-13.825146590286392,24.39024326780726,no_tremor
70,3721779,0.423,-0.21165041728162548,-0.5333562438772029,0.8005856743076208,-21.871115402200232,-14.68122929986438,26.77915726693929,no_tremor
71,3721784,0.428,-0.2051345638155168,-0.5337191913177285,0.8029596282417013,-23.289230088927248,-15.562994666491885,29.24663014956785,no_tremor
72,3721793,0.437,-0.19903084645632585,-0.5336569824041462,0.805203662673533,-24.70782018737271,-16.470012073581657,31.787874456986902,no_tremor
73,3721798,0.442,-0.19337677425289834,-0.5331537256893584,0.8073086729856317,-26.12247018254117,-17.401739785753357,34.39766810333586,no_tremor
74,3721813,0.457,-0.18820820433982774,-0.5321957201910059,0.8092660284277022,-27.528750499422433,-18.35751991151475,37.07037248389123,no_tremor
75,3721818,0.462,-0.18355908800592097,-0.5307716011124348,0.8110676067655228,-28.922241721963513,-19.336573811652862,39.79995312300508,no_tremor
76,3721822,0.466,-0.1794612296746642,-0.5288724702654586,0.8127058261293094,-30.298558604595303,-20.337997934027076,42.58000277712953,no_tremor
77,3721850,0.494,-0.17594406095065904,-0.5264920097882575,0.8141736741413782,-31.65337368242335,-21.36076005561745,45.403766898229094,no_tremor
78,3721855,0.499,-0.17303443170134,-0.523626577857104,0.8154647343958425,-32.98244028445802,-22.403695926688922,48.264171353109894,no_tremor
79,3721859,0.503,-0.1707564199289676,-0.5202752852228112,0.8165732103508113,-34.28161475715121,-23.465506335075343,51.15385228452326,no_tremor
80,3721864,0.508,-0.16913116195497538,-0.5164400515516818,0.8174939466789335,-35.54687771423277,-24.54475463278833,54.06518799060422,no_tremor
81,3721869,0.513,-0.1681767042003152,-0.5121256407035618,0.818222448107071,-36.77435414362374,-25.639864785927863,56.99033268959068,no_tremor
82,3721874,0.518,-0.1679078776119906,-0.5073396742283126,0.8187548957615519,-37.9603322210219,-26.749120020068403,59.92125202420285,no_tremor
83,3721879,0.523,-0.16833619556291665,-0.5020926225061139,0.8190881610228821,-39.10128069907894,-27.87066213833046,62.84976014182528,no_tremor
84,3721884,0.528,-0.16946977584022163,-0.49639777310159294,0.8192198168843008,-40.19386475829704,-29.002491590890944,65.76755816254239,no_tremor
85,3721888,0.532,-0.17131328713363683,-0.49027117605418635,0.8191481468039272,-41.23496022057051,-30.1424683750701,68.6662738193913,no_tremor
86,3721898,0.542,-0.17386792023683426,-0.48373156599497424,0.8188721510421635,-42.22166604027444,-31.28831384578211,71.53750202617307,no_tremor
87,3721903,0.547,-0.17713138397680303,-0.4768002611703219,0.8183915504855237,-43.15131500325709,-32.437613517102044,74.37284609884567,no_tremor
88,3721908,0.552,-0.1810979256878662,-0.4695010396699242,0.8177067879746478,-44.02148258295061,-33.58782093553217,77.16395932809598,no_tremor
89,3721913,0.557,-0.1857583758493376,-0.46185999340336437,0.8168190271755432,-44.82999392588474,-34.7362627023049,79.9025865756604,no_tremor
90,3721918,0.562,-0.1911002163138486,-0.45390536064388687,0.8157301490551967,-45.57492896574396,-35.88014471465707,82.5806055480045,no_tremor
91,3721923,0.567,-0.1971076713728541,-0.44566733825674637,0.814442746041351,-46.25462569448807,-37.01655968436972,85.19006738940338,no_tremor
92,3721927,0.571,-0.20376182074135554,-0.4371778750460024,0.8129601139577632,-46.86768164914384,-38.1424959758126,87.72323623259201,no_tremor
93,3721932,0.576,-0.2110407333979112,-0.428470447979889,0.8112862418278757,-47.41295370126497,-39.2548477840438,90.17262734920197,no_tremor
94,3721937,0.581,-0.21891962108897844,-0.4195798233813067,0.8094257996294415,-47.88955625994153,-40.35042664416872,92.53104355385142,no_tremor
95,3721942,0.586,-0.2273710101971481,-0.41054180548557245,0.8073841240585458,-48.29685801621991,-41.425974224354604,94.79160953347275,no_tremor
96,3721947,0.591,-0.23636493057763433,-0.40139297505984706,0.8051672023222017,-48.634477365794226,-42.47817630564062,96.94780379541297,no_tremor
97,3721975,0.619,-0.24586911988140614,-0.39217042103394756,0.8027816539238204,-48.902276648380365,-43.50367779243773,98.99348795339412,no_tremor
98,3721980,0.624,-0.25584924179979596,-0.3829114682955057,0.8002347103376096,-49.10035533807021,-44.49909853361089,100.92293310056012,no_tremor
99,3721985,0.629,-0.26626911657606683,-0.3736534049356475,0.7975341923939523,-49.229042311584706,-45.46104968018519,102.73084305572837,no_tremor
100,3721989,0.633,-0.27709096202593325,-0.36443321227456793,0.7946884851318822,-49.28888731283825,-46.38615028336669,104.41237431459,no_tremor
101,3721994,0.638,-0.2882756431857217,-0.3552873009370871,0.7917065098334088,-49.2806517236785,-47.2710438582032,105.96315259115566,no_tremor
102,3721999,0.643,-0.29978292856381916,-0.3462512560911198,0.7885976929502214,-49.205298742144535,-48.11241469620017,107.37928589161675,no_tremor
103,3722004,0.648,-0.3115717508167738,-0.33735959472519217,0.7853719316707106,-49.063983060913216,-48.907003784381544,108.65737411712246,no_tremor
104,3722009,0.653,-0.32360046952398863,-0.32864553754582954,0.7820395559510483,-48.85804012996854,-49.651624261286486,109.79451523978496,no_tremor
105,3722014,0.658,-0.33582713361879085,-0.3201407977421323,0.7786112869396737,-48.588975079595,-50.343176403374756,110.78830813609335,no_tremor
106,3722019,0.663,-0.3482097409707523,-0.31187538851344904,0.7750981918482942,-48.258451373374356,-50.97866218475553,111.6368521941382,no_tremor
107,3722024,0.668,-0.3607064926169162,-0.3038774509033719,0.7715116354516526,-47.86827925636031,-51.555199487890135,112.33874383663544,no_tremor
108,3722029,0.673,-0.37327603921152336,-0.2961731031381012,0.7678632285206363,-47.42040406080679,-52.07003606367399,112.89307012168531,no_tremor
109,3722033,0.677,-0.3858777174034846,-0.2887863123319224,0.764164773598514,-46.91689443008322,-52.520563348308904,113.29939959855909,no_tremor
110,3722038,0.682,-0.39847177405278994,-0.2817387890970588,0.7604282086106733,-46.35993051967361,-52.904330244046335,113.5577706081788,no_tremor
111,3722043,0.687,-0.4110195764507455,-0.2750499052791717,0.756665548849784,-45.75179223114911,-53.21905696249537,113.66867722915154,no_tremor
112,3722048,0.692,-0.4234838069989004,-0.26873663473292964,0.752888827899857,-45.09484752994066,-53.46264901232671,113.63305308139476,no_tremor
113,3722053,0.697,-0.43582864110915176,-0.26281351675419234,0.7491100380570678,-44.39154089094254,-53.63321138577771,113.45225321083194,no_tremor
114,3722058,0.702,-0.4480199073933147,-0.25729264149721337,0.7453410707792406,-43.64438190875063,-53.72906295747059,113.12803429001593,no_tremor
115,3722062,0.706,-0.4600252294962186,-0.2521836564293137,0.7415936576590685,-42.8559341034197,-53.748751052897354,112.66253337987418,no_tremor
116,3722067,0.711,-0.47181414917702263,-0.2474937926160724,0.7378793123788329,-42.02880394974027,-53.69106607383303,112.05824550576129,no_tremor
117,3722094,0.738,-0.4833582304488133,-0.2432279093932435,0.7342092740758691,-41.165630159529215,-53.55505598893328,111.318000305916,no_tremor
118,3722099,0.743,-0.4946311447448245,-0.23938855577572388,0.7305944525344406,-40.26907325248644,-53.340040417854794,110.44493801211956,no_tremor
119,3722104,0.748,-0.5056087372019002,-0.23597604679129114,0.7270453756215187,-39.34180545991593,-53.04562396678535,109.44248501991483,no_tremor
120,3722109,0.753,-0.5162690742617869,-0.23298855282252984,0.7235721393945753,-38.386501013423924,-52.67170842348351,108.31432929705691,no_tremor
121,3722113,0.757,-0.5265924729136227,-0.23042220000511657,0.7201843613179881,-37.405826874273515,-52.21850339844089,107.06439586265027,no_tremor
122,3722118,0.762,-0.5365615120488041,-0.22827117976328323,0.7168911370212656,-36.40243395708094,-51.686535005889944,105.69682254669584,no_tremor
123,3722123,0.767,-0.546161026568162,-0.22652786565070204,0.7137010010114859,-35.378948894314355,-51.076652208544225,104.21593621262738,no_tremor
124,3722128,0.772,-0.5553780850588406,-0.22518293578877135,0.7106218917121538,-34.33796637634695,-50.39003049655243,102.62622959572008,no_tremor
125,3722133,0.777,-0.5642019520321601,-0.22422549933647518,0.7076611211409737,-33.28204208637518,-49.628172629520655,100.93233887995738,no_tremor
126,3722138,0.782,-0.5726240358744138,-0.22364322557185418,0.7048253494611646,-32.21368623127971,-48.79290623834504,99.13902210720087,no_tremor
127,3722143,0.787,-0.5806378238023848,-0.22342247430387527,0.7021205645480211,-31.13535764980869,-47.886378160038014,97.25113848670355,no_tremor
128,3722147,0.791,-0.5882388052281791,-0.22354842645895,0.6995520666090481,-30.049458460296293,-46.91104546177757,95.27362865012046,no_tremor
129,3722152,0.796,-0.5954243850189027,-0.22400521379671667,0.6971244577875818,-28.95832919399266,-45.86966319505039,93.21149587626738,no_tremor
130,3722157,0.801,-0.6021937881826586,-0.22477604680642566,0.6948416365718819,-27.864244348777515,-44.76526900025193,91.06978828995106,no_tremor
131,3722162,0.806,-0.6085479575222476,-0.22584333992184727,0.6927067967297672,-26.769408291491725,-43.60116475222322,88.85358201978028,no_tremor
132,3722167,0.811,-0.6144894457729836,-0.2271888332736667,0.6907224303983079,-25.675951433935044,-42.38089549772554,86.56796528149148,no_tremor
133,3722172,0.816,-0.6200223036846501,-0.22879371027888382,0.6888903348841351,-24.58592660669632,-41.10822598721912,84.21802333745494,no_tremor
134,3722177,0.821,-0.6251519654259035,-0.23063871045158374,0.6872116226773761,-23.50130555647406,-39.78711514404283,81.80882427124503,no_tremor
135,3722182,0.826,-0.6298851325909229,-0.23270423691223951,0.6856867341548581,-22.423975496871222,-38.421688842332586,79.34540550930325,no_tremor
136,3722187,0.831,-0.6342296579828375,-0.2349704581751909,0.6843154524479006,-21.355735649974143,-37.01621138051868,76.83276102008885,no_tremor
137,3722191,0.835,-0.6381944302463483,-0.23741740390576674,0.6830969199763868,-20.298293726441884,-35.575056040730466,74.27582912520886,no_tremor
138,3722219,0.863,-0.6417892603315447,-0.24002505445751812,0.6820296562013073,-19.253262305612164,-34.102675116244534,71.67948086746463,no_tremor
139,3722229,0.873,-0.6450247706985932,-0.2427734241221877,0.6811115762174468,-18.222155093911393,-32.60356976942678,69.04850889643404,no_tremor
140,3722234,0.878,-0.6479122881215822,-0.24564263814385956,0.6803400098876801,-17.206383057263704,-31.08226005276589,66.38761684807191,no_tremor
141,3722239,0.883,-0.6504637409160721,-0.24861300365560576,0.6797117212989704,-16.207250437265678,-29.543255388504495,63.70140920315943,no_tremor
142,3722243,0.887,-0.6526915613877949,-0.2516650747840173,0.6792229283877571,-15.225950669220742,-27.991025761681065,60.99438160593774,no_tremor
143,3722248,0.892,-0.6546085942631453,-0.25477971223094587,0.6788693226357698,-14.263562224233816,-26.42997384033162,58.27091161226854,no_tremor
144,3722253,0.897,-0.6562280118002687,-0.2579381376847589,0.6786460887803798,-13.321044401169283,-24.864408197640994,55.535249823934045,no_tremor
145,3722258,0.902,-0.657563236183384,-0.26112198344079773,0.6785479245234316,-12.399233099736186,-23.298517775774016,52.79151135805325,no_tremor
146,3722263,0.907,-0.6586278696699699,-0.26431333762814196,0.6785690602651187,-11.498836613188738,-21.736347700925794,50.043667600003566,no_tremor
147,3722268,0.912,-0.6594356327928766,-0.26749478545139976,0.6787032789381664,-10.62043148707404,-20.181776534066397,47.29553819503754,no_tremor
148,3722283,0.927,-0.6600003107225766,-0.2706494468642214,0.6789439360728136,-9.76445849861587,-18.63849502236217,44.55078324838293,no_tremor
149,3722288,0.932,-0.6603357076766302,-0.2737610110955929,0.6792839802825631,-8.931218819740444,-17.10998640352968,41.81289572546851,no_tremor
150,3722293,0.937,-0.6604556090356161,-0.2768137684487071,0.6797159744197128,-8.120870435208273,-15.59950831048707,39.0851940698539,no_tremor
151,3722297,0.941,-0.6603737506025467,-0.2797926397817715,0.6802321177020572,-7.333424894987238,-14.110076326385782,36.37081508157847,no_tremor
152,3722307,0.951,-0.6601037942422989,-0.28268320405659975,0.6808242691520666,-6.568744486007914,-12.644449249189668,33.672707119897744,no_tremor
153,3722312,0.956,-0.6596593089716201,-0.28547172430147155,0.6814839727137525,-5.826539912441727,-11.205116139179227,30.99362371243261,no_tremor
154,3722317,0.961,-0.6590537564467093,-0.288145172279073,0.6822024844193213,-5.10636857560768,-9.794285240760448,28.336117670132857,no_tremor
155,3722343,0.987,-0.6583004797179954,-0.2906912520803737,0.6829708019682196,-4.407633544456654,-8.413874889159468,25.70253582541647,no_tremor
156,3722347,0.991,-0.6574126940905041,-0.2930984227855901,0.6837796970565153,-3.7295833054671097,-7.065506527954623,23.09501452762588,no_tremor
157,3722352,0.996,-0.656403478939075,-0.29535592025121515,0.6846197507560988,-3.0713123771490647,-5.75049996700345,20.515476039969293,no_tremor
158,3722357,1.001,-0.6552857693741277,-0.2974537780068988,0.6854813921922229,-2.431762868992111,-4.469870994061207,17.965625978147727,no_tremor
159,3722362,1.006,-0.6540723467295448,-0.2993828471860428,0.6863549407058319,-1.8097270565191839,-3.2243314154513185,15.446951910193926,no_tremor
160,3722367,1.011,-0.6527758269455234,-0.30113481537259884,0.6872306516157614,-1.2038510322838114,-2.0142915490736946,12.960723205010183,no_tremor
161,3722372,1.016,-0.6514086460436863,-0.30270222422155013,0.6880987656174518,-0.6126394774856216,-0.8398651381856852,10.507992182541203,no_tremor
162,3722376,1.02,-0.6499830420375959,-0.3040784856971966,0.6889495617716137,-0.03446158160261712,0.29912339525738146,8.089596587320694,no_tremor
163,3722381,1.025,-0.6485110327867089,-0.3052578967670784,0.6897734139503521,0.5324418804737421,1.4031294800873588,5.7061633810039325,no_tremor
164,3722391,1.035,-0.6470043894819674,-0.30623565238661477,0.6905608505212866,1.0899503217041866,2.4728768626115154,3.358113828369177,no_tremor
165,3722396,1.04,-0.6454746056411624,-0.3070078566079021,0.6913026169637017,1.6400539908111775,3.509344188282568,1.0456698345341662,no_tremor
166,3722401,1.045,-0.6439328616844787,-0.30757153164447343,0.6919897410262997,2.184843534376758,4.513749892004674,-1.2311385226217872,no_tremor
167,3722406,1.05,-0.642389985346234,-0.307924624722353,0.692613599955559,2.726498527019576,5.487535599529968,-3.472464333369193,no_tremor
168,3722410,1.054,-0.6408564083483869,-0.3080660125476361,0.693165989248992,3.267275036530336,6.432348243893966,-5.6786341504811535,no_tremor
169,3722415,1.059,-0.6393421199067381,-0.30799550322382696,0.6936391923205713,3.8094923015521007,7.350021095050321,-7.85013732585488,no_tremor
170,3722420,1.064,-0.6378566177555298,-0.3077138354600343,0.6940260504077093,4.355518607144253,8.24255388834929,-9.98761448192732,no_tremor
171,3722425,1.069,-0.6364088574560574,-0.30722267492517813,0.6943200320015606,4.907756448618411,9.112092219041742,-12.091845208481354,no_tremor
172,3722430,1.074,-0.6350072007981744,-0.306524607624051,0.6945153010459298,5.468627077242512,9.960906347150127,-14.163735068692947,no_tremor
173,3722435,1.079,-0.633659364111298,-0.3056231301978557,0.6946067831253931,6.04055452345815,10.791369532888712,-16.204301987995763,no_tremor
174,3722440,1.084,-0.6323723672773637,-0.3045226370832867,0.6945902288508304,6.625949194363249,11.605936001000709,-18.214662086737622,no_tremor
175,3722465,1.109,-0.6311524841880726,-0.30322840449820165,0.6944622736505486,7.227191142414259,12.407118615444968,-20.196015003595058,no_tremor
176,3722470,1.114,-0.6300051953209491,-0.30174657125537874,0.6942204931872215,7.846613101921376,13.197466334776994,-22.149628742821623,no_tremor
177,3722475,1.119,-0.6289351430340493,-0.30008411643413063,0.6938634536441818,8.486483389906128,13.979541513768229,-24.076824068433435,no_tremor
178,3722480,1.124,-0.6279460901097847,-0.2982488339569927,0.6933907561579575,9.148988769491893,14.755897118929896,-25.97895846773517,no_tremor
179,3722485,1.129,-0.6270408820239232,-0.296249304121424,0.6928030747159135,9.83621737745902,15.52905393474257,-27.857409717776356,no_tremor
180,3722490,1.134,-0.6262214133797047,-0.2940948621253137,0.6921021868871865,10.550141821658721,16.301477852024817,-29.713559108581162,no_tremor
181,3722495,1.139,-0.62548859892629,-0.2917955636054972,0.6912909968109646,11.292602557233415,17.07555734731759,-31.548774400919132,no_tremor
182,3722500,1.144,-0.6248423495696692,-0.28936214718760833,0.6903735499282591,12.065291652933608,17.853581280025292,-33.36439262031238,no_tremor
183,3722505,1.149,-0.6242815537771543,-0.2868059940298038,0.6893550390116354,12.86973706096136,18.637717150668767,-35.1617028116983,no_tremor
184,3722509,1.153,-0.6238040647692764,-0.28413908433691526,0.6882418011219431,13.707287505966908,19.429989977292326,-36.941928900110526,no_tremor
185,3722514,1.158,-0.6234066938819731,-0.28137395082848854,0.6870413052017813,14.579098110836137,20.23226195619715,-38.706212820662884,no_tremor
186,3722519,1.163,-0.6230852104647228,-0.278523629165482,0.6857621301019139,15.486116878476116,21.0462130772632,-40.455598094270364,no_tremor
187,3722529,1.173,-0.622834348654557,-0.2756016053763584,0.6844139329285107,16.429072149385533,21.873322864073092,-42.19101403261256,no_tremor
188,3722534,1.178,-0.622647821329863,-0.27262176037307717,0.6830074076951351,17.40846115325003,22.714853406125226,-43.913260756747675,no_tremor
189,3722544,1.188,-0.6225183414998819,-0.2695983117093869,0.6815542343626557,18.424539768018896,23.571833845579047,-45.62299520949969,no_tremor
190,3722548,1.192,-0.6224376513241027,-0.2665457528053044,0.6800670184511823,19.477313591531768,24.445046475004116,-47.32071833325891,no_tremor
191,3722553,1.197,-0.6223965588789981,-0.2634787899395515,0.6785592215088961,20.56653041910448,25.335014595955336,-49.0067635721481,no_tremor
192,3722558,1.202,-0.6223849826977581,-0.26041227739246664,0.6770450828215956,21.691674206128873,26.241992280494227,-50.68128683970791,no_tremor
193,3722563,1.207,-0.6223920040036586,-0.2573611512022456,0.675539532842863,22.85196057810475,27.165956167969895,-52.34425806957398,no_tremor
194,3722590,1.234,-0.6224059264430215,-0.2543403620744558,0.6740580989177193,24.046333931753875,28.10659941637295,-53.99545443740123,no_tremor
195,3722595,1.239,-0.6224143430042783,-0.2513648080545218,0.6726168039622423,25.273466150679237,29.06332791075214,-55.63445530968999,no_tremor
196,3722600,1.244,-0.6224042096920337,-0.2484492676266747,0.6712320588461272,26.531756940073805,30.035258810819837,-57.26063894337727,no_tremor
197,3722605,1.249,-0.6223619254171305,-0.2456083339272553,0.6699205493006333,27.81933577136624,31.02122149727453,-58.873180933934684,no_tremor
198,3722610,1.254,-0.6222734174726704,-0.24285635074345072,0.6686991182364951,29.134065421909092,32.019760952915526,-60.47105439188555,no_tremor
199,3722614,1.258,-0.622124231895258,-0.24020735090843828,0.6675846444030752,30.47354709550245,33.02914359068346,-62.05303181699779,no_tremor
200,3722619,1.263,-0.6218996279598977,-0.23767499760914032,0.6665939183520541,31.835127112894636,34.047365515949906,-63.61768863276144,no_tremor
201,3722624,1.268,-0.6215846760232905,-0.23527252900695467,0.665743516688245,33.21590516407203,35.07216318442687,-65.16340833837022,no_tremor
202,3722629,1.273,-0.6211643579108558,-0.23301270644824876,0.665049675598407,34.61274411461638,36.1010263898852,-66.68838922972218,no_tremor
203,3722634,1.278,-0.6206236690351944,-0.23090776642149075,0.6645281646474732,36.02228135642336,37.131213487365976,-68.19065263416385,no_tremor
204,3722639,1.283,-0.6199477214359481,-0.22896937631098324,0.6641941618215638,37.44094168848059,38.15976872796038,-69.6680525953859,no_tremor
205,3722644,1.288,-0.6191218469415213,-0.22720859391029097,0.6640621307796299,38.864951705549906,39.18354155159606,-71.11828693457267,no_tremor
206,3722649,1.293,-0.6181316996706825,-0.22563583059609954,0.6641457012515309,40.290355660737895,40.19920765677889,-72.53890960114099,no_tremor
207,3722658,1.302,-0.6169633571158527,-0.22426081802735287,0.6644575534903466,41.71303275165022,41.203291643716426,-73.92734421113907,no_tremor
208,3722668,1.312,-0.6156034190795517,-0.22309257822435208,0.6650093076510571,43.12871575917952,42.19219101218953,-75.28089865440133,no_tremor
209,3722673,1.317,-0.6140391037711517,-0.22213939689394122,0.6658114189264356,44.533010944179466,43.16220128960546,-76.5967806346689,no_tremor
210,3722678,1.322,-0.6122583404133578,-0.22140879989169623,0.6668730792243077,45.921419083351715,44.10954206865716,-77.87211399276494,no_tremor
211,3722683,1.327,-0.6102498577577256,-0.22090753273848973,0.6682021261187596,47.28935750538116,45.030383747425944,-79.10395565390866,no_tremor
212,3722688,1.332,-0.6080032679673618,-0.2206415431247057,0.6698049597523572,48.632182973659546,45.920874785360546,-80.28931303669245,no_tremor
213,3722715,1.359,-0.6055091453939897,-0.22061596633139513,0.6716864683081429,49.945215252091664,46.77716931265558,-81.4251617614047,no_tremor
214,3722720,1.364,-0.6027590998557355,-0.22083511346973114,0.67384996261071,51.22376118416919,47.59545495307516,-82.50846349782654,no_tremor
215,3722724,1.368,-0.5997458441078513,-0.22130246239109447,0.6762971203578363,52.463139113419274,48.37198073448051,-83.53618379854197,no_tremor
216,3722730,1.374,-0.5964632552832763,-0.22202065106035493,0.6790279404320335,53.65870347774263,49.103084960245724,-84.50530977613971,no_tremor
217,3722734,1.378,-0.5929064301536163,-0.22299147312955475,0.6820407076980913,54.805869421654705,49.78522289488663,-85.4128675025611,no_tremor
218,3722739,1.383,-0.5890717341161681,-0.22421587541284488,0.6853319686580318,55.900137286159165,50.41499408084038,-86.25593903351061,no_tremor
219,3722744,1.388,-0.5849568438454633,-0.2256939569562101,0.6888965183049006,56.93711685144723,50.9891690565324,-87.03167898577567,no_tremor
220,3722749,1.393,-0.5805607835581024,-0.2274249694216619,0.692727398485966,57.91255121965805,51.50471519540616,-87.73733061720247,no_tremor
221,3722754,1.398,-0.5758839548292497,-0.22940731856442934,0.6968159080489025,58.822340232402276,51.95882133796099,-88.37024137647569,no_tremor
222,3722758,1.402,-0.5709281598718209,-0.23163856666825916,0.7011516249971921,59.66256332056975,52.34892085097488,-88.92787790221634,no_tremor
223,3722763,1.407,-0.5656966181502986,-0.23411543591036307,0.7057224408203792,60.42950168243091,52.6727127272302,-89.40784045817355,no_tremor
224,3722768,1.412,-0.560193976156501,-0.23683381274431894,0.7105146070894458,61.11965968100153,52.92818034105638,-89.8078767938548,no_tremor
225,3722773,1.417,-0.5544263101314285,-0.23978875350610773,0.7155127943173931,61.72978534449515,53.113607502218535,-90.12589541859622,no_tremor
226,3722778,1.422,-0.5484011214829276,-0.24297449155509387,0.7207001629816594,62.25688984616121,53.2275915016409,-90.35997827259907,no_tremor
227,3722783,1.427,-0.5421273246307758,-0.24638444634814372,0.7260584464913638,62.69826583343775,53.269052913594024,-90.50839277136787,no_tremor
228,3722788,1.432,-0.5356152270158363,-0.2500112349022764,0.7315680457624893,63.05150447222972,53.23724200631035,-90.56960319074366,no_tremor
229,3722792,1.436,-0.5288765010440112,-0.2538466861224116,0.7372081349419378,63.31451107084225,53.131741712097586,-90.54228134934655,no_tremor
230,3722797,1.441,-0.5219241478030299,-0.25788185845223427,0.7429567777002493,63.48551914984376,52.952467212844574,-90.42531653564863,no_tremor
231,3722802,1.446,-0.5147724524927951,-0.26210706124769684,0.7487910533953924,63.56310282917412,52.69966229867752,-90.21782462039694,no_tremor
232,3722807,1.451,-0.507436931648109,-0.2665118801770002,0.7546871922984595,63.546187412959334,52.37389274561158,-89.91915629332897,no_tremor
233,3722839,1.483,-0.49993427240327126,-0.27108520682356835,0.7606207189674615,63.43405806677305,51.97603702205495,-89.52890436643551,no_tremor
234,3722844,1.488,-0.4922822642413979,-0.27581527251964394,0.7665666027577502,63.2263665015679,51.50727466681023,-89.04691009359873,no_tremor
235,3722854,1.498,-0.4844997238623827,-0.2806896862859315,0.7724994143659818,62.92313560138536,50.969072679479034,-88.47326846655243,no_tremor
236,3722859,1.503,-0.4766064139514194,-0.2856954766231692,0.7783934872175098,62.524761954916826,50.363170230628576,-87.80833245761016,no_tremor
237,3722868,1.512,-0.4686229566958401,-0.29081913681803645,0.7842230824231434,62.03201627058011,49.69156194728101,-87.05271618851894,no_tremor
238,3722873,1.517,-0.4605707428686244,-0.2960466733965972,0.7899625559500814,61.44604166882592,48.95647998202234,-86.20729701083455,no_tremor
239,3722878,1.522,-0.4524718371916269,-0.30136365737457216,0.795586526576152,60.768349853888125,48.16037505102689,-85.27321648586307,no_tremor
240,3722888,1.532,-0.44434888054780736,-0.30675527799773505,0.801070043132373,60.000815172394944,47.30589663337033,-84.2518802516809,no_tremor
241,3722893,1.537,-0.43622498946739974,-0.31220639872061384,0.8063887494944996,59.1456665715388,46.39587255347329,-83.14495676175733,no_tremor
242,3722898,1.542,-0.42812365319665086,-0.317701615224345,0.8115190457682524,58.20547747747794,45.433288205909086,-81.95437487511931,no_tremor
243,3722902,1.546,-0.4200686285861756,-0.3232253153160775,0.8164382441328196,57.1831536263492,44.42126571223467,-80.68232027288063,no_tremor
244,3722907,1.551,-0.41208383301440993,-0.32876174057746893,0.8211247178672549,56.081918895738106,43.3630433125664,-79.33123067210592,no_tremor
245,3722912,1.556,-0.40419323558610487,-0.334295049636018,0.8255580421828729,54.90529920331827,42.26195528630067,-77.90378980754487,no_tremor
246,3722917,1.561,-0.3964207469060861,-0.3398093829198728,0.8297191256143491,53.65710456089132,41.121412666899175,-76.40292015591146,no_tremor
247,3722922,1.566,-0.38879010781133033,-0.3452889287257989,0.8335903308729152,52.341409395089116,39.94488496702474,-74.83177438586337,no_tremor
248,3722927,1.571,-0.3813247775356814,-0.35071799038434087,0.8371555842268333,50.96253126907988,38.73588306637274,-73.19372552913114,no_tremor
249,3722932,1.576,-0.37404782186738,-0.35608105425061554,0.840400472638387,49.525008161066566,37.49794334142445,-71.49235588438535,no_tremor
250,3722937,1.581,-0.3669818019274791,-0.3613628581896119,0.8433123280454584,48.03357447384802,36.234613041284135,-69.73144468544291,no_tremor
251,3722964,1.608,-0.3601486642379689,-0.3665484601675132,0.8458802983235171,46.4931359649668,34.94943684387788,-67.9149545882111,no_tremor
252,3722969,1.613,-0.3535696327580723,-0.37162330651114167,0.8480954045965211,44.908743799119755,33.645944469519996,-66.04701705341114,no_tremor
253,3722973,1.617,-0.34726510354709744,-0.37657329936183476,0.8499505846810389,43.2855679321569,32.32763919235685,-64.13191671994753,no_tremor
254,3722978,1.622,-0.34125454266843386,-0.3813848628331711,0.8514407225474254,41.62887003645398,30.997987080815026,-62.174074872375144,no_tremor
255,3722983,1.627,-0.3355563878920724,-0.38604500738557096,0.8525626637679827,39.94397617034874,29.66040681563843,-60.178032104596106,no_tremor
256,3722988,1.632,-0.3301879546959936,-0.3905413919498917,0.853315216999137,38.236249383455025,28.318259970373067,-58.14843027479339,no_tremor
257,3722993,1.637,-0.32516534702346556,-0.3948623833569044,0.8536991416177988,36.51106243950749,26.974841683471162,-56.08999383906612,no_tremor
258,3722997,1.641,-0.3205033732334269,-0.3989971126504893,0.8537171217060221,34.77377083030187,25.633371695409174,-54.007510646447884,no_tremor
259,3723002,1.646,-0.31621546768878184,-0.4029355278739335,0.8533737266567426,33.02968624702612,24.29698576339111,-51.90581227713261,no_tremor
260,3723007,1.651,-0.3123136184614324,-0.40666844291964727,0.852675358759507,31.284050667663898,22.968727496460904,-49.7897540093734,no_tremor
261,3723012,1.656,-0.308808301687836,-0.41018758202523625,0.8516301882201145,29.542011211419492,21.651540671904254,-47.664194508612795,no_tremor
262,3723022,1.666,-0.305708423175937,-0.41348561948814133,0.8502480761719765,27.808595904414187,20.348262098055514,-45.53397534408599,no_tremor
263,3723027,1.671,-0.3030212679311158,-0.4165562141639021,0.8485404863481198,26.08869049615485,19.06161507909617,-43.403900452219546,no_tremor
264,3723032,1.676,-0.3007524583193972,-0.4193940383172743,0.846520386197679,24.38701646324642,17.794203514796468,-41.27871568113594,no_tremor
265,3723041,1.685,-0.2989059216031336,-0.4219948004178829,0.8442021383444713,22.708110334272305,16.548506633816963,-39.16308856444337,no_tremor
266,3723046,1.69,-0.2974838675534602,-0.4243552615170412,0.8416013833922888,21.056304466231126,15.32687431747897,-37.061588483383865,no_tremor
267,3723051,1.695,-0.29648677675802215,-0.4264732449102113,0.8387349151767706,19.435709396969305,14.131522930539598,-34.97866738342708,no_tremor
268,3723056,1.7,-0.29591340010283623,-0.42834763887734595,0.8356205496430762,17.850197888366885,12.964531547427441,-32.91864121449675,no_tremor
269,3723060,1.704,-0.295760769721381,-0.4299783923958521,0.8322769885895445,16.3033907613224,11.827838455398883,-30.885672263921023,no_tremor
270,3723087,1.731,-0.2960242214854428,-0.43136650383172465,0.8287236795597419,14.798644607283082,10.723237833854915,-28.883752549211348,no_tremor
271,3723097,1.741,-0.29669742887949613,-0.4325140027263082,0.8249806731902725,13.339041444075539,9.652376549637518,-26.916688434242936,no_tremor
272,3723102,1.746,-0.29777244787729096,-0.4334239249013476,0.8210684793308825,11.927380366282188,8.616751063756125,-24.988086624722232,no_tremor
273,3723107,1.751,-0.2992397722518787,-0.43410028119565114,0.8170079232463274,10.566171220609569,7.617704503111071,-23.10134168228747,no_tremor
274,3723112,1.756,-0.30108839861805553,-0.43454802021698496,0.8128200031844125,9.257630313064288,6.656423998459486,-21.259625168816854,no_tremor
275,3723117,1.761,-0.30330590043305095,-0.4347729855411698,0.8085257505509853,8.003678127874966,5.733938419607652,-19.46587649640413,no_tremor
276,3723121,1.765,-0.3058785101555958,-0.4347818678196419,0.8041460938723366,6.805939010315169,4.851116649943439,-17.72279551960939,no_tremor
277,3723126,1.77,-0.3087912087667424,-0.4345821522721961,0.7997017276515899,5.665742739542593,4.008666537753067,-16.032836869072177,no_tremor
278,3723131,1.775,-0.3120278218708824,-0.4341820620485394,0.7952129871408563,4.5841278954419264,3.2071346445617848,-14.398205991317072,no_tremor
279,3723136,1.78,-0.31557112160977757,-0.43359049794504423,0.7906997299566657,3.5618469066256373,2.4469068844790978,-12.820856830134938,no_tremor
280,3723141,1.785,-0.3194029336280407,-0.43281697496494587,0.7861812253630784,2.599372655529464,1.7282101172918813,-11.30249106193479,no_tremor
281,3723145,1.789,-0.3235042483211935,-0.4318715562133505,0.7816760519352497,1.69690651030991,1.0511147256222197,-9.844558781994015,no_tremor
282,3723150,1.794,-0.3278553355762625,-0.43076478462390255,0.7772020041969435,0.8543876509856748,0.4155381751621443,-8.44826053061781,no_tremor
283,3723155,1.799,-0.33243586218150956,-0.42950761302194795,0.7727760087007209,0.07150355798717614,-0.1787504721705413,-7.114550546772846,no_tremor
284,3723160,1.804,-0.3372250110395123,-0.428111333038931,0.7684140498926874,-0.6522984659101801,-0.7321251482997465,-5.84414113985002,no_tremor
285,3723165,1.809,-0.3422016012699237,-0.4265875034035304,0.7641311059789073,-1.3177988652682553,-1.2450965494601187,-4.637508075741654,no_tremor
286,3723179,1.823,-0.34734420823818346,-0.42494787814536605,0.7599410948921452,-1.9259926136695216,-1.718305178338035,-3.4948968798395947,no_tremor
287,3723209,1.853,-0.35263128249830045,-0.42320433525539647,0.7558568303495025,-2.4780753228313124,-2.152513754827145,-2.416329966114379,no_tremor
288,3723214,1.858,-0.3580412665996384,-0.42136880635099205,0.7518899878970257,-2.975428789593122,-2.5485990894574697,-1.4016145078105364,no_tremor
289,3723218,1.862,-0.36355270869456574,-0.41945320788963225,0.7480510807577158,-3.4196060868786406,-2.9075435049262794,-0.45035097099115856,no_tremor
290,3723223,1.867,-0.3691443719147577,-0.41746937445965615,0.7443494452328707,-3.8123163015213217,-3.230425882712988,0.4380577634595452,no_tremor
291,3723228,1.872,-0.3747953385701498,-0.41542899464789973,0.7407932353492601,-4.155409019495235,-3.518412408728065,1.2643967606752193,no_tremor
292,3723233,1.877,-0.3804851083607471,-0.4133435499436941,0.7373894263917772,-4.45085865694242,-3.772747094642056,2.0296289441357196,no_tremor
293,3723238,1.882,-0.38619368995880826,-0.4112242570895794,0.7341438269098374,-4.700748732844344,-3.994742156395119,2.7348846252566346,no_tremor
294,3723243,1.887,-0.39190168549537835,-0.40908201423412144,0.7310610987345442,-4.90725617589106,-4.185768335349281,3.381450712967696,no_tremor
295,3723247,1.891,-0.3975903676532299,-0.40692735118363754,0.7281447844925767,-5.07263575415646,-4.347245249895277,3.9707596631558384,no_tremor
296,3723252,1.896,-0.40324174921677197,-0.4047703839892574,0.7253973420527567,-5.1992047122197445,-4.480631866024897,4.504378225361689,no_tremor
297,3723257,1.901,-0.40883864505258877,-0.4026207740452998,0.7228201852938059,-5.289327696976339,-4.587417173484834,4.983996041697091,no_tremor
298,3723262,1.906,-0.4143647265902844,-0.40048769181620775,0.7204137305387799,-5.345402050419129,-4.669111148257568,5.411414149783324,no_tremor
299,3723267,1.911,-0.4198045689435433,-0.398379785254058,0.7181774479652512,-5.369843544259232,-4.727236071830955,5.788533436891323,no_tremor
300,3723272,1.916,-0.4251436908591877,-0.39630515291863755,0.7161099172727498,-5.365072626594633,-4.763318264053556,6.117343086672081,no_tremor
301,3723277,1.921,-0.4303685877124508,-0.39427132176858154,0.7142088868723658,-5.333501245188555,-4.778880271359124,6.399909054148909,no_tremor
302,3723281,1.925,-0.43546675778545696,-0.3922852295558172,0.7124713358593623,-5.2775203064754646,-4.775433538176839,6.638362600332581,no_tremor
303,3723286,1.93,-0.44042672207854044,-0.39035321172659815,0.710893538039058,-5.199487824837881,-4.754471578377878,6.834888915609881,no_tremor
304,3723291,1.935,-0.4452380379146759,-0.3884809927101617,0.7094711272992266,-5.101717812287507,-4.7174636559640675,6.991715860923761,no_tremor
305,3723296,1.94,-0.44989130660823845,-0.3866736814593997,0.7081991636580783,-4.986469953398144,-4.665848978291205,7.111102857128328,no_tremor
306,3723301,1.945,-0.4543781754812911,-0.38493577109548954,0.7070721993640829,-4.855940104073152,-4.601031399228931,7.195329954905863,no_tremor
307,3723306,1.95,-0.458691334523229,-0.3832711424986365,0.7060843444802986,-4.712251646074304,-4.524374623948496,7.246687119573116,no_tremor
308,3723330,1.974,-0.46282450800168745,-0.3816830716784279,0.7052293314487045,-4.557447722585198,-4.43719790305548,7.267463766661788,no_tremor
309,3723335,1.979,-0.4667724413424987,-0.38017424074827855,0.7045005781957837,-4.39348437343654,-4.340772202453199,7.25993858530817,no_tremor
310,3723340,1.984,-0.47053088360271095,-0.3787467523173035,0.7038912494048988,-4.222224581656284,-4.2363168361162895,7.226369687379208,no_tremor
311,3723345,1.989,-0.4740965658624172,-0.3774021470979782,0.7033943156391884,-4.045433234989067,-4.124996550874919,7.168985121104043,no_tremor
312,3723350,1.994,-0.4774671758579217,-0.37614142450832877,0.7030026100473126,-3.864772996359683,-4.007919054728327,7.089973788823528,no_tremor
313,3723354,1.998,-0.48064132917009816,-0.3749650660239743,0.7027088824226592,-3.681801066500757,-3.8861329825758855,6.991476809060274,no_tremor
314,3723359,2.003,-0.483618537267438,-0.3738730610102577,0.7025058504164483,-3.497966811840223,-3.7606262945732687,6.875579362974721,no_tremor
315,3723364,2.008,-0.486399172683989,-0.3728649347403619,0.7023862477295694,-3.3146102227353165,-3.632325101528302,6.744303064058211,no_tremor
316,3723369,2.013,-0.48898443158992055,-0.371939778283803,0.7023428691298945,-3.1329611614321347,-3.502092908636867,6.5995988877385825,no_tremor
317,3723374,2.018,-0.49137629398904653,-0.3710962799326453,0.7023686121636039,-2.954139355015259,-3.370730264221514,6.443340694935262,no_tremor
318,3723378,2.022,-0.49357748175553773,-0.3703327578214708,0.7024565154524419,-2.7791550854854465,-3.238974795131268,6.2773193808308685,no_tremor
319,3723383,2.027,-0.4955914147033519,-0.3696471933924993,0.7025997934948648,-2.608910526719871,-3.1075016059912843,6.103237676955027,no_tremor
320,3723388,2.032,-0.4974221648684909,-0.36903726535988546,0.702791867918125,-2.444201676159351,-2.9769240159170365,5.922705630516701,no_tremor
321,3723393,2.037,-0.49907440917750956,-0.3685003838372828,0.7030263951602042,-2.285720827288501,-2.8477946035548483,5.7372367796137205,no_tremor
322,3723398,2.042,-0.5005533806765778,-0.368033724309982,0.703297290594341,-2.1340595273767375,-2.720606529357214,5.548245036931143,no_tremor
323,3723402,2.046,-0.5018648185038803,-0.3676342611565508,0.7035987491433906,-1.9897119640927434,-2.5957951031682756,5.35704228827718,no_tremor
324,3723407,2.051,-0.5030149168034376,-0.3672988004536493,0.703925262464702,-1.8530787249985226,-2.473739565874702,5.164836706055913,no_tremor
325,3723412,2.056,-0.5040102727990046,-0.36702401182980027,0.7042716328167223,-1.7244708755622085,-2.3547650562686253,4.972731772025157,no_tremor
326,3723417,2.061,-0.5048578342703728,-0.36680645916724464,0.7046329837443555,-1.6041143038645715,-2.239144738387152,4.78172599917761,no_tremor
327,3723422,2.066,-0.5055648466986915,-0.36664262998351005,0.7050047677398887,-1.4921542832835069,-2.1271020700875507,4.59271333960363,no_tremor
328,3723426,2.07,-0.5061388003698921,-0.3665289633541391,0.7053827710493465,-1.3886602078801755,-2.0188131994444762,4.4064842631342405,no_tremor
329,3723451,2.095,-0.5065873777439334,-0.3664618762638772,0.7057631158003934,-1.2936304588629068,-1.9144094802069251,4.223727489314004,no_tremor
330,3723456,2.1,-0.5069184014110802,-0.3664377882949224,0.7061422596281998,-1.206997364441597,-1.8139800999627702,4.045032351899869,no_tremor
331,3723461,2.105,-0.5071397829641606,-0.3664531445780218,0.7065169929719552,-1.1286322196805727,-1.7175748148877246,3.870891770304632,no_tremor
332,3723466,2.11,-0.5072594731175423,-0.3665044369467099,0.7068844342099261,-1.058350337334012,-1.6252067838399256,3.7017057965701077,no_tremor
333,3723471,2.115,-0.5072854133994528,-0.3665882232488421,0.7072420227981278,-0.9959161044894059,-1.53685549277411,3.537785700360357,no_tremor
334,3723476,2.12,-0.5072254897342438,-0.3667011447844886,0.7075875105785454,-0.9410480227500184,-1.45246975812608,3.3793585487754645,no_tremor
335,3723480,2.124,-0.5070874882153096,-0.36683994185607943,0.7079189514274378,-0.893423711802654,-1.3719707950642195,3.2265722328207347,no_tremor
336,3723485,2.129,-0.5068790533477522,-0.36700146743541207,0.7082346894215688,-0.8526848578130343,-1.295255333777937,3.07950088840151,no_tremor
337,3723490,2.134,-0.5066076490129982,-0.3671826989721286,0.7085333457087726,-0.8184420892052251,-1.2221987644984431,2.9381506569741513,no_tremor
338,3723495,2.139,-0.5062805223762943,-0.36738074838855034,0.7088138042775416,-0.7902797631678019,-1.15265828909094,2.8024657292341386,no_tremor
339,3723499,2.143,-0.5059046709236443,-0.36759287032520493,0.709075196826876,-0.7677606471353596,-1.0864760530449071,2.672334613939344,no_tremor
340,3723504,2.148,-0.5054868127788551,-0.3678164687189457,0.709316886941205,-0.7504304807266431,-1.0234822269715362,2.5475965728944328,no_tremor
341,3723509,2.153,-0.5050333604155128,-0.36804910181036815,0.7095384537749059,-0.7378224048321533,-0.9634980030321711,2.4280481622118293,no_tremor
342,3723514,2.158,-0.5045503978441882,-0.36828848568862266,0.7097396754462851,-0.729461245282683,-0.906338470692814,2.3134498190697554,no_tremor
343,3723519,2.163,-0.5040436613227576,-0.3685324964892367,0.7099205123317139,-0.7248676387969276,-0.8518153382456093,2.2035324323049443,no_tremor
344,3723524,2.168,-0.5035185236076858,-0.3687791713639763,0.7100810904371899,-0.7235619891205262,-0.7997394711186316,2.0980038347094485,no_tremor
345,3723529,2.173,-0.5029799817361911,-0.3690267083410613,0.7102216850075664,-0.7250682416434137,-0.7499232243981714,1.9965551553296708,no_tremor
346,3723533,2.177,-0.5024326483028179,-0.3692734651894125,0.7103427045139815,-0.7289174649241117,-0.7021825546342905,1.8988669714775754,no_tremor
347,3723543,2.187,-0.5018807461683165,-0.36951795739246357,0.7104446751386777,-0.734651227033193,-0.6563389042286322,1.8046152022083572,no_tremor
348,3723548,2.192,-0.5013281065131437,-0.3697588553261013,0.7105282258544535,-0.741824753767878,-0.6122208596015777,1.7134766873177758,no_tremor
349,3723573,2.217,-0.5007781701219751,-0.3699949807224658,0.7105940741743663,-0.7500098553139657,-0.5696655910850018,1.6251343985287119,no_tremor
350,3723577,2.221,-0.5002339917595668,-0.37022530248793173,0.7106430126269309,-0.7587976081092912,-0.5285200877028617,1.539282232977304,no_tremor
351,3723582,2.226,-0.4996982474731383,-0.37044893193119405,0.7106758959939096,-0.7678007793631029,-0.4886422032331969,1.4556293438496288,no_tremor
352,3723587,2.231,-0.4991732446337646,-0.3706651174476622,0.7106936293328749,-0.7766559830725759,-0.4499015302414942,1.3739039692055028,no_tremor
353,3723592,2.236,-0.49866093451056837,-0.3708732387005071,0.7106971567956881,-0.7850255588613426,-0.412180115695803,1.29385672756212,no_tremor
354,3723597,2.241,-0.4981629271573894,-0.37107280033688955,0.7106874512467294,-0.7925991684887489,-0.3753730265304292,1.215263357310803,no_tremor
355,3723602,2.246,-0.49768050838165384,-0.3712634252793946,0.7106655046802073,-0.7990951087171163,-0.3393887682832123,1.1379268857171976,no_tremor
356,3723606,2.25,-0.49721465855830954,-0.3714448476363742,0.7106323194328702,-0.8042613425477615,-0.30414955611743794,1.0616792214170179,no_tremor
357,3723611,2.255,-0.4967660730467811,-0.37161690527960467,0.7105889001857196,-0.8078762532812106,-0.26959143521681317,0.9863821720428466,no_tremor
358,3723616,2.26,-0.4963351839649385,-0.37177953214240816,0.7105362467449313,-0.8097491275053735,-0.23566424624920485,0.9119278965235876,no_tremor
359,3723621,2.265,-0.4959221830703697,-0.37193275029537004,0.7104753475874253,-0.8097203741249707,-0.20233143135816012,0.8382388100007355,no_tremor
360,3723625,2.269,-0.49552704549541465,-0.37207666185952143,0.7104071741500148,-0.8076614870386573,-0.169569677317088,0.7652669678735523,no_tremor
361,3723630,2.274,-0.4951495540784067,-0.37221144081816226,0.710332675832827,-0.8034747592935496,-0.13736839486551672,0.6929929636206595,no_tremor
362,3723635,2.279,-0.4947893240297056,-0.37233732478850873,0.71025277567822,-0.7970927568721107,-0.10572903615332596,0.6214243823038391,no_tremor
363,3723640,2.284,-0.49444582766801587,-0.3724546068134312,0.7101683666765862,-0.7884775609942578,-0.07466425543284516,0.5505938577776095,no_tremor
364,3723645,2.289,-0.4941184189610637,-0.37256362723218234,0.7100803086412683,-0.7776197889935036,-0.04419692190729456,0.48055678637141075,no_tremor
365,3723650,2.294,-0.4938063576058852,-0.37266476568765794,0.7099894255873067,-0.7645374051760427,-0.014358997704132351,0.41138875308067735,no_tremor
366,3723655,2.299,-0.49350883238862475,-0.37275843332665226,0.7098965035437153,-0.7492743342036194,0.014809702512036093,0.34318272834830105,no_tremor
367,3723660,2.304,-0.49322498357249817,-0.3728450652488305,0.7098022887270174,-0.7318988903940646,0.0432628510929174,0.27604609467245733,no_tremor
368,3723664,2.308,-0.4929539240758284,-0.3729251132595394,0.7097074860052114,-0.7125020373927532,0.07094902479889477,0.21009756249174277,no_tremor
369,3723669,2.313,-0.49269475921988076,-0.37299903898075143,0.7096127575861985,-0.6911954945240565,0.09781317685952223,0.14546403389915094,no_tremor
370,3723694,2.338,-0.4924466048483876,-0.37306730737287824,0.7095187218728958,-0.6681097087808429,0.12379813903504819,0.08227747107357256,no_tremor
371,3723699,2.343,-0.49220860364671215,-0.37313038071740945,0.7094259524383782,-0.643391714113047,0.14884612791363058,0.02067182450070198,no_tremor
372,3723703,2.347,-0.49197993951803776,-0.373188713105911,0.7093349770879022,-0.6172029015242572,0.1729002290879507,-0.039219926127128026,no_tremor
373,3723708,2.352,-0.49175984990633603,-0.3732427454745963,0.7092462769897137,-0.5897167240714424,0.19590583310021092,-0.09726856921439386,no_tremor
374,3723713,2.357,-0.49154763599075363,-0.373292901215455,0.709160285872226,-0.5611163605003836,0.21781199833258502,-0.15335125388882728,no_tremor
375,3723718,2.362,-0.4913426707128987,-0.3733395823851126,0.7090773893005969,-0.5315923606435202,0.23857271813370673,-0.2073538430273251,no_tremor
376,3723727,2.371,-0.49114440463641584,-0.3733831665217968,0.7089979240602371,-0.5013402953817678,0.2581480719196676,-0.25917299962314655,no_tremor
377,3723732,2.376,-0.49095236967599326,-0.3734240040697654,0.7089221776876848,-0.47055843387354945,0.27650524222295875,-0.308717986031411,no_tremor
378,3723737,2.381,-0.49076618076905115,-0.37346241640007966,0.7088503881998738,-0.43944547032553133,0.2936193813591606,-0.35591216105317014,no_tremor
379,3723742,2.386,-0.4905855355961857,-0.37349869440743033,0.708782744080313,-0.40819832133379186,0.30947431288282573,-0.400694164605882,no_tremor
380,3723746,2.39,-0.4904102124845892,-0.37353309765540055,0.7087193845843669,-0.377010012921079,0.32406305520849166,-0.44301878417563245,no_tremor
381,3723751,2.395,-0.49024006665135245,-0.37356585403735404,0.7086604004252415,-0.34606767443613873,0.33738815809246236,-0.4828575016196257,no_tremor
382,3723756,2.4,-0.4900750249607591,-0.3735971599170291,0.708605834897331,-0.3155506547359821,0.34946184640805683,-0.5201987235510802,no_tremor
383,3723761,2.405,-0.4899150793819465,-0.3736271807116516,0.7085556854843734,-0.28562877439091594,0.3603059690406091,-0.555047703597194,no_tremor
384,3723766,2.41,-0.4897602793414947,-0.3736560518805855,0.7085099059867012,-0.25646072620689675,0.36995175434834476,-0.5874261699413276,no_tremor
385,3723771,2.415,-0.489610723170676,-0.3736838802837409,0.7084684091852324,-0.22819263585289742,0.3784393787654492,-0.6173716762592394,no_tremor
386,3723775,2.419,-0.4894665488503596,-0.37371074587562564,0.7084310700404318,-0.20095679518834814,0.3858173617463566,-0.6449366982302946,no_tremor
387,3723780,2.424,-0.4893279242589326,-0.37373670370251355,0.7083977294031577,-0.17487058234318706,0.39214180661189313,-0.6701875015945481,no_tremor
388,3723785,2.429,-0.4891950371307891,-0.3737617861712123,0.7083681981920835,-0.15003558339911668,0.3974755111506608,-0.6932028120103356,no_tremor
389,3723790,2.434,-0.48906808493523185,-0.3737860055579169,0.7083422619702452,-0.12653692959132362,0.4018869734837442,-0.7140723223655029,no_tremor
390,3723819,2.463,-0.48894726488778056,-0.3738093567242427,0.708319685832165,-0.10444286092185459,0.40544931805648937,-0.7328950794911225,no_tremor
391,3723824,2.468,-0.48883276430691935,-0.3738318200044679,0.7083002194940434,-0.08380452227527196,0.4082391643058109,-0.749777797897396,no_tremor
392,3723829,2.473,-0.48872475152719,-0.37385336422321325,0.7082836024641744,-0.06465599249511235,0.41033545761795076,-0.7648331505403089,no_tremor
393,3723834,2.478,-0.488623367571346,-0.37387394979657,0.7082695691609352,-0.047014541596509606,0.4118182802471211,-0.77817808365629,no_tremor
394,3723838,2.482,-0.4885287187677063,-0.3738935318628382,0.7082578538430888,-0.030881107158866147,0.4127676601444927,-0.7899321951649823,no_tremor
395,3723843,2.487,-0.4884408704737254,-0.37391206338261956,0.708248195222256,-0.016240978195944562,0.4132623977250936,-0.8002162072058094,no_tremor
396,3723848,2.492,-0.4883598420351714,-0.37392949814307225,0.7082403406396836,-0.0030646733351841634,0.41337893266308134,-0.8091505554033308,no_tremor
397,3723853,2.497,-0.48828560307512703,-0.37394579359848046,0.7082340497076263,0.008691000472491384,0.41319027352804727,-0.8168541106757381,no_tremor
398,3723858,2.502,-0.4882180711710042,-0.37396091347941146,0.7082290973383377,0.01908172297987017,0.4127650126972304,-0.8234430434769892,no_tremor
399,3723863,2.507,-0.4881571109429524,-0.3739748301057687,0.7082252761093242,0.028174284632776013,0.41216644834070376,-0.8290298354068212,no_tremor
400,3723867,2.511,-0.4881025345447781,-0.373987526344814,0.7082223979405539,0.036045076342407736,0.41145183455391315,-0.8337224390582227,no_tremor
401,3723872,2.516,-0.4880541035193575,-0.37399899716325213,0.7082202950861655,0.04277846413295258,0.41067177949238226,-0.8376235832844736,no_tremor
402,3723877,2.521,-0.4880115319544372,-0.37400925073216224,0.7082188204684858,0.04846507081726467,0.4098698092677576,-0.8408302175104769,no_tremor
403,3723882,2.526,-0.4879744908511419,-0.3740183090543874,0.7082178474046432,0.05319999067061766,0.409082112107839,-0.8434330856804969,no_tremor
404,3723887,2.531,-0.48794261359575125,-0.37402620809557974,0.7082172687948713,0.05708096722020319,0.40833747261428527,-0.8455164185074319,no_tremor
