sample,t_ms,t_s,ax,ay,az,gx,gy,gz,tremor
0,5754027,0.0,-0.419493825815173,-0.14020076251095792,-0.9484795851705315,1.3934446855032185,3.1765655441259697,-0.35119631540632174,no_tremor
1,5754031,0.004,-0.4191958451833497,-0.1402244240171934,-0.9483133808235685,1.3403619689003914,3.081272757172955,-0.3588924539959291,no_tremor
2,5754036,0.009,-0.4187754481348905,-0.14025587499755723,-0.9480570088956596,1.2612001732095832,2.978310915538007,-0.356573732304167,no_tremor
3,5754041,0.014,-0.4182175748812289,-0.14029444553855133,-0.9476880173000416,1.1548589107765463,2.8675449886609914,-0.3436392820444341,no_tremor
4,5754045,0.018,-0.41752835863925725,-0.14033732500712828,-0.9471969718551634,1.0204105043246006,2.748877964716929,-0.3195560463975295,no_tremor
5,5754050,0.023,-0.41672643980396284,-0.14038051805814733,-0.9465853883401775,0.8571215351394215,2.6222555218606463,-0.2838691214380012,no_tremor
6,5754054,0.027,-0.41583410399501053,-0.14041969222243048,-0.945861303300452,0.6644742570430393,2.4876710099599153,-0.23621205503153633,no_tremor
7,5754080,0.053,-0.41487221259032847,-0.14045061735980388,-0.945035778276514,0.44218768559608823,2.3451707254633227,-0.17631701013192927,no_tremor
8,5754085,0.058,-0.41385837842639406,-0.1404692956646935,-0.9441209694195586,0.19023816511558003,2.1948594453845427,-0.10402469724431224,no_tremor
9,5754090,0.063,-0.4128069331738251,-0.14047193811252862,-0.9431293708217595,-0.09112078939379044,2.0369061700517643,-0.019293978997568368,no_tremor
10,5754095,0.068,-0.4117295906323416,-0.14045489283476628,-0.9420736996304753,-0.4013395834601022,1.8715500108420289,0.07778895099913645,no_tremor
11,5754099,0.072,-0.41063623032055935,-0.14041457597956575,-0.9409670497237008,-0.739554781187957,1.699106150056586,0.1870019118596984,no_tremor
12,5754104,0.077,-0.40953557267450696,-0.14034742234335845,-0.9398231127101975,-1.104572709309039,1.5199717944750455,0.30797869577596865,no_tremor
13,5754138,0.111,-0.4084356901580715,-0.14024985782871602,-0.938656377023355,-1.4948546501769406,1.3346320393937556,0.44020173518757366,no_tremor
14,5754143,0.116,-0.40734436734994883,-0.14011829047135285,-0.9374822745705258,-1.908503847010621,1.1436655539131997,0.5829955623264387,no_tremor
15,5754147,0.12,-0.4062693422189926,-0.13994911581719593,-0.9363172706875502,-2.343254540994021,0.947749990665777,0.7355211413142533,no_tremor
16,5754152,0.125,-0.4052184603185918,-0.1397387329914437,-0.9351789029202952,-2.7964632524458968,0.7476670157101094,0.8967711465742607,no_tremor
17,5754156,0.129,-0.40419976725684276,-0.13948356868724313,-0.9340857765190984,-3.2651025080140266,0.544306848782683,1.0655662542458324,no_tremor
18,5754187,0.16,-0.4032215579380616,-0.13918010709199422,-0.9330575240233653,-3.745757203272116,0.3386722011731596,1.240552506497938,no_tremor
19,5754191,0.164,-0.40229239542662576,-0.13882492436494542,-0.9321147349697286,-4.234623775198441,0.13188149805959565,1.4201998026771423,no_tremor
20,5754196,0.169,-0.40142110811001364,-0.13841472669347335,-0.9312788603954295,-4.727512341468758,-0.07482872576285819,1.6028015657615342,no_tremor
21,5754221,0.194,-0.40061677091447695,-0.1379463912281215,-0.9305720956970948,-5.21985194304252,-0.28010236288310314,1.7864756270011322,no_tremor
22,5754231,0.204,-0.39988867434289066,-0.13741700936788048,-0.9300172445861997,-5.706699003463889,-0.4824633012893042,1.9691663657127345,no_tremor
23,5754235,0.208,-0.39924628378627286,-0.1368239319686371,-0.9296375663185596,-6.182749093922849,-0.6803161115189982,2.1486481351591897,no_tremor
24,5754260,0.233,-0.3986991907011355,-0.13616481610193037,-0.9294566080096864,-6.642352069154541,-0.8719479296528907,2.322529999589391,no_tremor
25,5754265,0.238,-0.39825705669737876,-0.13543767301400508,-0.9294980236280561,-7.079530616407209,-1.0555316015262237,2.4882618021991667,no_tremor
26,5754270,0.243,-0.3979295512436994,-0.13464091693767502,-0.9297853811416829,-7.488002237031582,-1.22913014340094,2.6431415792017305,no_tremor
27,5754274,0.247,-0.39772628349794364,-0.13377341439951707,-0.9303419592473705,-7.861204656262373,-1.3907025654521565,2.7843243311620642,no_tremor
28,5754294,0.267,-0.3976567286589015,-0.13283453364798187,-0.9311905351126953,-8.192324630943892,-1.5381110952072408,2.9088321586067187,no_tremor
29,5754299,0.272,-0.3977301491814172,-0.1318241938078568,-0.9323531645914497,-8.474330097897694,-1.669129826235392,3.0135657637023616,no_tremor
30,5754304,0.277,-0.39795551118018657,-0.13074291334516147,-0.9338509564233908,-8.70000557832967,-1.781454801355287,3.0953173125848243,no_tremor
31,5754308,0.281,-0.3983413963613746,-0.1295918574045887,-0.9357038419926842,-8.861990726917568,-1.8727155193004916,3.1507846435700286,no_tremor
32,5754313,0.286,-0.3988959098626208,-0.12837288355902743,-0.9379303422927895,-8.952821888284156,-1.940487830489208,3.176586795866693,no_tremor
33,5754328,0.301,-0.39962658444890564,-0.1270885854879421,-0.9405473338254658,-8.964976497964217,-1.982308163536656,3.1692808226786973,no_tremor
34,5754333,0.306,-0.4005402815997096,-0.1257423340796901,-0.9435698152442011,-8.890920138781466,-1.9956890016584437,3.125379842210266,no_tremor
35,5754338,0.311,-0.4016430901250768,-0.12433831543415923,-0.9470106766331587,-8.723156036305884,-1.9781355088720451,3.0413722697217853,no_tremor
36,5754342,0.315,-0.4029402230560161,-0.12288156522867434,-0.9508804733867396,-8.454276749351669,-1.9271631912615486,2.9137421628812095,no_tremor
37,5754347,0.32,-0.4044359136590393,-0.12137799890429869,-0.9551872067169388,-8.07701778447304,-1.8403164692484693,2.7389906013731102,no_tremor
38,5754351,0.324,-0.4061333115175121,-0.11983443713351971,-0.95993611286078,-7.58431283795124,-1.715188032345075,2.513658011260517,no_tremor
39,5754387,0.36,-0.40803437969806616,-0.11825862604542467,-0.9651294630837641,-6.969350345044053,-1.5494388465499402,2.2343473362682356,no_tremor
40,5754392,0.365,-0.41013979407560913,-0.11665925171164865,-0.970766376574346,-6.225630994474579,-1.340818683532717,1.8977479519876173,no_tremor
41,5754406,0.379,-0.4124488459263024,-0.11504594843524778,-0.9768426482983997,-5.347025846968391,-1.0871870360696658,1.500660213483709,no_tremor
42,5754431,0.404,-0.4149593489193788,-0.11342930043333942,-0.9833505938338588,-4.32783468087024,-0.7865342721295933,1.0400205202290675,no_tremor
43,5754441,0.414,-0.4176675516531726,-0.1118208365597015,-0.9902789131385685,-3.1628441751575296,-0.43700286060020543,0.5129267741029528,no_tremor
44,5754445,0.418,-0.4205680568930951,-0.11023301777171608,-0.9976125751236642,-1.847385528518888,-0.036908480636818224,-0.08333590315707663,no_tremor
45,5754455,0.428,-0.42365374867814776,-0.10867921710339351,-1.005332724814839,-0.37739110005528415,0.41523918777849683,-0.7512693364791972,no_tremor
46,5754460,0.433,-0.4269157284609945,-0.10717369196027096,-1.0134166147875303,1.2505503582601643,0.9207161973511374,-1.4931365012109672,no_tremor
47,5754465,0.438,-0.4303432614265748,-0.10573154860238666,-1.0218375624592249,3.0391403233668743,1.4805647882510415,-2.3109359269167906,no_tremor
48,5754469,0.442,-0.4339237340907597,-0.10436869872973611,-1.030564934709891,4.990319437624029,2.0955747458652376,-3.206376472994619,no_tremor
49,5754474,0.447,-0.4376426242129812,-0.10310180813268666,-1.0395641611759647,7.10521923198208,2.7662658239789026,-4.180852655741441,no_tremor
50,5754479,0.452,-0.44148348396764814,-0.10194823741957489,-1.0487967774204927,9.38411711573299,3.492871375429578,-5.2354207126356975,no_tremor
51,5754484,0.457,-0.44542793721280916,-0.10092597488647574,-1.0582204990189725,11.826395116279697,4.275323312627896,-6.370775593534186,no_tremor
52,5754508,0.481,-0.4494556915759093,-0.10005356165088264,-1.067789327415274,14.430502849639417,5.113238502759081,-7.587229069922001,no_tremor
53,5754513,0.486,-0.45354456595094705,-0.09935000923262727,-1.0774536881943704,17.19392519187753,6.0059066879726215,-8.88468915227843,no_tremor
54,5754518,0.491,-0.45767053387501994,-0.0988347098328931,-1.087160602189738,20.113155103329742,6.952280010876177,-10.262641002574975,no_tremor
55,5754523,0.496,-0.4618077831315516,-0.09852733963704063,-1.0968538895958269,23.18367203263959,7.950964221965071,-11.720129525162879,no_tremor
56,5754533,0.506,-0.4659287918160223,-0.09844775555017653,-1.106474406991525,26.399926297444793,9.000211648758384,-13.255743815954835,no_tremor
57,5754537,0.51,-0.47000442099551276,-0.09861588586550249,-1.1159603168973624,29.75532980280287,10.097916014654498,-14.867603646715386,no_tremor
58,5754542,0.515,-0.4740040239883724,-0.09905161546199483,-1.125247389183488,33.242253416279205,11.241609205998861,-16.55334815712414,no_tremor
59,5754571,0.544,-0.47789557217617196,-0.09977466622567313,-1.1342693333151572,36.85203126957618,12.428460095962135,-18.310126920652515,no_tremor
60,5754576,0.549,-0.4816457971308324,-0.10080447348224535,-1.142958160070904,40.57497220122846,13.65527554133223,-20.134593540651696,no_tremor
61,5754581,0.554,-0.48522034869470354,-0.1021600593121869,-1.1512445710074122,44.40037849591515,14.918503670682336,-22.022901921148783,no_tremor
62,5754586,0.559,-0.4885839684948186,-0.10385990368646267,-1.1590583735932634,48.316572018454934,16.214239576417256,-23.970705344282283,no_tremor
63,5754591,0.564,-0.4917006782106808,-0.10592181440845674,-1.1663289196087252,52.31092778875689,17.538233506326055,-25.973158473931996,no_tremor
64,5754596,0.569,-0.49453398175105306,-0.10836279687540427,-1.1729855641162477,56.36991499686515,18.885901622221937,-28.024922392077965,no_tremor
65,5754601,0.574,-0.4970470803284933,-0.11119892468418631,-1.178958142038996,60.47914540868485,20.25233935627584,-30.120172759290064,no_tremor
66,5754605,0.578,-0.49920309924800677,-0.11444521210637155,-1.1841774591302643,64.62342905624678,21.632337353180624,-32.25261117272078,no_tremor
67,5754632,0.605,-0.500965325046118,-0.11811548944991603,-1.18857579386512,68.78683703795507,23.020399941875837,-34.415479773831265,no_tremor
68,5754637,0.61,-0.5022974514298562,-0.12222228231296738,-1.1920874065331226,72.95277117590528,24.410766038136504,-36.60157913409761,no_tremor
69,5754642,0.615,-0.5031638322778845,-0.1267766957210486,-1.1946490515612647,77.10404019664549,25.797432344373487,-38.803289422039406,no_tremor
70,5754652,0.625,-0.5035297397904448,-0.13178830412422263,-1.1962004888616404,81.222942029065,27.174178691909106,-41.0125948325424,no_tremor
71,5754656,0.629,-0.5033616257250378,-0.13726504821599905,-1.1966849897954361,85.2913517544709,28.534595366568574,-43.2211112416474,no_tremor
72,5754661,0.634,-0.5026273835411383,-0.14321313951892398,-1.1960498331887641,89.29081469729327,29.872112266329115,-45.420117035266934,no_tremor
73,5754666,0.639,-0.5012966092038931,-0.14963697365965598,-1.1942467867369824,93.20264410449133,31.18002975173693,-47.60058704545797,no_tremor
74,5754671,0.644,-0.4993408583628712,-0.15653905322523667,-1.1912325690984682,97.00802282380076,32.451551059923524,-49.75322951064105,no_tremor
75,5754676,0.649,-0.49673389762353387,-0.1639199210486296,-1.186969288008781,100.68810835431671,33.67981615954646,-51.868525955630304,no_tremor
76,5754681,0.654,-0.4934519476604986,-0.1717781047118591,-1.1814248498417637,104.22414060728997,34.85793692629612,-53.93677386333334,no_tremor
77,5754686,0.659,-0.4894739159771632,-0.1801100729759972,-1.1745733362045438,107.59755167974086,35.97903351510824,-55.948131982479374,no_tremor
78,5754696,0.669,-0.4847816171911911,-0.18891020474630674,-1.166395343377687,110.79007690702761,37.03627179397375,-57.89266808478215,no_tremor
79,5754706,0.679,-0.4793599788165996,-0.19817077105646944,-1.1568782806983036,113.78386642170986,38.02290168501314,-59.760408951190726,no_tremor
80,5754711,0.684,-0.4731972306191124,-0.20788193040804295,-1.1460166243286336,116.56159640666871,38.93229623344202,-61.541392332423996,no_tremor
81,5754715,0.688,-0.466285075742065,-0.21803173763304065,-1.1338121232477052,119.10657919572022,39.757991197764674,-63.22572059722311,no_tremor
82,5754720,0.693,-0.45861884193734415,-0.2286061662650077,-1.1202739547384166,121.40287135030704,40.49372492851876,-64.80361575538925,no_tremor
83,5754725,0.698,-0.4501976113933243,-0.23958914421492736,-1.1054188271069865,123.43537882751936,41.133478280925985,-66.26547552127863,no_tremor
84,5754730,0.703,-0.44102432783454953,-0.250962602359647,-1.0892710278615234,125.18995834955135,41.671514291072754,-67.60193006350734,no_tremor
85,5754762,0.735,-0.4311058797806905,-0.26270653546730954,-1.071862416093154,126.65351408443904,42.10241733731777,-68.80389906460073,no_tremor
86,5754767,0.74,-0.42045315909567066,-0.2747990747119825,-1.0532323583498635,127.81408875323558,42.42113150870356,-69.86264868961334,no_tremor
87,5754772,0.745,-0.40908109422236016,-0.28721657087945923,-1.0334276078657483,128.66094829537127,42.62299790866944,-70.76984803854018,no_tremor
88,5754777,0.75,-0.3970086577626607,-0.2999336872559677,-1.0125021275905026,129.1846592592685,42.70379063247211,-71.51762463871249,no_tremor
89,5754782,0.755,-0.3842588483032842,-0.3129235011359614,-0.9905168580350198,129.37715814234554,42.65975116713829,-72.09861852357552,no_tremor
90,5754792,0.765,-0.3708586465908755,-0.32615761288334927,-0.9675394314960828,129.2318119791439,42.48762097088897,-72.50603444259538,no_tremor
91,5754796,0.769,-0.3568389463267281,-0.3396062615165437,-0.9436438347423864,128.7434695611976,42.18467199361873,-72.7336917509678,no_tremor
92,5754801,0.774,-0.3422344599865858,-0.35323844584328107,-0.9189100227308875,127.90850276257353,41.74873490109791,-72.77607153631428,no_tremor
93,5754806,0.779,-0.32708360017833515,-0.3670220502351354,-0.8934234863664722,126.72483753926139,41.178224763791675,-72.62836055368676,no_tremor
94,5754811,0.784,-0.3114283371332814,-0.3809239741992464,-0.867274777710297,125.19197426866482,40.472163968747275,-72.28649156080543,no_tremor
95,5754816,0.789,-0.2953140329939484,-0.39491026497228976,-0.8405589963843768,123.31099719696606,39.630202113035295,-71.7471796716295,no_tremor
96,5754821,0.794,-0.27878925362754997,-0.4089462524238406,-0.8133752412240451,121.08457286605005,38.65263264134793,-71.00795437597228,no_tremor
97,5754826,0.799,-0.26190555877559335,-0.4229966856071195,-0.7858260315118373,118.51693749721304,37.54040599762341,-70.0671869038975,no_tremor
98,5754835,0.808,-0.24471727145981317,-0.43702587032979545,-0.7580167024001203,115.61387341709477,36.29513906939431,-68.92411264529346,no_tremor
99,5754840,0.813,-0.22728122771053794,-0.4509978071332241,-0.7300547794047487,112.38267472503699,34.919120713394,-67.57884836827037,no_tremor
100,5754845,0.818,-0.20965650786630502,-0.4648763290648685,-0.702049337132574,108.83210252308186,33.41531316204807,-66.03240401699537,no_tremor
101,5754883,0.856,-0.1919041509068703,-0.47862523860751016,-0.6741103476913668,104.972330160404,31.787349123661762,-64.28668891209638,no_tremor
102,5754888,0.861,-0.174086853513555,-0.49220844309487843,-0.6463480245100786,100.81487907831661,30.039524406736525,-62.344512225034165,no_tremor
103,5754893,0.866,-0.15626865578124313,-0.5055900879081213,-0.6188721675326071,96.37254596709965,28.17678592493913,-60.20957765024188,no_tremor
104,5754898,0.871,-0.13851461570823426,-0.5187346867317142,-0.5917915158721936,91.65932204437455,26.204714977273074,-57.88647225310998,no_tremor
105,5754903,0.876,-0.12089047474101933,-0.5316072481712689,-0.565213113963077,86.69030532823527,24.129505747886917,-55.380649527085126,no_tremor
106,5754912,0.885,-0.10346231674778776,-0.5441733981047805,-0.5392416970067384,81.48160681542782,21.957939027677032,-52.69840675017656,no_tremor
107,5754917,0.89,-0.0862962228530551,-0.556399497240779,-0.5139791011210029,76.05025150163009,19.697351220333733,-49.846856791125276,no_tremor
108,5754932,0.905,-0.06945792460559574,-0.5682527534718192,-0.48952370311770954,70.41407520690301,17.35559875602763,-46.83389457776381,no_tremor
109,5754937,0.91,-0.053012457981972655,-0.5797013287229719,-0.46596989430182645,64.59161819484777,14.941018097070588,-43.66815850243844,no_tremor
110,5754942,0.915,-0.03702382074470875,-0.5907144400921771,-0.44340759212880465,58.602016594544295,12.462381583543607,-40.35898709944664,no_tremor
111,5754956,0.929,-0.021554635667048683,-0.6012624551576156,-0.4219217929952083,52.46489264542457,9.928849434212523,-36.916371385903545,no_tremor
112,5754966,0.939,-0.006665822096910096,-0.6113169813855189,-0.4015921688799268,46.20024478451034,7.34991828850827,-33.35090330947304,no_tremor
113,5754971,0.944,0.007583721740308763,-0.6208509496122515,-0.3824927099995158,39.828338582010446,4.735366746042727,-29.67372079219312,no_tremor
114,5754976,0.949,0.021137423403953012,-0.6298386916027777,-0.3646914150828641,33.3695995033172,2.0951984252909686,-25.896449896452097,no_tremor
115,5755003,0.976,0.033941325700932425,-0.6382560117114431,-0.34825003029771207,26.84450843191203,-0.5604168843329015,-22.031144665702232,no_tremor
116,5755008,0.981,0.04594435894324225,-0.6460802526958455,-0.3332238372743891,20.27350083039173,-3.2212033682519476,-18.090225208855085,no_tremor
117,5755013,0.986,0.05709859417974046,-0.6532903557617904,-0.31966149008523576,13.676870345313757,-5.8768400088852015,-14.08641460094125,no_tremor
118,5755017,0.99,0.06735947579658669,-0.6598669149458095,-0.30760490047593875,7.074677569338258,-8.517021474300329,-10.032675157803698,no_tremor
119,5755022,0.995,0.07668603212675756,-0.6657922259696577,-0.29708917013104447,0.48666455699484307,-11.13151849792523,-5.942144607270059,no_tremor
120,5755027,1.0,0.08504106298136463,-0.6710503297259727,-0.2881425683052937,-6.06782444488926,-13.710237224122473,-1.8280726291683371,no_tremor
121,5755032,1.005,0.09239130330237427,-0.6756270505727571,-0.2807865527698297,-12.569915731646429,-16.243277051584034,2.2962418196831536,no_tremor
122,5755037,1.01,0.0987075624251545,-0.6795100296245552,-0.27503583170428625,-19.001272156057723,-18.720986564731213,6.417512035868236,no_tremor
123,5755046,1.019,0.10396483872138092,-0.682688753230293,-0.2708984639035939,-25.344152367625444,-21.134017200112126,10.522523648752788,no_tremor
124,5755051,1.024,0.10814240966394724,-0.6851545768238727,-0.2683759944506701,-31.581463333185948,-23.473374348936776,14.59819298994573,no_tremor
125,5755056,1.029,0.11122389761397036,-0.6869007443268512,-0.26746362282117403,-37.69680629455408,-25.730465647327286,18.63162353484023,no_tremor
126,5755066,1.039,0.11319731187464105,-0.6879224032755741,-0.26815040022452635,-43.67451640056216,-27.8971462516429,22.610160233586875,no_tremor
127,5755071,1.044,0.11405506778500861,-0.6882166158386032,-0.27041945284150226,-49.4996963165808,-29.965760936151554,26.521441580176457,no_tremor
128,5755075,1.048,0.11379398383342582,-0.6877823658818512,-0.27424822749497313,-55.1582441656503,-31.92918288225543,30.353449296855302,no_tremor
129,5755080,1.053,0.11241525794722902,-0.6866205622239805,-0.27960875619605896,-60.636876193558905,-33.78084904999085,34.094555537779534,no_tremor
130,5755085,1.058,0.1099244242537482,-0.6847340381985899,-0.2864679359564462,-65.92314457740224,-35.51479203284238,37.73356754050797,no_tremor
131,5755090,1.063,0.10633129170182908,-0.6821275475996866,-0.2947878202621926,-71.00545081351167,-37.125668298095455,41.2597696748551,no_tremor
132,5755095,1.068,0.10164986598024287,-0.6788077570330148,-0.30452591867620715,-75.87305512453331,-38.608782710451706,44.662962853256815,no_tremor
133,5755099,1.072,0.09589825616997015,-0.674783234630785,-0.3156355011848044,-80.51608231535057,-39.960109229023104,47.93350127312338,no_tremor
134,5755127,1.1,0.08909856752289194,-0.6700644350162397,-0.3280659041334275,-84.92552448359338,-41.176307658402365,51.06232645846989,no_tremor
135,5755132,1.105,0.08127678167126104,-0.6646636803339588,-0.34176283490672804,-89.09324095555964,-42.25473632518786,54.04099855591413,no_tremor
136,5755137,1.11,0.07246262544086177,-0.658595137099439,-0.3566686728914443,-93.01195577955625,-43.19346054685077,56.86172482303087,no_tremor
137,5755141,1.114,0.06268942926683657,-0.6518747885742681,-0.37272276470385524,-96.67525307545691,-43.99125676694008,59.51738523229036,no_tremor
138,5755151,1.124,0.05199397600043506,-0.6445204023462332,-0.3898617121450655,-100.07757051707087,-44.647612253807,62.001555106904725,no_tremor
139,5755165,1.138,0.040416340661575144,-0.6365514927890222,-0.4080196518342931,-103.21419121006431,-45.1627202988155,64.30852470560296,no_tremor
140,5755170,1.143,0.02799972145696357,-0.6279892780923766,-0.42712852592511497,-106.08123421657223,-45.53747090136306,66.43331567776788,no_tremor
141,5755175,1.148,0.014790262168733517,-0.6188566315847962,-0.4471183437012146,-108.67564396483085,-45.77343698889274,68.37169431628494,no_tremor
142,5755180,1.153,0.0008368658431701804,-0.6091780271080947,-0.4679174341604353,-110.99517876671447,-45.872856285858944,70.12018154373514,no_tremor
143,5755185,1.158,-0.013809000412981425,-0.5989794782379348,-0.48945268992854646,-113.0383986450962,-45.838609009173744,71.67605957873575,no_tremor
144,5755190,1.163,-0.02909350978234467,-0.5882884711735658,-0.5116498030077942,-114.8046526426778,-45.674191621756094,73.03737524117606,no_tremor
145,5755195,1.168,-0.04496068948622686,-0.5771338911448815,-0.5344334929761866,-116.2940657428512,-45.38368691517181,74.20293986527676,no_tremor
146,5755200,1.173,-0.061352644130414566,-0.5655459422091204,-0.5577277283297406,-117.50752548362878,-44.97173071320924,75.17232579792639,no_tremor
147,5755205,1.178,-0.07820978874277798,-0.5535560603361291,-0.5814559417202966,-118.44666829333106,-44.443475488144955,75.94585946907996,no_tremor
148,5755209,1.182,-0.09547109146560434,-0.5411968197125181,-0.6055412399043801,-119.11386552878342,-43.804551160754606,76.52461103355542,no_tremor
149,5755214,1.187,-0.11307432571957214,-0.5285018322334165,-0.6299066092997095,-119.51220915971761,-43.061023317683116,76.91038060031939,no_tremor
150,5755219,1.192,-0.13095633151376573,-0.5155056401986325,-0.6544751181535116,-119.64549702054924,-42.219349032388685,77.10568108617726,no_tremor
151,5755252,1.225,-0.14905328544880236,-0.5022436022921316,-0.6791701164561994,-119.51821754307348,-41.28633042806745,77.11371775522892,no_tremor
152,5755256,1.229,-0.1673009788472571,-0.48875177300488604,-0.7039154348650998,-119.13553388764323,-40.26906608726963,76.93836453320587,no_tremor
153,5755261,1.234,-0.18563510332887373,-0.475066775762721,-0.7286355840004243,-118.50326739750541,-39.174900415016815,76.58413721642164,no_tremor
154,5755266,1.239,-0.2039915429943401,-0.46122567013649624,-0.7532559554945619,-117.62788029813356,-38.01137112148118,76.05616372731684,no_tremor
155,5755271,1.244,-0.22230667215592695,-0.44726581362998397,-0.7777030260766093,-116.51645754061623,-36.78615510904461,75.36015160034925,no_tremor
156,5755276,1.249,-0.24051765723689694,-0.43322471865037016,-0.8019045657406185,-115.17668764609182,-35.50701320131296,74.5023529110475,no_tremor
157,5755285,1.258,-0.2585627610598453,-0.4191399053607359,-0.8257898506904893,-113.61684235633649,-34.18173430095746,73.48952688569062,no_tremor
158,5755290,1.263,-0.2763816472874236,-0.40504875118866224,-0.8492898813091968,-111.84575484481408,-32.81807968123891,72.32890044775861,no_tremor
159,5755300,1.273,-0.2939156823201957,-0.39098833781670705,-0.8723376049085503,-109.87279620224929,-31.423728188739844,71.02812696847391,no_tremor
160,5755305,1.278,-0.3111082315656109,-0.3769952965084066,-0.8948681425274898,-107.70784989031237,-30.00622315477191,69.59524349189525,no_tremor
161,5755319,1.292,-0.3279049467423155,-0.36310565263295713,-0.9168190186115135,-105.36128386440606,-28.572921776725398,68.03862670192649,no_tremor
162,5755329,1.302,-0.3442540408334583,-0.34935467025454753,-0.9381303920624616,-102.84392010534123,-27.13094764317223,66.36694789293033,no_tremor
163,5755338,1.311,-0.3601065474786812,-0.33577669766381785,-0.9587452869156173,-100.16700136593538,-25.68714695489493,64.58912720070957,no_tremor
164,5755343,1.316,-0.3754165619806351,-0.322405014763107,-0.9786098207718287,-97.34215502061055,-24.248048865127007,62.71428734745539,no_tremor
165,5755348,1.321,-0.3901414616316112,-0.30927168328202487,-0.9976734290492913,-94.38135398824275,-22.81983025386973,60.75170715156984,no_tremor
166,5755376,1.349,-0.40424210363582747,-0.2964074008956422,-1.015889083066721,-91.29687476820855,-21.408285180288978,58.71077504970607,no_tremor
167,5755381,1.354,-0.41768299940770365,-0.2838413604355832,-1.0332134998760403,-88.10125268247059,-20.01879922185045,56.60094287470315,no_tremor
168,5755385,1.358,-0.43043246439657995,-0.2716011155035618,-1.0496073416120275,-84.80723445537636,-18.65632888641467,54.43168013066713,no_tremor
169,5755390,1.363,-0.44246274280798603,-0.2597124538845136,-1.065035401948046,-81.42772829321906,-17.325386242137537,52.21242900402564,no_tremor
170,5755395,1.368,-0.45375010669179167,-0.2481992801809058,-1.0794667770960302,-77.97575165490755,-16.03002882981839,49.95256034437245,no_tremor
171,5755400,1.373,-0.46427492890480304,-0.2370835090389617,-1.092875018712448,-74.46437694179468,-14.773854806866437,47.66133084105383,no_tremor
172,5755404,1.377,-0.4740217294886609,-0.22638497022222415,-1.1052382660928635,-70.90667538406291,-13.560003138775444,45.34784161212217,no_tremor
173,5755409,1.382,-0.4829791950799354,-0.21612132663017936,-1.1165393551601495,-67.3156594618266,-12.391158519915543,43.02099841148444,no_tremor
174,5755414,1.387,-0.4911401711167868,-0.20630800618162454,-1.126765901968817,-63.704224265818574,-11.269560584470439,40.68947364691473,no_tremor
175,5755419,1.392,-0.49850162683524873,-0.1969581483023359,-1.1359103587452852,-60.08508826939711,-10.197016874346096,38.361670387110934,no_tremor
176,5755429,1.402,-0.5050645933490703,-0.18808256558816613,-1.14397004083903,-56.470734045806665,-9.174918976385543,36.045688523555114,no_tremor
177,5755439,1.412,-0.5108340754534534,-0.17968972106631217,-1.150947123347106,-52.873349516977264,-8.204261233258384,33.749293245851135,no_tremor
178,5755443,1.416,-0.5158189381440669,-0.17178572135045428,-1.1568486065698735,-49.30477035509725,-7.285661470317615,31.47988598736807,no_tremor
179,5755448,1.421,-0.5200317691502719,-0.1643743258731338,-1.161686249837954,-45.77642416674364,-6.419383256105769,29.244477996889252,no_tremor
180,5755453,1.426,-0.5234887190023263,-0.15745697226816885,-1.1654764736055898,-42.299277067297446,-5.605359311543678,27.0496666856965,no_tremor
181,5755463,1.436,-0.5262093202632943,-0.15103281785292993,-1.1682402300301118,-38.88378320693085,-4.843215782609683,24.901614885640505,no_tremor
182,5755468,1.441,-0.528216287563987,-0.14509879701486364,-1.1700028425585094,-35.53983775241789,-4.13229717478928,22.806033134137515,no_tremor
183,5755473,1.446,-0.5295353000180888,-0.1396496941346327,-1.170793815335955,-32.27673377426741,-3.471691799733289,20.76816507959898,no_tremor
184,5755500,1.473,-0.5301947675168237,-0.13467823148023145,-1.1706466135568436,-29.103123442944614,-2.860257595731089,18.792776076745138,no_tremor
185,5755504,1.477,-0.5302255823645466,-0.13017517128756168,-1.169598416212016,-26.026983901116367,-2.2966481539894157,16.884145015239973,no_tremor
186,5755514,1.487,-0.5296608577674289,-0.12612943101465815,-1.1676898430505236,-23.055588143847537,-1.7793387269576164,15.046059396194366,no_tremor
187,5755519,1.492,-0.5285356548562764,-0.12252821053648283,-1.1649646579594752,-20.19548119362833,-1.3066519384614148,13.281813638487899,no_tremor
188,5755524,1.497,-0.526886700207179,-0.11935712985321924,-1.1614694513481014,-17.452461793219907,-0.876782882054387,11.594210561158445,no_tremor
189,5755529,1.502,-0.5247520961764172,-0.11660037572959651,-1.157253304475491,-14.831569758073169,-0.4878232950142646,9.985565952220592,no_tremor
190,5755538,1.511,-0.5221710267204257,-0.1142408555697763,-1.1523674389640102,-12.337079040978134,-0.1377845279689624,8.457716101883172,no_tremor
191,5755543,1.516,-0.5191834616607568,-0.11226035675949816,-1.146864854979482,-9.972496473641156,0.1753809160515679,7.012028151184664,no_tremor
192,5755548,1.521,-0.5158298625298388,-0.11063970967005644,-1.1407999617284081,-7.740566067385074,0.45375943488916565,5.649413085164667,no_tremor
193,5755563,1.536,-0.5121508931705816,-0.10935895251328552,-1.1342282040173264,-5.643278679550348,0.6994580677916468,4.3703411814674995,no_tremor
194,5755567,1.54,-0.5081871381583074,-0.10839749626070391,-1.1272056886359134,-3.681886784472616,0.9145879556155913,3.1748597097269102,no_tremor
195,5755572,1.545,-0.5039788318841731,-0.10773428789289316,-1.1197888142617285,-1.856924029346041,1.1012495003802378,2.06261266383944,no_tremor
196,5755577,1.55,-0.4995656008174472,-0.10734797032809312,-1.1120339084415107,-0.1682292070684957,1.261519164258174,1.0328622981483826,no_tremor
197,5755582,1.555,-0.49498622108856477,-0.10721703749257103,-1.1039968749879576,1.3850257585917742,1.397437821812996,0.0845122296142925,no_tremor
198,5755587,1.56,-0.49027839314329813,-0.1073199831377335,-1.095732854856068,2.8043042448454196,1.511000564053833,-0.7838681383139484,no_tremor
199,5755592,1.565,-0.4854785348408744,-0.10763544217523527,-1.0872959032496818,4.091670221027807,1.6041478456833045,-1.5740181174278254,no_tremor
200,5755597,1.57,-0.4806215940258051,-0.10814232348470694,-1.0787386853773535,5.249750843653071,1.678757865507125,-2.287959408672049,no_tremor
201,5755621,1.594,-0.475740881305062,-0.10881993334213128,-1.0701121929433401,6.281696793062245,1.7366400731583458,-2.9279691906803147,no_tremor
202,5755626,1.599,-0.4708679235108086,-0.10964808881347823,-1.0614654831340335,7.191140774980467,1.7795297024242533,-3.4965528584998746,no_tremor
203,5755630,1.603,-0.46603233811748873,-0.11060722065076918,-1.0528454415445379,7.982154591366155,1.809083241802153,-3.996416639450541,no_tremor
204,5755635,1.608,-0.4612617286969432,-0.11167846540869043,-1.0442965701792046,8.659205164817633,1.8268747653389008,-4.430440303828303,no_tremor
205,5755640,1.613,-0.45658160132102155,-0.1128437466627474,-1.03586080134739,9.227109881658059,1.8343930598695701,-4.801650178778144,no_tremor
206,5755645,1.618,-0.4520153016477389,-0.11408584535137285,-1.0275773379606825,9.69099160079688,1.8330394969233603,-5.113192663246141,no_tremor
207,5755650,1.623,-0.4475839722519146,-0.11538845938429193,-1.019482520426677,10.056233657621606,1.8241266077050917,-5.368308429040033,no_tremor
208,5755655,1.628,-0.44330652958687417,-0.11673625275943565,-1.0116097200363874,10.32843517363192,1.8088773271468144,-5.570307477189439,no_tremor
209,5755659,1.632,-0.4391996597942295,-0.11811489451267197,-1.0039892584660384,10.513366962953029,1.7884248776062959,-5.722545200881859,no_tremor
210,5755664,1.637,-0.43527783241801643,-0.11951108789024897,-0.9966483527654739,10.616928306617368,1.763813263859035,-5.828399587564098,no_tremor
211,5755669,1.642,-0.4315533309313352,-0.12091259018459788,-0.9896110849889936,10.645104845392897,1.7359983485192352,-5.891249674068488,no_tremor
212,5755688,1.661,-0.42803629885158195,-0.12230822371141944,-0.9828983954427122,10.603927822427059,1.7058494715681873,-5.914455349948657,no_tremor
213,5755693,1.666,-0.4247348001076595,-0.12368787843118663,-0.976528098376529,10.499434887830047,1.6741515703071874,-5.901338585548915,no_tremor
214,5755703,1.676,-0.42165489223255226,-0.12504250673290582,-0.9705149188374159,10.337632658259892,1.6416077480278584,-5.855166142740019,no_tremor
215,5755708,1.681,-0.4188007108907488,-0.12636411090401817,-0.9648705493204487,10.124461205785732,1.6088422325253122,-5.779133807987271,no_tremor
216,5755712,1.685,-0.4161745642150453,-0.12764572380978548,-0.9596037247993104,9.865760631888689,1.576403660875698,-5.676352170081797,no_tremor
217,5755717,1.69,-0.4137770354227069,-0.12888138330062676,-0.9547203146827281,9.56723986385123,1.5447686257691562,-5.549833949115191,no_tremor
218,5755722,1.695,-0.41160709220647274,-0.13006610085881942,-0.9502234302222574,9.234447791352808,1.5143454214167944,-5.402482869169973,no_tremor
219,5755747,1.72,-0.4096622014495223,-0.13119582498860774,-0.9461135458866741,8.87274684096277,1.4854779332476244,-5.237084054310226,no_tremor
220,5755757,1.73,-0.40793844789166195,-0.13226739984758557,-0.9423886332170172,8.487289066101688,1.4584496242250085,-5.056295915614771,no_tremor
221,5755762,1.735,-0.4064306554706057,-0.1332785196137389,-0.9390443056821771,8.082994810363502,1.4334875798020192,-4.8626434862374515,no_tremor
222,5755766,1.739,-0.40513251016857915,-0.13422767908324754,-0.9360739730652048,7.664533982756419,1.410766581353903,-4.658513151491348,no_tremor
223,5755771,1.744,-0.40403668330091685,-0.13511412099973782,-0.9334690039227688,7.236309964326808,1.3904131835340037,-4.446148711343403,no_tremor
224,5755776,1.749,-0.4031349542825595,-0.135937780625142,-0.9312188946736347,6.802446147107292,1.37250977476426,-4.227648703639316,no_tremor
225,5755781,1.754,-0.40241833199723387,-0.1366992280732388,-0.9293114438877152,6.366775088951093,1.3570986024013036,-4.0049649084676595,no_tremor
226,5755790,1.763,-0.4018771739726919,-0.13739960893666275,-0.927732930366774,5.932830251958791,1.3441857448878105,-3.7799019479828053,no_tremor
227,5755795,1.768,-0.4015013026352316,-0.1380405837445663,-0.9264682936324817,5.503840277813827,1.3337450123945995,-3.554117892343575,no_tremor
228,5755800,1.773,-0.4012801179798366,-0.1386242667897456,-0.9255013154678831,5.082725740009216,1.3257217556776932,-3.329125781493594,no_tremor
229,5755805,1.778,-0.401202706050978,-0.13915316485995438,-0.9248148011948362,4.672098300288308,1.3200365610302756,-3.106295973974507,no_tremor
230,5755810,1.783,-0.40125794268587806,-0.13963011639788553,-0.9243907594128818,4.274262184507145,1.3165888082522228,-2.886859236959773,no_tremor
231,5755819,1.792,-0.40143459202916215,-0.14005823159796957,-0.9242105789742857,3.89121788143849,1.3152600693687762,-2.671910495283367,no_tremor
232,5755829,1.802,-0.4017213993871603,-0.1404408339262347,-0.9242552020253848,3.5246679564949948,1.3159173287176527,-2.462413160678649,no_tremor
233,5755834,1.807,-0.4021071780528673,-0.14078140352287488,-0.9245052920054009,3.1760248607091626,1.3184160092298705,-2.2592039654026257,no_tremor
234,5755839,1.812,-0.4025808897991531,-0.14108352291707515,-0.9249413955600977,2.846420603541267,1.322602793859683,-2.062998227247843,no_tremor
235,5755867,1.84,-0.4031317188076003,-0.1413508254513994,-0.9255440973986876,2.536718146277026,1.3283182342327422,-1.874395476514491,no_tremor
236,5755872,1.845,-0.4037491388712705,-0.1415869467797461,-0.926294167197749,2.2475243610440803,1.3353991408313535,-1.693885380395415,no_tremor
237,5755886,1.859,-0.4044229737781451,-0.14179547976879095,-0.9271726977349433,1.979204389143579,1.3436807516258602,-1.5218539060755782,no_tremor
238,5755916,1.889,-0.40514345084379766,-0.14197993309720758,-0.9281612335175292,1.7318972221620255,1.3529986806195413,-1.3585896698629403,no_tremor
239,5755925,1.898,-0.4059012476147855,-0.14214369380837563,-0.9292418892561903,1.5055323210066553,1.363190654918184,-1.2042904253605062,no_tremor
240,5755930,1.903,-0.4066875318099498,-0.14228999402950712,-0.930397457624485,1.2998470819860173,1.3740980569655301,-1.059069648751889,no_tremor
241,5755935,1.908,-0.40749399460960783,-0.14242188202273356,-0.9316115058396071,1.114404955248718,1.385567294209686,-0.922963182948193,no_tremor
242,5755940,1.913,-0.40831287744574224,-0.1425421976823167,-0.9328684607014468,0.9486140191489507,1.3974510193620389,-0.7959359038319389,no_tremor
243,5755945,1.918,-0.40913699248938523,-0.14265355253803305,-0.9341536818328156,0.8017458145478553,1.409609220883736,-0.6778883713628093,no_tremor
244,5755949,1.922,-0.40995973707150846,-0.14275831426928412,-0.9354535229715825,0.6729542460527353,1.421910197481544,-0.5686634270156019,no_tremor
245,5755954,1.927,-0.41077510230777736,-0.14285859567863368,-0.9367553812728816,0.5612943629323344,1.4342314242050938,-0.46805269787366444,no_tremor
246,5755959,1.932,-0.41157767622388397,-0.14295624801793905,-0.9380477346848183,0.4657408404599268,1.446460312066223,-0.375802967187283,no_tremor
247,5755999,1.972,-0.4123626416968908,-0.1430528585054763,-0.9393201675634146,0.3852059918641781,1.458494857918718,-0.29162237165808963,no_tremor
248,5756004,1.977,-0.41312576954060876,-0.14314975181907652,-0.9405633847915402,0.31855715151971964,1.470244176575013,-0.21518638732262,no_tremor
249,5756009,1.982,-0.41386340707206687,-0.1432479952997517,-0.9417692147619232,0.26463328185081225,1.4816289031498033,-0.14614356863921552,no_tremor
250,5756013,1.986,-0.41457246250451896,-0.14334840755515202,-0.942930601675231,0.22226067010414713,1.4925814508743906,-0.08412100900491057,no_tremor
251,5756018,1.991,-0.4152503855221044,-0.1434515701152422,-0.9440415876893826,0.19026759654338213,1.5030461083973266,-0.028729495045001874,no_tremor
252,5756028,2.001,-0.4158951444023296,-0.14355784176540168,-0.9450972855343887,0.16749787215817252,1.5129789613335338,0.020431668645393176,no_tremor
253,5756033,2.006,-0.41650520006381503,-0.1436673751646581,-0.9460938422771556,0.1528231611175681,1.5223476263558011,0.06377018278567216,no_tremor
254,5756038,2.011,-0.417079477427275,-0.14378013534797338,-0.9470283949824532,0.14515402032803298,1.5311307927921844,0.10169663743212942,no_tremor
255,5756043,2.016,-0.4176173344874016,-0.14389591971036964,-0.9478990190696531,0.14344960473166596,1.539317575704916,0.1346207631145001,no_tremor
256,5756047,2.02,-0.4181185295027339,-0.1440143790763013,-0.9487046702102607,0.14672600197633168,1.54690669436149,0.16294804945352692,no_tremor
257,5756062,2.035,-0.41858318672001027,-0.14413503946910738,-0.9494451206491006,0.1540631745378553,1.553905499591918,0.18707672632781822,no_tremor
258,5756066,2.039,-0.4190117610582193,-0.14425732421161355,-0.9501208908626068,0.16461050255204449,1.5603288815519722,0.20739509784013146,no_tremor
259,5756071,2.044,-0.41940500218338345,-0.1443805760090911,-0.9507331774909601,0.17759093710188256,1.566198094565968,0.2242792150032263,no_tremor
260,5756076,2.049,-0.4197639184044133,-0.14450407868910392,-0.9512837784963648,0.1923037911864779,1.5715395372102783,0.23809086970423698,no_tremor
261,5756086,2.059,-0.42008974080925937,-0.14462707829869373,-0.9517750165068486,0.2081262135539066,1.5763835240872537,0.24917589045465355,no_tremor
262,5756110,2.083,-0.4203838880364715,-0.1447488032872453,-0.9522096613028375,0.22451340852986015,1.5807630823380272,0.25786271958633145,no_tremor
263,5756115,2.088,-0.4206479320401557,-0.14486848353253381,-0.9525908523914579,0.24099768202960556,1.5847128025007815,0.26446125168212564,no_tremor
264,5756120,2.093,-0.4208835651595886,-0.1449853679971606,-0.9529220225898536,0.2571864086296001,1.5882677708985888,0.26926191396936594,no_tremor
265,5756130,2.103,-0.4210925687549937,-0.1450987408322101,-0.953206823502717,0.2727590255504557,1.5914626093608646,0.2725349709131041,no_tremor
266,5756134,2.107,-0.42127678362559745,-0.14520793577409352,-0.9534490537308653,0.2874631664670253,1.5943306465780487,0.27453003700802003,no_tremor
267,5756139,2.112,-0.42143808238977687,-0.14531234870898674,-0.9536525905888029,0.30111005234641686,1.5969032421068305,0.2754757835975237,no_tremor
268,5756144,2.117,-0.4215783439803187,-0.1454114483069609,-0.9538213260425864,0.31356925955602194,1.599209278167221,0.27557982743244647,no_tremor
269,5756150,2.123,-0.42169943038775676,-0.14550478465478436,-0.9539591075075771,0.32476298819127014,1.6012748264782497,0.2750287906328961,no_tremor
270,5756154,2.127,-0.4218031657673987,-0.14559199584232577,-0.9540696840705966,0.3346599560060939,1.6031229887412632,0.273988523655219,no_tremor
271,5756159,2.132,-0.42189131800711854,-0.14567281248234298,-0.9541566586235206,0.3432690451621068,1.604773901105568,0.272604484669904,no_tremor
272,5756164,2.137,-0.42196558283041335,-0.14574706016706765,-0.9542234463157647,0.3506328299794644,1.6062448856526461,0.2710022703882958,no_tremor
273,5756169,2.142,-0.4220275704810107,-0.14581465988736952,-0.9542732396511554,0.35682111366140085,1.6075507257683268,0.26928829478686384,no_tremor
274,5756178,2.151,-0.42207879500109985,-0.14587562646156454,-0.9543089804682808,0.36192459989306275,1.6087040372622663,0.2675506131306465,no_tremor
275,5756188,2.161,-0.42212066607563564,-0.14593006504152836,-0.9543333389474793,0.36604882047716664,1.6097157035853817,0.265859888951143,no_tremor
276,5756198,2.171,-0.42215448337160266,-0.1459781657844881,-0.9543486996764916,0.3693084325834181,1.6105953420713286,0.26427050120776785,no_tremor
277,5756203,2.176,-0.4221814332559767,-0.14602019680089903,-0.9543571546806716,0.3718219894767998,1.6113517688953898,0.2628217878737414,no_tremor
