sample,t_ms,t_s,ax,ay,az,gx,gy,gz,tremor
0,5724729,0.0,-0.37766026160344646,-0.15989195859769698,-0.9038655092268773,-5.383427853752388,-1.9415256447520792,0.9265928257066101,no_tremor
1,5724764,0.035,-0.3775592047568728,-0.1599373401998788,-0.9031086043682494,-6.4882418997103075,-2.0403228007865164,1.1911200295101714,no_tremor
2,5724774,0.045,-0.3774290258456467,-0.15998549855275443,-0.9021760037565291,-7.622956243207794,-2.12013727561585,1.4383070782697664,no_tremor
3,5724778,0.049,-0.3772728440638643,-0.16002712160028343,-0.9011307368314673,-8.781300096242767,-2.178033535989599,1.6646530884647481,no_tremor
4,5724783,0.054,-0.3771005377639343,-0.1600492771876049,-0.9000950846282025,-9.9563520333014,-2.2109866183819893,1.8665593164692937,no_tremor
5,5724788,0.059,-0.37692422117497115,-0.16003881388493113,-0.8992106856978129,-11.140547787336311,-2.215898615869293,2.0403503146982818,no_tremor
6,5724793,0.064,-0.3767549057771187,-0.15998432216361372,-0.8986104153829487,-12.325693666225236,-2.1896169731552058,2.1822969427494834,no_tremor
7,5724798,0.069,-0.3766011140359626,-0.15987665260238032,-0.8984072998356907,-13.502985865748645,-2.1289545441180207,2.2886411446280794,no_tremor
8,5724802,0.073,-0.3764687415830159,-0.1597086923711706,-0.8986939086623627,-14.663035926876333,-2.0307113364441385,2.3556223835163372,no_tremor
9,5724807,0.078,-0.3763614366726261,-0.15947493402489907,-0.8995458532369643,-15.795902550876843,-1.8916978379450349,2.3795056048424366,no_tremor
10,5724822,0.093,-0.37628107575343767,-0.15917108751445713,-0.9010258466747297,-16.891129945047588,-1.7087597893049462,2.3566105765602496,no_tremor
11,5724826,0.097,-0.37622816550693977,-0.15879380683727495,-0.9031869660919218,-17.937792824667074,-1.4788042390534508,2.283342432683484,no_tremor
12,5724831,0.102,-0.3762021331801897,-0.15834052541634563,-0.9060748627336317,-18.924548143167,-1.1988266898281323,2.1562232225526534,no_tremor
13,5724836,0.107,-0.37620151821656705,-0.15780937261477074,-0.9097290761214353,-19.839693562748185,-0.8659391214032208,1.971924244555352,no_tremor
14,5724841,0.112,-0.3762240907954372,-0.15719914429825513,-0.9141836956496369,-20.671232612345218,-0.4773986553945981,1.7272989194930919,no_tremor
15,5724846,0.117,-0.37626692099875253,-0.15650930688954526,-0.9194675841965578,-21.40694641010953,-0.030636608158843445,1.4194159357478098,no_tremor
16,5724851,0.122,-0.37632641672169304,-0.15574002087937833,-0.9256043234673192,-22.034471754955316,0.47671233862329804,1.045592376302366,no_tremor
17,5724856,0.127,-0.3763983430726113,-0.15489217468481883,-0.9326119914011108,-22.541385317532086,1.04678113576473,0.6034265174354301,no_tremor
18,5724881,0.152,-0.37647783189000256,-0.15396742307212177,-0.9405028452924137,-22.915293585541747,1.6814418315908757,0.09082997162407433,no_tremor
19,5724886,0.157,-0.37655938712837,-0.15296822648101877,-0.9492829592727675,-23.143928140814,2.382277810828635,-0.493941166485231,no_tremor
20,5724891,0.162,-0.37663688994344763,-0.15189788889377914,-0.9589518485266662,-23.21524576529844,3.150557116162641,-1.1522565223261545,no_tremor
21,5724896,0.167,-0.37670360604549785,-0.15076059268065412,-0.9695021023025003,-23.117532790786214,3.9872071586333324,-1.8850833503662652,no_tremor
22,5724900,0.171,-0.3767521970577229,-0.149561429321777,-0.9809190413396829,-22.839513024769442,4.892791117481281,-2.6929605126150533,no_tremor
23,5724905,0.176,-0.3767747370563769,-0.1483064251810208,-0.993180411330994,-22.370458504487843,5.867486322551701,-3.5759748901926223,no_tremor
24,5724910,0.181,-0.37676273507727914,-0.14700256166885983,-1.006256121534198,-21.70030225375308,6.911064903028194,-4.533740587007068,no_tremor
25,5724915,0.186,-0.3767071640860434,-0.14565778922788308,-1.020108036039094,-20.819752142364983,8.022876975149792,-5.565381273723555,no_tremor
26,5724920,0.191,-0.3765984966868272,-0.14428103463636993,-1.0346898241085742,-19.720404876036415,9.201836628981239,-6.669516001856983,no_tremor
27,5724925,0.196,-0.3764267476621992,-0.14288220117070805,-1.0499468752107624,-18.394859077122703,10.446410959682474,-7.844248791329901,no_tremor
28,5724930,0.201,-0.3761815232794465,-0.1414721612075715,-1.0658162836992846,-16.83682635487573,11.754612370057622,-9.087162260372187,no_tremor
29,5724934,0.205,-0.37585207715659297,-0.14006274088815154,-1.0822269074915587,-15.041239209534142,13.123994346179783,-10.395315524915059,no_tremor
30,5724944,0.215,-0.3754273723484606,-0.13866669651263108,-1.099099504486577,-13.004354567917646,14.551650875538426,-11.76524654619582,no_tremor
31,5724949,0.22,-0.3748961491857691,-0.1372976823844442,-1.1163469498216834,-10.723851710122956,16.034219637740907,-13.192979050405741,no_tremor
32,5724954,0.225,-0.3742469982772457,-0.1359702098795463,-1.1338745363739204,-8.19892331878849,17.567889052045285,-14.674034083503924,no_tremor
33,5724959,0.23,-0.37346843796692375,-0.13469959757332042,-1.151580360156188,-5.430358366149368,19.14840921431565,-16.20344619910319,no_tremor
34,5724963,0.234,-0.37254899542914555,-0.13350191231398062,-1.1693557914365673,-2.420615552432767,20.77110669817899,-17.77578420894423,no_tremor
35,5724968,0.239,-0.37147729048636563,-0.13239390118482708,-1.1870860315163743,0.8261139745931737,22.430903130730073,-19.38517635445265,no_tremor
36,5724978,0.249,-0.37024212115417643,-0.13139291434897812,-1.2046507541339815,4.3038558517296455,24.122337382361128,-21.025339684305425,no_tremor
37,5725009,0.28,-0.36883254985861746,-0.13051681882211513,-1.221924829413328,8.00481485620455,25.839591135416754,-22.68961334783542,no_tremor
38,5725014,0.285,-0.3672379892380079,-0.12978390327752704,-1.2387791271497972,11.919351471411884,27.576517522305846,-24.37099544122789,no_tremor
39,5725024,0.295,-0.36544828644179,-0.12921277406423995,-1.255081395035185,16.035973635354352,29.326672458075787,-26.06218298043528,no_tremor
40,5725034,0.305,-0.3634538048786681,-0.1288222427266817,-1.2706972061966935,20.34134450319553,31.083348243266283,-27.75561453073453,no_tremor
41,5725038,0.309,-0.3612455024482267,-0.1286312054610617,-1.2854909692010035,24.820306888986877,32.83960898385211,-29.4435150027736,no_tremor
42,5725043,0.314,-0.35881500540974864,-0.12865851512415252,-1.2993269924923534,29.455924866784482,34.588327363818394,-31.117942126163545,no_tremor
43,5725053,0.324,-0.35615467718883864,-0.12892284660722456,-1.3120705941259354,34.229542813724194,36.32222230707296,-32.77083412701661,no_tremor
44,5725058,0.329,-0.3532576815847614,-0.12944255658146145,-1.3235892466491128,39.12086196978293,38.0338970750407,-34.39405815848127,no_tremor
45,5725063,0.334,-0.3501180400087905,-0.13023553879615002,-1.3337537460888849,44.10803437208543,39.71587736353914,-35.97945905895946,no_tremor
46,5725068,0.339,-0.34673068254863976,-0.1313190762588392,-1.3424393932358174,49.16777379795975,41.36064898925409,-37.51890803938591,no_tremor
47,5725073,0.344,-0.34309149281132284,-0.13270969174416625,-1.3495271747815774,54.27548312336991,42.96069479481237,-39.00435092801371,no_tremor
48,5725083,0.354,-0.3391973466445807,-0.13442299816516695,-1.3549049313766048,59.40539727336334,44.508530452762635,-40.42785562791673,no_tremor
49,5725087,0.358,-0.33504614497577573,-0.13647355039915718,-1.3584684993331217,64.53074070950386,45.99673891168149,-41.781658468246086,no_tremor
50,5725092,0.363,-0.3306368411387014,-0.13887470019055737,-1.3601228125163989,69.62389816889502,47.41800330157831,-43.058209155309136,no_tremor
51,5725097,0.368,-0.32596946318566866,-0.14163845575409095,-1.3597829509573451,74.65659714587689,48.7651382010927,-44.25021405453287,no_tremor
52,5725129,0.4,-0.32104513180761746,-0.14477534767043584,-1.3573751228946755,79.6001003956431,50.03111926417966,-45.35067755962001,no_tremor
53,5725139,0.41,-0.3158660746092856,-0.14829430259906265,-1.3528375673260606,84.42540654395468,51.20911130268093,-46.352941330299174,no_tremor
54,5725144,0.415,-0.31043563759897536,-0.15220252622822325,-1.3461213647308625,89.10345672216954,52.292495010785395,-47.25072120485759,no_tremor
55,5725149,0.42,-0.3047582948254699,-0.15650539674358582,-1.3371911444468065,93.6053450344964,53.274892581859795,-48.038141618577455,no_tremor
56,5725154,0.425,-0.29883965709231564,-0.16120636993484386,-1.3260256782565703,97.9025306200066,54.150192496152556,-48.70976738438223,no_tremor
57,5725158,0.429,-0.2926864805778769,-0.16630689688681433,-1.312618351057317,101.96704908812727,54.912573749813696,-49.26063271666201,no_tremor
58,5725163,0.434,-0.2863066759876077,-0.1718063550283715,-1.2969775010083897,105.77172116009223,55.556529761446285,-49.68626740243606,no_tremor
59,5725173,0.444,-0.27970931858133863,-0.17770199314311966,-1.279126623232964,109.29035642054507,56.07689214344482,-49.98272004519373,no_tremor
60,5725178,0.449,-0.2729046590806502,-0.18398889077896563,-1.2591044329486236,112.49795016605646,56.4688544698138,-50.14657832571661,no_tremor
61,5725188,0.459,-0.26590413510026356,-0.19065993232689785,-1.236964785788352,115.37087143335701,56.72799611466959,-50.17498624122727,no_tremor
62,5725192,0.463,-0.25872038239437517,-0.19770579587049109,-1.212776455020713,117.8870404059313,56.85030617821006,-50.06565830052695,no_tremor
63,5725197,0.468,-0.25136724489533585,-0.20511495673734226,-1.1866227673620597,120.02609353733396,56.832207459863625,-49.816890669807314,no_tremor
64,5725207,0.478,-0.24385978227711272,-0.21287370551409937,-1.1586011010754433,121.76953489141755,56.67058038242047,-49.42756928191778,no_tremor
65,5725226,0.497,-0.23621427362308073,-0.2209661801208699,-1.1288222520585107,123.10087237749171,56.36278671966811,-48.897174940049226,no_tremor
66,5725253,0.524,-0.2284482157314211,-0.22937441138236966,-1.0974096756223135,124.00573774628101,55.9066929383302,-48.225785463399085,no_tremor
67,5725258,0.529,-0.22058031465313152,-0.23807838139024715,-1.0644986136103096,124.47198940825317,55.30069293468551,-47.414074935528326,no_tremor
68,5725263,0.534,-0.212630469208295,-0.24705609383781563,-1.030235118297868,124.48979734180955,54.54372992205489,-46.463310124544435,no_tremor
69,5725268,0.539,-0.20461974542373298,-0.25628365543928416,-0.9947749860007592,124.05170957843436,53.63531719813166,-45.37534414928005,no_tremor
70,5725273,0.544,-0.19657034102877596,-0.2657353675241654,-0.9582826143895986,123.15269998458223,52.57555748483725,-44.15260747173203,no_tremor
71,5725287,0.558,-0.18850553929972336,-0.2753838269130649,-0.9209297981304142,121.79019729972052,51.36516048948683,-42.79809630786009,no_tremor
72,5725292,0.563,-0.18044965164678242,-0.2852000352157676,-0.8828944777054677,119.96409562787909,50.005458291744574,-41.315358567762324,no_tremor
73,5725306,0.577,-0.17242794839732395,-0.29515351573244913,-0.8443594561926165,117.67674680724942,48.49841812552538,-39.70847745928144,no_tremor
74,5725311,0.582,-0.16446657726344288,-0.30521243717907937,-0.8055110984549305,114.9329352887596,46.846652107352675,-37.9820529106067,no_tremor
75,5725316,0.587,-0.15659246901436352,-0.315343743501526,-0.7665380266480043,111.73983632948031,45.053423467372646,-36.14118098167761,no_tremor
76,5725321,0.592,-0.148833229933438,-0.3255132890952166,-0.7276298252132383,108.10695844275713,43.1226488652816,-34.1914314373954,no_tremor
77,5725327,0.598,-0.14121702075005038,-0.3356859788115704,-0.6889757676195071,104.0460711445659,41.05889641666125,-32.13882364716187,no_tremor
78,5725331,0.602,-0.13377242191216324,-0.345825912206037,-0.6507635760836832,99.5711191029507,38.86737911172083,-29.989800957633676,no_tremor
79,5725336,0.607,-0.1265282853058812,-0.3558965315573332,-0.6131782243914597,94.69812384419966,36.55394337541787,-27.751203662996755,no_tremor
80,5725341,0.612,-0.11951357282493275,-0.3658607732528758,-0.5764007928008472,89.44507420155807,34.12505259280772,-25.430240673192316,no_tremor
81,5725346,0.617,-0.1127571825310371,-0.37568122218173033,-0.5406073828781655,83.83180671329958,31.58776550394754,-23.03445995775138,no_tremor
82,5725351,0.622,-0.10628776350956855,-0.3853202687965369,-0.5059680990147417,77.87987719132286,28.94970945773563,-20.57171782321796,no_tremor
83,5725378,0.649,-0.10013352089724237,-0.39474026849658045,-0.4726461023155402,71.6124246939863,26.219048603845597,-18.050147067958974,no_tremor
84,5725383,0.654,-0.09432201292216101,-0.4039037029479792,-0.4407967415416337,65.05402914867496,23.40444719552174,-15.478124051568203,no_tremor
85,5725393,0.664,-0.08887994213096377,-0.4127733429047636,-0.4105667648181611,58.23056387348139,20.515028269108075,-12.864234717147982,no_tremor
86,5725398,0.669,-0.08383294326087279,-0.4213124120444863,-0.38209361487151455,51.16904423055482,17.560328051204074,-10.217239611091845,no_tremor
87,5725403,0.674,-0.07920537042926035,-0.42948475130064523,-0.35550480962152387,43.89747359885088,14.550246513329832,-7.546037953621307,no_tremor
88,5725412,0.683,-0.07502008645473045,-0.43725498316685796,-0.33091740903005573,36.4446877869136,11.494994541682676,-4.85963082278798,no_tremor
89,5725422,0.693,-0.07129825719583535,-0.4445886754568932,-0.30843756821509105,28.84019892892883,8.405038214905922,-2.167083524981575,no_tremor
90,5725427,0.698,-0.06805915380145228,-0.4514525040176083,-0.2881601759994123,21.114039826293965,5.291040688875968,0.5225127637002065,no_tremor
91,5725432,0.703,-0.06531996571005884,-0.45781441389843797,-0.2701685772877769,13.29660961125656,2.163802180262039,3.200079989424759,no_tremor
92,5725436,0.707,-0.06309562710957962,-0.46364377847672483,-0.2545343769590186,5.418521516401454,-0.9658014727321014,5.8565927397758735,no_tremor
93,5725441,0.712,-0.061398659374946186,-0.46891155602255863,-0.24131732231849207,-2.48954656328621,-4.086881205633625,8.48311817408327,no_tremor
94,5725446,0.717,-0.06023903174602917,-0.4735904431613984,-0.23056526057951315,-10.396998122365142,-7.188597615193198,11.070856236566055,no_tremor
95,5725451,0.722,-0.059624042210739546,-0.47765502465948084,-0.22231416732778933,-18.273460199153007,-10.260223866667275,13.611180005422266,no_tremor
96,5725456,0.727,-0.059558220235595066,-0.48108191891791097,-0.2165882414673345,-26.08892118726454,-13.29120812972624,16.09567600456104,no_tremor
97,5725470,0.741,-0.06004325265582735,-0.4838499185186625,-0.2134000617463478,-33.81386391219832,-16.271235027857117,18.516184270762256,no_tremor
98,5725476,0.747,-0.06107793371288429,-0.485940125121919,-0.2127507996143334,-41.41939362065599,-19.190285562916465,20.86483792968624,no_tremor
99,5725503,0.774,-0.06265813991911974,-0.4873360779718326,-0.21463048286894018,-48.87736055849632,-22.03869496016964,23.13410199241927,no_tremor
100,5725527,0.798,-0.0647768301429377,-0.4880238752284767,-0.21901830432287703,-56.160476832626365,-24.807207875306577,25.31681104424076,no_tremor
101,5725532,0.803,-0.06742407104156603,-0.48799228730541483,-0.22588296958185652,-63.24242726999815,-27.4870304177589,27.406205465231697,no_tremor
102,5725537,0.808,-0.07058708771727332,-0.4872328613471041,-0.23518307801311442,-70.09797401395616,-30.069878476943394,29.39596580699142,no_tremor
103,5725542,0.813,-0.07425033923256738,-0.4857400159183333,-0.24686753114300264,-76.70305464222862,-32.54802189039873,31.28024495813022,no_tremor
104,5725547,0.818,-0.07839561839226872,-0.48351112489494774,-0.2608759630715624,-83.03487364848584,-34.9143240604588,33.05369776152418,no_tremor
105,5725557,0.828,-0.08300217498631907,-0.48054658944792517,-0.2771391880131896,-89.07198718673381,-37.16227669873724,34.71150778762464,no_tremor
106,5725562,0.833,-0.08804686148222281,-0.4768498969167237,-0.29557966071692504,-94.7943810215909,-39.286029445485504,36.24941100895486,no_tremor
107,5725567,0.838,-0.09350429995435015,-0.4724276652912551,-0.3161119462306964,-100.18354165381606,-41.28041417083273,37.66371615637528,no_tremor
108,5725571,0.842,-0.09934706883772774,-0.4672896719828076,-0.3386431961995483,-105.22252060321719,-43.14096381939185,38.95132156854871,no_tremor
109,5725576,0.847,-0.10554590789826458,-0.4614488655776346,-0.36307362958472633,-109.89599183548957,-44.863925710549665,40.1097283745563,no_tremor
110,5725591,0.862,-0.11206993961952046,-0.45492135934253025,-0.3892970163212351,-114.19030231875617,-46.44626925252695,41.137049877181845,no_tremor
111,5725596,0.867,-0.11888690501395406,-0.4477264053938728,-0.41720116296635357,-118.09351569132622,-47.88568806697175,42.032017031541166,no_tremor
112,5725601,0.872,-0.1259634116670341,-0.4398863486506466,-0.44666839981185663,-121.59544901567882,-49.18059655381086,42.79397994104127,no_tremor
113,5725629,0.9,-0.13326519160852143,-0.4314265599642127,-0.47757606923576534,-124.68770258438477,-50.33012095898028,43.4229053209762,no_tremor
114,5725634,0.905,-0.14075736637487557,-0.42237534814046446,-0.5097970152733599,-127.36368272841388,-51.33408504800069,43.91936991043203,no_tremor
115,5725639,0.91,-0.14840471639224032,-0.41276385091319906,-0.5432000745340064,-129.61861755429865,-52.192990543106326,44.284549846941445,no_tremor
116,5725643,0.914,-0.15617195160053238,-0.40262590524372593,-0.5776505687402975,-131.4495655063027,-52.90799255462087,44.520206057046906,no_tremor
117,5725648,0.919,-0.16402398009240693,-0.39199789756649406,-0.613010799371094,-132.8554166202623,-53.48087032485342,44.62866575989707,no_tremor
118,5725658,0.929,-0.17192617148193337,-0.3809185947572183,-0.6491405451616977,-133.8368863144463,-53.913993692454156,44.6128002281766,no_tremor
119,5725663,0.934,-0.17984461175421734,-0.36942895668472703,-0.6858975635173605,-134.39650155453606,-54.21028576194532,44.47599899790016,no_tremor
120,5725668,0.939,-0.1877463464752289,-0.35757193125437187,-0.7231380971717908,-134.53857923768425,-54.3731823177786,44.222140763429046,no_tremor
121,5725682,0.953,-0.19559960945318552,-0.34539223289508714,-0.7607173876117954,-134.2691966649596,-54.406588553676876,43.85556123492276,no_tremor
122,5725687,0.958,-0.20337403422775055,-0.33293610551325764,-0.7984901968465163,-133.59615400856367,-54.31483370135792,43.38101827096374,no_tremor
123,5725692,0.963,-0.2110408461035092,-0.3202510710518484,-0.8363113389972106,-132.52892872332626,-54.10262414700717,42.803654628019984,no_tremor
124,5725697,0.968,-0.21857303281698742,-0.30738566495541186,-0.8740362229160271,-131.07862189495572,-53.77499562841258,42.12895868995219,no_tremor
125,5725701,0.972,-0.22594549230913766,-0.29438916004082977,-0.911521406623713,-129.257896557048,-53.33726511538578,41.36272355526495,no_tremor
126,5725706,0.977,-0.2331351564502766,-0.2813112804942365,-0.9486251638104719,-127.08090804492868,-52.79498298927102,40.51100486893119,no_tremor
127,5725711,0.982,-0.24012108992258352,-0.26820190794014304,-0.9852080619975396,-124.56322648997387,-52.153886148180035,39.580077791538834,no_tremor
128,5725716,0.987,-0.2468845638058243,-0.2551107817441006,-1.0211335512363202,-121.72175159869167,-51.41985266612283,38.576393502465066,no_tremor
129,5725721,0.992,-0.2534091037424842,-0.24208719590218536,-1.056268561453549,-118.57461991361376,-50.59885861851034,37.50653563566643,no_tremor
130,5725758,1.029,-0.2596805128932676,-0.22917969503080196,-1.0904841057570593,-115.141104824407,-49.69693764393336,36.37717704556555,no_tremor
131,5725763,1.034,-0.26568687025148074,-0.21643577209769146,-1.1236558862164,-111.44150969114663,-48.72014373168723,35.19503729467392,no_tremor
132,5725773,1.044,-0.2714185052838047,-0.20390157063456782,-1.155664897854624,-107.4970545559341,-47.674517597276086,33.966841240518136,no_tremor
133,5725778,1.049,-0.27686795031520917,-0.19162159424987762,-1.1863980258806257,-103.32975704591237,-46.566056836080314,32.699279073133766,no_tremor
134,5725783,1.054,-0.28202987256426837,-0.17963842631923044,-1.2157486306102587,-98.96230819681426,-45.400689850019944,31.398968115875675,no_tremor
135,5725793,1.064,-0.28690098821961346,-0.1679924627665459,-1.2436171141031132,-94.41794403786555,-44.18425335866088,30.07241665748183,no_tremor
136,5725798,1.069,-0.29147996136996845,-0.15672166084972844,-1.2699114622840815,-89.72031386737044,-42.92247316499069,28.72599003910146,no_tremor
137,5725802,1.073,-0.2957672909057025,-0.1458613068154519,-1.2945477562120322,-84.89334620953746,-41.620947760937796,27.365879178657256,no_tremor
138,5725807,1.078,-0.29976518866318247,-0.13544380517227655,-1.3174506461900386,-79.96111347473953,-40.28513432976763,25.99807167489214,no_tremor
139,5725812,1.083,-0.3034774520679005,-0.12549849213772613,-1.338553782575712,-74.94769634779071,-38.92033672506281,24.628325593828265,no_tremor
140,5725817,1.088,-0.306909334350573,-0.11605147554025266,-1.3578001974401595,-69.87704890825177,-37.53169506550366,23.262146002854706,no_tremor
141,5725822,1.093,-0.31006741508051344,-0.10712550310850764,-1.37514263163157,-64.77286545395754,-36.124176663993126,21.90476428489541,no_tremor
142,5725827,1.098,-0.3129594733121147,-0.0987398606719526,-1.3905438023138834,-59.658449963277896,-34.70256809364179,20.56112023848081,no_tremor
143,5725832,1.103,-0.3155943651094416,-0.09091030134600608,-1.4039766066593464,-54.55658909793601,-33.27146827115522,19.235846948854295,no_tremor
144,5725837,1.108,-0.3179819066404314,-0.08364900630123438,-1.4154242580605585,-49.48942961792229,-31.835282504079657,17.93325839933304,no_tremor
145,5725841,1.112,-0.32013276345604597,-0.07696457723970299,-1.4248803519770805,-44.47836105301033,-30.3982174994713,16.65733977931184,no_tremor
146,5725846,1.117,-0.3220583460282305,-0.07086206024086274,-1.4323488593296172,-39.54390445046554,-28.964277367188192,15.411740433763583,no_tremor
147,5725851,1.122,-0.32377071114613176,-0.06534300020890703,-1.437844046189262,-34.70560799399051,-27.53726067125573,14.199769387839067,no_tremor
148,5725878,1.149,-0.32528246838910313,-0.060405524763465855,-1.441390319369983,-29.98195026327655,-26.120758588450887,13.024393369308497,no_tremor
149,5725883,1.154,-0.32660669062842906,-0.05604445607076682,-1.443021998408664,-25.39025187431987,-24.71815422576749,11.888237241354842,no_tremor
150,5725887,1.158,-0.32775682737423195,-0.05225144881260524,-1.4427830152932726,-20.9465962007929,-23.33262312800264,10.793586747568682,no_tremor
151,5725892,1.163,-0.3287466197900111,-0.04901515223082286,-1.4407265441541877,-16.665759814237227,-21.967134972099977,9.74239345743062,no_tremor
152,5725897,1.168,-0.32959001633986834,-0.046321393959280796,-1.4369145639425687,-12.561153186158359,-20.624456397122678,8.736281781670797,no_tremor
153,5725902,1.173,-0.33030108828657573,-0.044153383159559564,-1.431417357865054,-8.644772069412603,-19.30715486443505,7.7765579022769495,no_tremor
154,5725911,1.182,-0.33089394458105337,-0.04249193031077559,-1.4243129540172679,-4.927159833708242,-18.017603391691868,6.864220435164889,no_tremor
155,5725916,1.187,-0.33138264603235135,-0.04131568087104934,-1.4156865122565858,-1.4173808933366783,-16.757985964479253,5.999972622393859,no_tremor
156,5725921,1.192,-0.33178111898485335,-0.04060135993303131,-1.4056296628757448,1.8769947465914114,-15.53030340441504,5.184235842671405,no_tremor
157,5725926,1.197,-0.3321030690276111,-0.04032402494364161,-1.394239803081052,4.949895884994189,-14.33637946178683,4.417164233689052,no_tremor
158,5725931,1.202,-0.3323618955007354,-0.0404573235529277,-1.381619357641167,7.796743596520488,-13.177866902055131,3.6986602292807635,no_tremor
159,5725936,1.207,-0.33257060773724995,-0.04097375370021714,-1.367875010357725,10.414433999265745,-12.056253367224535,3.028390819838351,no_tremor
160,5725940,1.211,-0.33274174408534696,-0.04184492313570308,-1.3531169132244212,12.80131063231536,-10.972866815620398,2.4058043443906794,no_tremor
161,5725945,1.216,-0.33288729479917306,-0.0430418057072854,-1.3374578802938402,14.95712685604192,-9.928880377937585,1.8301476226388393,no_tremor
162,5725950,1.221,-0.33301862987115893,-0.04453499190834354,-1.321012573365251,16.882998783326542,-8.925316512976066,1.3004832414724388,no_tremor
163,5725955,1.226,-0.33314643281129,-0.04629493137268302,-1.3038966866418338,18.58134933705649,-7.963050400725642,0.8157068259321243,no_tremor
164,5725965,1.236,-0.33328064126530876,-0.048292165208048916,-1.2862261374813106,20.055844108417382,-7.042812569760437,0.3745641475878242,no_tremor
165,5725970,1.241,-0.33343039521261447,-0.05049754627036869,-1.2681162702799476,21.31131976337254,-6.165190816558179,-0.02433205063713989,no_tremor
166,5726001,1.272,-0.33360399330527984,-0.05288244569147601,-1.2496810803862959,22.353705811371167,-5.330631533087722,-0.3824856095316724,no_tremor
167,5726006,1.277,-0.3338088577144646,-0.05541894418267031,-1.2310324647314375,23.189940606802118,-4.539440611556374,-0.701500963796759,no_tremor
168,5726011,1.282,-0.3340515076559531,-0.05808000685018076,-1.2122795055695261,23.827882493863346,-3.79178413423495,-0.9830676653512147,no_tremor
169,5726015,1.286,-0.3343375415921147,-0.06083964048536534,-1.1935277933224329,24.276217026425325,-3.0876890732553677,-1.228945464825059,no_tremor
170,5726020,1.291,-0.33467162797016015,-0.06367303253901689,-1.1748787940026058,24.544361198788447,-2.4270442171629796,-1.4409499884741848,no_tremor
171,5726030,1.301,-0.33505750426332576,-0.06655667125422314,-1.1564292660626458,24.64236561548937,-1.8096015135367987,-1.6209390437325093,no_tremor
172,5726040,1.311,-0.3354979840290049,-0.06946844670659277,-1.1382707308246067,24.580815510740038,-1.234977979584805,-1.7707995836595598,no_tremor
173,5726045,1.316,-0.3359949716759554,-0.07238773277165565,-1.120488999915231,24.370731500762265,-0.7026582919871818,-1.8924353567511347,no_tremor
174,5726050,1.321,-0.3365494846294554,-0.07529545029485415,-1.1031637624015942,24.023470915496574,-0.21199812656984166,-1.987755264117366,no_tremor
175,5726054,1.325,-0.337161682586182,-0.07817411197038326,-1.0863682335988523,23.550630511734365,0.2377717204424715,-2.0586624421093864,no_tremor
176,5726059,1.33,-0.33783090354849327,-0.08100784963561757,-1.0701688668164897,22.96395132054621,0.6475404328229429,-2.107044085729819,no_tremor
177,5726064,1.335,-0.33855570631268445,-0.0837824248564291,-1.0546251286300132,22.275226330645662,1.0183115285762172,-2.1347620258631226,no_tremor
178,5726069,1.34,-0.3393339190533723,-0.0864852238166527,-1.039789337619929,21.496211657655547,1.35119652131111,-2.1436440700058395,no_tremor
179,5726074,1.345,-0.3401626935950302,-0.08910523763471787,-1.0257065659159725,20.63854179786582,1.647407954518109,-2.1354761107587894,no_tremor
180,5726088,1.359,-0.34103856489242435,-0.09163302931452376,-1.0124146023260285,19.713649514445628,1.908251878895597,-2.111994999088206,no_tremor
181,5726093,1.364,-0.34195751515675404,-0.09406068859827361,-0.9999439753174849,18.732690854304813,2.135119841145238,-2.0748821715355454,no_tremor
182,5726098,1.369,-0.34291504196880096,-0.09638177602840262,-0.9883180336533502,17.706475743870676,2.3294804479017595,-2.025758013782381,no_tremor
183,5726123,1.394,-0.3439062296225861,-0.098591257546177,-0.9775530820644716,16.645404559752286,2.4928705638938764,-1.966176938440447,no_tremor
184,5726133,1.404,-0.34492582285352746,-0.10068543095842639,-0.9676585689603355,15.559411013461474,2.6268862011860774,-1.8976231527764844,no_tremor
185,5726138,1.409,-0.3459683020354898,-0.10266184559388165,-0.9586373228414851,14.457911626785764,2.7331731568724447,-1.8215070915465377,no_tremor
186,5726148,1.419,-0.3470279588920058,-0.10451921644940355,-0.9504858337732023,13.34976200538494,2.813417459009234,-1.739162490289583,no_tremor
187,5726153,1.424,-0.3480989717641234,-0.1062573340958212,-0.9431945760102703,12.243220043304545,2.8693356834857666,-1.6518440745551184,no_tremor
188,5726157,1.428,-0.3491754795084061,-0.10787697157329101,-0.9367483676270286,11.145916113697616,2.902665206815469,-1.5607258399290935,no_tremor
189,5726162,1.433,-0.3502516531542879,-0.10937978945579223,-0.9311267628098647,10.064830225933402,2.9151544611873486,-1.4668998960857695,no_tremor
190,5726167,1.438,-0.3513217645194446,-0.11076824020226347,-0.926304472315893,9.006276059452569,2.9085532590658314,-1.3713758459458871,no_tremor
191,5726172,1.443,-0.3523802510570288,-0.11204547283772492,-0.9222518074950794,7.975891720521416,2.8846032558641035,-1.2750806694305916,no_tremor
192,5726176,1.447,-0.3534217762852253,-0.11321523892269851,-0.9189351432137811,6.978637008739137,2.8450286210291,-1.1788590811269197,no_tremor
193,5726181,1.452,-0.35444128522598944,-0.1142818006755844,-0.9163173950036019,6.018796925174436,2.7915269900397335,-1.0834743325002718,no_tremor
194,5726205,1.476,-0.35543405435595926,-0.1152498420132404,-0.9143585057871729,5.099991103119865,2.7257607717768297,-0.9896094314501639,no_tremor
195,5726210,1.481,-0.35639573564899363,-0.11612438317320678,-0.9130159375977042,4.225188796095826,2.6493488865312456,-0.897868754200017,no_tremor
196,5726215,1.486,-0.3573223943673835,-0.1169106994808838,-0.9122451638073918,3.3967290170293243,2.5638590081861956,-0.8087800262418002,no_tremor
197,5726220,1.491,-0.3582105403379869,-0.1176142447309125,-0.9120001575065222,2.616345388547179,2.470800378710952,-0.7227966502144338,no_tremor
198,5726255,1.526,-0.35905715253005416,-0.11824057956717988,-0.9122338718259861,1.885195237190116,2.3716172542993315,-0.6403003593225541,no_tremor
199,5726260,1.531,-0.359859696832316,-0.11879530517062079,-0.9128987081676585,1.203892443061538,2.267683031965754,-0.561604175305969,no_tremor
200,5726265,1.536,-0.36061613700715506,-0.11928400249628927,-0.9139469685001452,0.5725435396434628,2.1602950949204076,-0.48695564989234374,no_tremor
201,5726269,1.54,-0.3613249388795611,-0.11971217723851467,-0.9153312880973925,-0.009213454325100616,2.050670405173766,-0.416540367760155,no_tremor
202,5726274,1.545,-0.3619850678989349,-0.12008521064371679,-0.9170050453519455,-0.5421679975072612,1.9399418619752082,-0.35048568704195615,no_tremor
203,5726279,1.55,-0.36259598029292484,-0.12040831623392242,-0.9189227455863036,-1.0274943132732548,1.8291554338804303,-0.28886469038628354,no_tremor
204,5726293,1.564,-0.363157608113265,-0.1206865024498843,-0.921040376111402,-1.46670752995502,1.7192680600770434,-0.231700316045454,no_tremor
205,5726299,1.57,-0.36367033855176173,-0.12092454117069788,-0.9233157301336372,-1.861619194917822,1.6111463039835872,-0.17896963500232765,no_tremor
206,5726304,1.575,-0.3641349879771559,-0.12112694201664212,-0.9257086974837091,-2.214292669564338,1.5055657311758814,-0.13060823737606825,no_tremor
207,5726308,1.579,-0.3645527712075433,-0.12129793229327399,-0.9281815205253499,-2.5269988919294692,1.4032109766460343,-0.08651468974287342,no_tremor
208,5726318,1.589,-0.36492526658634034,-0.12144144238714161,-0.930699013993436,-2.802172967151077,1.3046764642793556,-0.046555024716986124,no_tremor
209,5726323,1.594,-0.36525437747241335,-0.12156109637642278,-0.9332287479022462,-3.042372015400153,1.2104677433688746,-0.0105672246933143,no_tremor
210,5726328,1.599,-0.36554229078893297,-0.12166020757319065,-0.9357411930487003,-3.25023467324343,1.1210034109117009,0.021634337684375164,no_tremor
211,5726332,1.603,-0.36579143330363323,-0.12174177866820776,-0.9382098290057684,-3.4284426090825133,1.0366175923801295,0.05025453938156779,no_tremor
212,5726342,1.613,-0.36600442633788616,-0.12180850610506011,-0.9406112148528293,-3.579684377584082,0.9575629563114557,0.07551326401925337,no_tremor
213,5726367,1.638,-0.36618403962414336,-0.12186278826943726,-0.9429250232195653,-3.706621902828073,0.884014238166531,0.09764131278982612,no_tremor
214,5726372,1.643,-0.36633314504890757,-0.1219067370433407,-0.9451340385273402,-3.8118598447450442,0.8160722450263186,0.11687650569414351,no_tremor
215,5726377,1.648,-0.36645467102584645,-0.12194219224554408,-0.947224120598757,-3.8979180663289057,0.7537683045784818,0.13346000904774935,no_tremor
216,5726382,1.653,-0.3665515582328926,-0.1219707384615523,-0.9491841350765157,-3.9672073785233173,0.6970691118434398,0.14763292369754208,no_tremor
217,5726387,1.658,-0.3666267174122023,-0.12199372376036205,-0.9510058523521522,-4.022008696140955,0.6458819190060253,0.15963316504859848,no_tremor
218,5726392,1.663,-0.3666829898732208,-0.12201227980115006,-0.9526838169581577,-4.06445569369262,0.6000600102126238,0.16969266062011493,no_tremor
219,5726397,1.668,-0.36672311126383567,-0.12202734284847917,-0.9542151896256207,-4.096521006092596,0.5594084047455291,0.17803488392235728,no_tremor
220,5726406,1.677,-0.3667496790922599,-0.12203967523711401,-0.9555995644543283,-4.120005976285799,0.5236897376208047,0.18487273584744257,no_tremor
221,5726411,1.682,-0.36676512440124165,-0.12204988685500225,-0.9568387638825419,-4.136533909942838,0.4926302746331215,0.1904067775268302,no_tremor
222,5726416,1.687,-0.36677168792211984,-0.12205845624416026,-0.957936614378075,-4.147546756549152,0.46592602688066914,0.19482381254019032,no_tremor
223,5726420,1.691,-0.36677140097175326,-0.12206575095360571,-0.9588987059989207,-4.154305096345508,0.44324893533522614,0.19829581178734557,no_tremor
224,5726430,1.701,-0.3667660712999466,-0.12207204681607763,-0.9597321391883845,-4.157891273134702,0.4242530971033191,0.2009791712636906,no_tremor
225,5726435,1.706,-0.3667572740450223,-0.1220775458611954,-0.9604452623746461,-4.159215473223173,0.408581000870969,0.20301429118762632,no_tremor
