sample,t_ms,t_s,ax,ay,az,gx,gy,gz,tremor
0,4586012,0.0,-0.16429671604788568,-0.42831058005565004,0.8142714334668837,0.6229370199633583,2.4668408501263572,1.4393507995214674,no_tremor
1,4586022,0.01,-0.16500376803593972,-0.4280143415668214,0.8141712004577543,0.7207484241773885,2.0894636348681446,1.0608424187297942,no_tremor
2,4586026,0.014,-0.1660087669175163,-0.4276023462276753,0.81403333582226,0.8234852080239293,1.7233975160973356,0.6466195277896442,no_tremor
3,4586051,0.039,-0.1673538269442236,-0.42706355608767144,0.8138555043831217,0.9310110910774422,1.3708095791531152,0.19393842190840108,no_tremor
4,4586056,0.044,-0.1690318035713104,-0.4264077522782122,0.8136426999526392,1.0431451691419407,1.0338447225519602,-0.29998922566388575,no_tremor
5,4586061,0.049,-0.1710059189609155,-0.4256561119936128,0.8134038449302914,1.1596594741352868,0.7146110512660866,-0.8379806263625449,no_tremor
6,4586066,0.054,-0.17323038665927995,-0.42483221306074687,0.8131486432769522,1.2802767749606743,0.4151656188141959,-1.4228653105455005,no_tremor
7,4586075,0.063,-0.17566245021069313,-0.42395713541873564,0.812885905883731,1.4046686641445112,0.13750067374575534,-2.0574678786693874,no_tremor
8,4586080,0.068,-0.17826688400183352,-0.423047864626248,0.8126230316781011,1.5324539733319091,-0.11646944386372636,-2.744590215555743,no_tremor
9,4586085,0.073,-0.18101625394056373,-0.42211743610457525,0.812366084288803,1.6631975572230984,-0.3449206219533269,-3.4869933128564075,no_tremor
10,4586090,0.078,-0.1838894823645155,-0.4211757060201645,0.81212007404419,1.796409481249223,-0.5461303923286692,-4.287378843065841,no_tremor
11,4586095,0.083,-0.18687007705130698,-0.42023018859341865,0.8118892531255226,1.9315446440841242,-0.718488341237885,-5.148370626501417,no_tremor
12,4586100,0.088,-0.18994457768652612,-0.4192867514924609,0.8116773548206708,2.0680028616959025,-0.8605054353850857,-6.072496130124935,no_tremor
13,4586105,0.093,-0.19310136438572395,-0.4183501294294312,0.8114877656261283,2.205129434335287,-0.9708222090480642,-7.062168132951103,no_tremor
14,4586109,0.097,-0.19632980676789635,-0.41742427925863407,0.8113236399751154,2.342216211821485,-1.0482157831291126,-8.119666686863921,no_tremor
15,4586114,0.102,-0.19961968326840898,-0.41651261481751123,0.8111879718622889,2.4785031668709303,-1.0916057104162622,-9.247121495076236,no_tremor
16,4586119,0.107,-0.2029607989167669,-0.4156181565975936,0.811083636099598,2.6131804819265323,-1.1000586625585496,-10.446494824811635,no_tremor
17,4586124,0.112,-0.2063427431818233,-0.4147436234064658,0.8110134089346498,2.745391151907064,-1.0727919938969317,-11.719565066633882,no_tremor
18,4586129,0.117,-0.20975474466943672,-0.41389148547221505,0.8109799749544114,2.87423410290569,-1.0091762358532217,-13.067911049410744,no_tremor
19,4586133,0.121,-0.21318559218460315,-0.41306399235759045,0.8109859250203822,2.9987678246851637,-0.908736592353753,-14.492897215875457,no_tremor
20,4586138,0.126,-0.2166236011806867,-0.41226318466242345,0.8110337484274805,3.1180145125384477,-0.7711535202245732,-15.995659758046804,no_tremor
21,4586143,0.131,-0.220056611331075,-0.41149089547375967,0.8111258214146285,3.230964711086389,-0.5962624878965513,-17.577093803625367,no_tremor
22,4586148,0.136,-0.22347200554928542,-0.41074874550345075,0.8112643934407341,3.3365824480639423,-0.3840530119875128,-19.23784173343445,no_tremor
23,4586178,0.166,-0.22685674386681806,-0.4100381345263758,0.8114515721636545,3.4338108398954774,-0.13466707585433796,-20.978282695984426,no_tremor
24,4586183,0.171,-0.2301974076280029,-0.4093602308733045,0.811689307741739,3.52157814355371,0.15160296277112464,-22.798523369283018,no_tremor
25,4586197,0.185,-0.23348025081712784,-0.40871596018319034,0.8119793768644445,3.598804221698645,0.47431686841635157,-24.698390004690154,no_tremor
26,4586202,0.19,-0.2366912562287372,-0.40810599427315636,0.8123233667771271,3.6644073808148057,0.8328893293842251,-26.67742177615698,no_tremor
27,4586212,0.2,-0.23981619478383662,-0.40753074076800916,0.8127226594752873,3.7173115351264943,1.2265929812205172,-28.734865451919244,no_tremor
28,4586217,0.205,-0.24284068668663794,-0.4069903339955327,0.8131784161919932,3.7564536426470068,1.6545615945937495,-30.869671403003547,no_tremor
29,4586221,0.209,-0.24575026337776726,-0.40648462756592213,0.8136915622785689,3.7807913540050624,2.1157934017033844,-33.080490960792396,no_tremor
30,4586226,0.214,-0.24853042941810596,-0.40601318899194777,0.8142627725741232,3.78931080967464,2.6091545698987666,-35.36567513181927,no_tremor
31,4586231,0.219,-0.2511667235654456,-0.40557529665750164,0.8148924573666649,3.7810345165768844,3.1333828657561065,-37.72327467020171,no_tremor
32,4586245,0.233,-0.25364477840547334,-0.4051699393983926,0.815580749061451,3.755029230302786,3.6870915844933867,-40.15104149617133,no_tremor
33,4586250,0.238,-0.2559503779822241,-0.4047958189163261,0.8163274896863582,3.710413764398541,4.268773844132949,-42.64643143409181,no_tremor
34,4586255,0.243,-0.2580695129479341,-0.40445135520235553,0.8171322193764217,3.6463666438316156,4.876807355828174,-45.20660822689743,no_tremor
35,4586260,0.248,-0.25998843282092976,-0.4041346950977961,0.8179941659885691,3.56213351676791,5.509459777028019,-47.82844876679309,no_tremor
36,4586270,0.258,-0.26169369500260853,-0.4038437240671569,0.8189122360026359,3.457034237886493,6.1648947326065295,-50.508549463372375,no_tremor
37,4586295,0.283,-0.2631722102589611,-0.4035760811982801,0.8198850068665656,3.3304695380991705,6.841178555163729,-53.24323364863696,no_tremor
38,4586300,0.288,-0.26441128441713285,-0.4033291773801007,0.8209107209433498,3.1819271997903686,7.536287756421784,-56.02855989517536,no_tremor
39,4586305,0.293,-0.26539865606475566,-0.40310021654078587,0.8219872812154165,3.0109876632455963,8.24811720507608,-58.86033110555271,no_tremor
40,4586310,0.298,-0.2661225300744478,-0.40288621976316447,0.8231122488984919,2.817328998537399,8.974488959974032,-61.73410422639714,no_tremor
41,4586315,0.303,-0.2665716068148501,-0.4026840520357161,0.8242828431098025,2.6007311878837918,9.71316169453116,-64.64520045338733,no_tremor
42,4586319,0.307,-0.2667351069578324,-0.40249045134981043,0.8254959427225305,2.3610796763277753,10.461840647017222,-67.58871581904599,no_tremor
43,4586324,0.312,-0.26660279185070246,-0.40230205981874045,0.8267480905175274,2.0983681626053965,11.218188037249845,-70.5595320859501,no_tremor
44,4586329,0.317,-0.26616497949166495,-0.4021154564709219,0.8280354997132852,1.812700615921097,11.979833899257713,-73.55232789745531,no_tremor
45,4586334,0.322,-0.26541255622474397,-0.40192719135711014,0.8293540629161834,1.5042925172702022,12.744387288702244,-76.56159016327061,no_tremor
46,4586339,0.327,-0.264336984354815,-0.40173382060791357,0.8306993634865378,1.173471335877446,13.509447831273642,-79.58162567718665,no_tremor
47,4586349,0.337,-0.2629303059719053,-0.40153194208139026,0.8320666892643855,0.8206762620421915,14.272617582893853,-82.6065729787001,no_tremor
48,4586353,0.341,-0.261185143363619,-0.40131823124939164,0.8334510485455374,0.4464572265145429,15.031513173884825,-85.63041447922912,no_tremor
49,4586358,0.346,-0.25909469648153904,-0.4010894769841516,0.834847188147347,0.05147324301840468,15.783778206553363,-88.64698887756816,no_tremor
50,4586363,0.351,-0.2566527380065591,-0.40084261692227974,0.8362496133597977,-0.36350988497155307,16.52709586804058,-91.6500038890118,no_tremor
51,4586373,0.361,-0.2538536066234625,-0.40057477210083153,0.8376526095455277,-0.7976224487107468,17.259201707545607,-94.63304930861331,no_tremor
52,4586378,0.366,-0.2506921991610287,-0.40028328057859286,0.8390502651351849,-1.2498942622810703,17.9778965096878,-97.58961042119599,no_tremor
53,4586382,0.37,-0.24716396227523715,-0.3999657297742673,0.8404364957625665,-1.7192585832398024,18.681059174785897,-100.5130817593743,no_tremor
54,4586387,0.375,-0.2432648843454955,-0.3996199872711667,0.8418050692961732,-2.204556471110653,19.36665949349911,-103.39678119746715,no_tremor
55,4586419,0.407,-0.23899148821598093,-0.39924422985484104,0.8431496315479458,-2.7045415257025494,20.032770679209076,-106.23396435532048,no_tremor
56,4586424,0.412,-0.23434082534982079,-0.3988369705657009,0.8444637324731142,-3.217884945255042,20.677581498753273,-109.01783927284502,no_tremor
57,4586429,0.417,-0.22931047188111178,-0.3983970835629494,0.8457408527135181,-3.743180844710374,21.299407823446913,-111.74158130649457,no_tremor
58,4586434,0.422,-0.2238985269588572,-0.39792382660852865,0.846974430376051,-4.278951777362724,21.896703410809252,-114.39834819829707,no_tremor
59,4586438,0.426,-0.21810361368694406,-0.39741686098947276,0.8481578879734584,-4.8236544082588955,22.468069724279477,-116.98129527912839,no_tremor
60,4586443,0.431,-0.21192488288116393,-0.3968762687033686,0.8492846594825659,-5.375685294062267,23.012264601697506,-119.48359078664652,no_tremor
61,4586448,0.436,-0.205362019789749,-0.39630256673448316,0.8503482174924927,-5.933386730664343,23.528209590399275,-121.89843129727784,no_tremor
62,4586453,0.441,-0.19841525385605627,-0.3956967182481475,0.851342100421438,-6.495052635885345,24.01499577539075,-124.21905728590009,no_tremor
63,4586463,0.451,-0.19108537153675276,-0.3950601405295632,0.8522599397757029,-7.058934439722378,24.47188793635069,-126.43876883505155,no_tremor
64,4586468,0.456,-0.183373732121706,-0.39439470949239147,0.8530954874103769,-7.623246958768608,24.89832687888145,-128.55094151832282,no_tremor
65,4586472,0.46,-0.1752822864298035,-0.3937027605850235,0.8538426427302337,-8.186174235126735,25.29392979620533,-130.54904248233441,no_tremor
66,4586477,0.465,-0.16681359817774621,-0.3929870859313342,0.8544954797450929,-8.745875324196755,25.658488531549338,-132.42664675155376,no_tremor
67,4586482,0.47,-0.15797086773960314,-0.39225092756060553,0.855048273869723,-9.300490020732626,25.99196563128449,-134.17745378202991,no_tremor
68,4586487,0.475,-0.14875795794059785,-0.3914979666096621,0.8554955283375915,-9.84814451852598,26.29448810587551,-135.79530429300436,no_tremor
69,4586497,0.485,-0.13917942146901618,-0.39073230841915424,0.8558320000833848,-10.386957005646115,26.566338850131306,-137.27419740678042,no_tremor
70,4586501,0.489,-0.12924052945529982,-0.38995846349411256,0.85605272494401,-10.915043204039922,26.807945716192616,-138.60830812527476,no_tremor
71,4586506,0.494,-0.11894730076499124,-0.3891813243539767,0.8561530420340839,-11.430521869005727,27.01986828206058,-139.7920051658775,no_tremor
72,4586511,0.499,-0.10830653158606637,-0.38840613835589716,0.8561286171710448,-11.931520269742116,27.20278241416524,-140.819869170161,no_tremor
73,4586516,0.504,-0.09732582496126946,-0.387638476633388,0.8559754652565998,-12.41617967588914,27.357462781899738,-141.68671128721073,no_tremor
74,4586543,0.531,-0.08601362001853353,-0.3868841993466682,0.8556899715629909,-12.882660876048904,27.484763541796966,-142.38759211889035,no_tremor
75,4586553,0.541,-0.0743792207769073,-0.38614941748761933,0.8552689119203505,-13.329149752404415,27.58559746618596,-142.91784099665412,no_tremor
76,4586562,0.55,-0.0624328245274665,-0.3854404515167888,0.8547094718491195,-13.753862931116188,27.660913843528522,-143.2730755380969,no_tremor
77,4586567,0.555,-0.05018554986966738,-0.38476378712746634,0.8540092647214952,-14.155053522412537,27.711675522525244,-143.44922140637118,no_tremor
78,4586572,0.56,-0.03764946448576363,-0.38412602843004934,0.8531663490614254,-14.531016958659183,27.7388355059557,-143.44253216750087,no_tremor
79,4586577,0.565,-0.02483761264501019,-0.3835338488312271,0.8521792451006859,-14.880096933684252,27.743313520280324,-143.24960911028512,no_tremor
80,4586582,0.57,-0.011764042260972824,-0.38299393985395175,0.8510469507002725,-15.200691441582883,27.72597299279548,-142.86742086183423,no_tremor
81,4586587,0.575,0.0015561688886473937,-0.3825129581136576,0.8497689567252649,-15.491258907234242,27.687598861128784,-142.29332259991517,no_tremor
82,4586592,0.58,0.01510688839721814,-0.38209747063993843,0.8483452619313141,-15.750324393295816,27.628876622193292,-141.52507463229975,no_tremor
83,4586597,0.585,0.028870906751395146,-0.38175389871476806,0.8467763873852254,-15.976485859276767,27.55037300101436,-140.56086008422295,no_tremor
84,4586602,0.59,0.0428299181563753,-0.3814884603905993,0.8450633904033841,-16.16842043764992,27.45251858524146,-139.39930140928143,no_tremor
85,4586607,0.595,0.056964505822409216,-0.38130711185560784,0.8432078779522347,-16.324890680668727,27.3355927300032,-138.03947541871162,no_tremor
86,4586611,0.599,0.07125413296498223,-0.3812154878297443,0.8412120194166539,-16.444750720718815,27.199710991890086,-136.48092651119242,no_tremor
87,4586616,0.604,0.08567714081490718,-0.3812188412044852,0.8390785586066077,-16.526952277538328,27.044815301786006,-134.72367778166225,no_tremor
88,4586621,0.609,0.10021075492788546,-0.38132198218119717,0.8368108248415216,-16.570550438106455,26.87066703433056,-132.76823969400968,no_tremor
89,4586626,0.614,0.11483110102618295,-0.3815292172174628,0.83441274292646,-16.5747091301579,26.6768430762652,-130.61561601992514,no_tremor
90,4586636,0.624,0.12951323149787405,-0.38184428815691884,0.8318888418151633,-16.53870620911654,26.462734935945267,-128.26730677622228,no_tremor
91,4586641,0.629,0.14423116352159365,-0.38227031199515144,0.8292442617421033,-16.461938081217173,26.227550871817982,-125.72530793688371,no_tremor
92,4586668,0.656,0.15895792957821997,-0.38280972182025913,0.8264847595977775,-16.343923791719135,25.970320950737708,-122.99210775382677,no_tremor
93,4586673,0.661,0.173665640860388,-0.38346420955821753,0.8236167123159643,-16.18430851459669,25.68990488306153,-120.0706795892253,no_tremor
94,4586678,0.666,0.18832556380780857,-0.3842346712429043,0.8206471180348973,-15.98286638776649,25.385002428308237,-116.96447123645085,no_tremor
95,4586683,0.671,0.20290820969952394,-0.3851211556076849,0.8175835947826643,-15.739502645614536,25.05416612893893,-113.67739077908352,no_tremor
96,4586688,0.676,0.21738343694280232,-0.38612281684896865,0.8144343764190293,-15.454255008633504,24.695816111369574,-110.21378910311148,no_tremor
97,4586693,0.681,0.23172056542392225,-0.3872378724361633,0.8112083055431685,-15.127294298951298,24.308256688420045,-106.5784392362039,no_tremor
98,4586698,0.686,0.24588850203005516,-0.3884635668371676,0.8079148230540114,-14.758924260820727,23.88969450047958,-102.77651274191903,no_tremor
99,4586702,0.69,0.25985587621046896,-0.3897961419976608,0.8045639540319695,-14.349580576421415,23.438257939603517,-98.81355344680372,no_tremor
100,4586707,0.695,0.2735911842171544,-0.39123081536040266,0.801166289601717,-13.899829078730331,22.952017608857147,-94.69544882421566,no_tremor
101,4586716,0.704,0.2870629404508587,-0.39276176614146263,0.7977329644378658,-13.410363174016352,22.429007576988624,-90.42839940041311,no_tremor
102,4586726,0.714,0.30023983414354494,-0.39438213049684434,0.7942756295901143,-12.882000496461888,21.86724719597469,-86.01888658633067,no_tremor
103,4586731,0.719,0.31309088944357444,-0.3960840061174086,0.7908064203321266,-12.315678826482822,21.264763256818526,-81.4736393713916,no_tremor
104,4586736,0.724,0.3255856268527943,-0.397858466683215,0.7873379187789286,-11.712451312300034,20.61961226708352,-76.79960034022483,no_tremor
105,4586741,0.729,0.33769422391247417,-0.39969558649027087,0.7838831110713675,-11.073481041075146,19.929902641588495,-72.00389148506363,no_tremor
106,4586746,0.734,0.34938767305434887,-0.40158447543266373,0.7804553389944306,-10.400035012017906,19.193816606482653,-67.09378028494339,no_tremor
107,4586756,0.744,0.36063793461554255,-0.40351332438101317,0.7770682459810724,-9.693477570370925,18.409631629312496,-62.07664651199971,no_tremor
108,4586760,0.748,0.3714180831442605,-0.4054694608452193,0.7737357175566073,-8.955263368706458,17.575741206297046,-56.95995021176369,no_tremor
109,4586765,0.753,0.38170244527885866,-0.40743941464880845,0.7704718164014219,-8.18692993037649,16.690674863379687,-51.75120129196308,no_tremor
110,4586792,0.78,0.3914667276525393,-0.40940899317947776,0.767290712350248,-7.390089898882522,15.753117257907622,-46.45793114268835,no_tremor
111,4586797,0.785,0.4006881334503833,-0.41136336562380726,0.7642066077994422,-6.566423066007619,14.761926299197482,-41.08766669754055,no_tremor
112,4586807,0.795,0.4093454664202903,-0.4132871554539819,0.7612336591488384,-5.717668279711627,13.71615023254005,-35.64790732541488,no_tremor
113,4586817,0.805,0.41741922131543685,-0.415164540322498,0.7583858950454192,-4.845615338095825,12.615043644618913,-30.14610490792689,no_tremor
114,4586826,0.814,0.4248916599272915,-0.41697935844611794,0.755677132305735,-3.9520969765137646,11.458082344092766,-24.589647403332982,no_tremor
115,4586831,0.819,0.4317468720584481,-0.418715220523688,0.7531208904633702,-3.0389810504888857,10.244977051338871,-18.98584612727192,no_tremor
116,4586836,0.824,0.43797082098344264,-0.42035562622638706,0.7507303059169648,-2.108163007474215,8.975685803564257,-13.341926901042314,no_tremor
117,4586841,0.829,0.44355137314992954,-0.4218840843123187,0.7485180466496624,-1.161558726221196,7.650424954065517,-7.665025135617476,no_tremor
118,4586846,0.834,0.44847831207676314,-0.423284235439916,0.7464962284606909,-0.20109778543701365,6.269678623840759,-1.962184839512664,no_tremor
119,4586850,0.838,0.45274333660363436,-0.424539976779331,0.7446763336022431,0.7712827936459876,4.834206454133529,3.7596385337281144,no_tremor
120,4586865,0.853,0.45634004383382604,-0.42563558754380754,0.743069132656742,1.7536443006259244,3.3450495124684467,9.493571544226429,no_tremor
121,4586869,0.857,0.4592638972847832,-0.42655585458227807,0.7416846104259233,2.74405156567895,1.8035342243586163,15.232812728621028,no_tremor
122,4586874,0.862,0.4615121809217149,-0.427286197189718,0.7405318965371127,3.7405776532684456,0.21127423904211257,20.97061931346283,no_tremor
123,4586879,0.867,0.46308393990241475,-0.42781279030329344,0.7396192014054155,4.741308012286693,-1.4298298109850218,26.700290977083835,no_tremor
124,4586884,0.872,0.4639799090141646,-0.4281226852598676,0.7389537581244525,5.744344079016729,-3.117592633957604,32.415151015412995,no_tremor
125,4586889,0.877,0.4642024299429001,-0.42820392729293627,0.738541770793857,6.747806332496363,-4.8495485945009635,38.10852532657363,no_tremor
126,4586914,0.902,0.4637553586855307,-0.428045668942481,0.7383883697300414,7.749836804009862,-6.622957859697539,43.77371968256545,no_tremor
127,4586919,0.907,0.4626439645995083,-0.4276382785367798,0.7384975739486298,8.748601043752386,-8.434814152029807,49.40399579946642,no_tremor
128,4586924,0.912,0.4608748227741825,-0.42697344287811645,0.738872261252975,9.742289549710572,-10.281853840619291,54.992546752851986,no_tremor
129,4586934,0.922,0.45845570159323007,-0.4260442632231702,0.7395141462134239,10.729118668632246,-12.160566084890554,60.53247231900783,no_tremor
130,4586944,0.932,0.4553954475195431,-0.42484534359572007,0.7404237662754073,11.707330987776112,-14.067203759247,66.01675485826915,no_tremor
131,4586949,0.937,0.4517038692580733,-0.42337287041123434,0.7416004761880928,12.675195248436092,-15.997794927211899,71.43823639054715,no_tremor
132,4586958,0.946,0.4473916235262947,-0.4216246823416632,0.7430424508943614,13.6310058269489,-17.94815468746352,76.78959753716872,no_tremor
133,4586963,0.951,0.4424701046762705,-0.41960032931808244,0.7447466969614767,14.573081845071478,-19.913897273213948,82.06333901137684,no_tremor
134,4586968,0.956,0.4369513403596276,-0.4173011195711541,0.7467090725552907,15.499765987729713,-21.890448344924977,87.25176632898801,no_tremor
135,4586973,0.961,0.4308478953048868,-0.41473015365325816,0.7489243158669406,16.40942311982515,-23.873057470857802,92.3469783799353,no_tremor
136,4586978,0.966,0.4241727850892102,-0.41189234447574785,0.7513860817901826,17.30043880290078,-25.856810838456163,97.34086045165421,no_tremor
137,4586987,0.975,0.41693940154197484,-0.4087944225305591,0.7540869865221816,18.17121781614201,-27.836644281389084,102.22508222765828,no_tremor
138,4587001,0.989,0.4091614511263517,-0.4054449256452986,0.7570186596245003,19.020182785016033,-29.807356741717015,106.99110119917566,no_tremor
139,4587006,0.994,0.4008529073177538,-0.40185417284091823,0.760171802939816,19.845773016508385,-31.763624313265097,111.63017182475232,no_tremor
140,4587011,0.999,0.3920279776436157,-0.3980342221144899,0.7635362556216589,20.6464436344027,-33.700015030070745,116.13336065614823,no_tremor
141,4587042,1.03,0.3827010856763827,-0.3939988122462187,0.7671010644086153,21.4206651026338,-35.61100457195982,120.49156752528928,no_tremor
142,4587047,1.035,0.37288686789253805,-0.3897632890155625,0.7708545581690637,22.166923219319838,-37.490993057037294,124.69555276272281,no_tremor
143,4587052,1.04,0.3626001849405846,-0.3853445164875394,0.7747844256637032,22.883719657712508,-39.33432307746498,128.7359702999601,no_tremor
144,4587057,1.045,0.35185614651712366,-0.38076077427509164,0.7788777954265,23.569573122377797,-41.13529910995203,132.6034064056715,no_tremor
145,4587062,1.05,0.3406701487466766,-0.3760316418785247,0.783121316654655,24.223021179600547,-42.888208395311395,136.28842372442972,no_tremor
146,4587067,1.055,0.3290579227062835,-0.37117787134285585,0.7875012400244481,24.842622810791937,-44.58734333130368,139.78161022142584,no_tremor
147,4587077,1.065,0.31703559253341523,-0.3662212495660756,0.7920034974063774,25.426961726735446,-46.22702535951077,143.0736325762506,no_tremor
148,4587086,1.074,0.30461974140479475,-0.3611844516492326,0.7966137795315139,25.974650468486594,-47.80163025163825,146.15529350671378,no_tremor
149,4587110,1.098,0.29182748357112537,-0.3560908867143568,0.8013176107543952,26.484335307343372,-49.30561461734874,149.01759244127732,no_tremor
150,4587116,1.104,0.2786765405737295,-0.35096453763515667,0.8061004201617139,26.954701942015003,-50.73354337241335,151.65178890340755,no_tremor
151,4587121,1.109,0.26518531974998344,-0.3458297961303845,0.8109476083885453,27.38448197695667,-52.08011783661179,154.04946793238685,no_tremor
152,4587125,1.113,0.2513729931555997,-0.34071129466098704,0.8158446096243073,27.772460151944873,-53.34020409204967,156.2026068488043,no_tremor
153,4587130,1.118,0.23725957509807077,-0.3356337365508692,0.8207769484188792,28.117482277699082,-54.50886123340526,158.10364267635262,no_tremor
154,4587162,1.15,0.2228659965918854,-0.33062172572107756,0.8257302910350436,28.418463813465205,-55.58136917768217,159.7455395441782,no_tremor
155,4587167,1.155,0.20821417520926705,-0.3256995973933849,0.8306904912365156,28.674398999644573,-56.55325576131322,161.12185540558232,no_tremor
156,4587176,1.164,0.19332707898982918,-0.3208912510845339,0.8356436305513913,28.884370434825083,-57.420322928163955,162.22680741639653,no_tremor
157,4587181,1.169,0.17822878325091202,-0.31621998717599503,0.8405760532078848,29.047558966877485,-58.17867189602089,163.05533532347147,no_tremor
158,4587186,1.174,0.16294451926869888,-0.3117083483030502,0.8454743960973164,29.1632537553652,-58.82472727083037,163.60316222482342,no_tremor
159,4587191,1.179,0.14750071386056296,-0.30737796675922946,0.8503256142670405,29.230862356840806,-59.35526014326381,163.8668520794612,no_tremor
160,4587196,1.184,0.131925018900433,-0.3032494190576727,0.8551170025689266,29.249920682825913,-59.76741024012789,163.84386336562318,no_tremor
161,4587201,1.189,0.11624632976587809,-0.2993420887312936,0.8598362141752703,29.220102680164462,-60.05870721067644,163.5325983094925,no_tremor
162,4587206,1.194,0.10049479167486074,-0.29567403839011075,0.8644712767173511,29.141229584633596,-60.22709110868071,162.93244713185038,no_tremor
163,4587211,1.199,0.08470179284384227,-0.2922618919874504,0.8690106068015223,29.013278601777774,-60.270932091001626,162.04382678853085,no_tremor
164,4587221,1.209,0.06889994340281907,-0.28912072817654094,0.8734430236170776,28.836390873900427,-60.189049297344916,160.8682137138085,no_tremor
165,4587230,1.218,0.05312303904588908,-0.28626398556403687,0.8777577622757422,28.610878597975468,-59.98072880762415,159.40817011520406,no_tremor
166,4587235,1.223,0.03740600848038052,-0.28370338058537414,0.8819444874236503,28.337231164936295,-59.645740496878844,157.66736341299372,no_tremor
167,4587240,1.228,0.02178484385940469,-0.28144883863673403,0.8859933075542895,28.016120196597054,-59.18435352937213,155.65057846546665,no_tremor
168,4587245,1.233,0.006296513533592977,-0.2795084389987483,0.8898947903367709,27.64840336358073,-58.597350162666686,153.3637222687632,no_tremor
169,4587250,1.238,-0.00902114337115284,-0.2778883739784697,0.8936399791672298,27.235126876754865,-57.8860374785508,150.81382086654122,no_tremor
170,4587255,1.243,-0.02412954085811432,-0.27659292258090157,0.8972204110569483,26.77752655505053,-57.052256626372255,148.0090082509235,no_tremor
171,4587260,1.248,-0.03898948855859229,-0.2756244389028558,0.9006281358891766,26.277027382923848,-56.09838915703247,144.95850708540004,no_tremor
172,4587288,1.276,-0.05356135273017912,-0.27498335532344226,0.903855737005157,25.735241480919264,-55.02736004165986,141.67260113641535,no_tremor
173,4587293,1.281,-0.0678052354395079,-0.27466820044976736,0.9068963530148682,25.153964423978678,-53.84263700549851,138.16259936578453,no_tremor
174,4587297,1.285,-0.08168117137859326,-0.2746756316652227,0.9097437006652871,24.53516985607131,-52.548225859993344,134.44079171052485,no_tremor
175,4587302,1.29,-0.09514934150716198,-0.2750004820212942,0.9123920985341263,23.881002367808325,-51.14866157693593,130.5203966574517,no_tremor
176,4587307,1.295,-0.1081703024280092,-0.27563582110994295,0.9148364912466569,23.19376862629187,-49.64899491086987,126.41550080458278,no_tremor
177,4587312,1.3,-0.1207052300788359,-0.2765730294475473,0.9170724738364752,22.47592677285488,-48.054774437055585,122.14099068997452,no_tremor
178,4587317,1.305,-0.1327161759556201,-0.2778018857872811,0.9190963157902734,21.73007413378995,-46.37202393391756,117.71247726230611,no_tremor
179,4587327,1.315,-0.14416633367083193,-0.2793106666497487,0.9209049842370374,20.958933321082615,-44.60721510414104,113.14621346635462,no_tremor
180,4587332,1.32,-0.15502031320729245,-0.2810862572194956,0.9224961656710342,20.16533683323393,-42.767235699212975,108.45900551795239,no_tremor
181,4587341,1.329,-0.1652444197802067,-0.28311427259903604,0.9238682855448278,19.352210297640706,-40.85935318813702,103.66811854238352,no_tremor
182,4587346,1.334,-0.1748069338027772,-0.28537918824791125,0.9250205250438408,18.52255452265337,-38.891174191107545,98.79117734264034,no_tremor
183,4587351,1.339,-0.18367838810852388,-0.2878644782719751,0.9259528343666145,17.67942654855776,-36.87059998145071,93.84606314734867,no_tremor
184,4587356,1.344,-0.19183183835572945,-0.2905527600801751,0.9266659418884581,16.825919904414967,-34.8057784422839,88.85080726372396,no_tremor
185,4587361,1.349,-0.19924312244922576,-0.29342594380386655,0.9271613586768243,15.965144294912076,-32.7050529464448,83.82348263142848,no_tremor
186,4587380,1.368,-0.2058911048609279,-0.2964653847834278,0.9274413779446885,15.100204959605428,-30.576908707906778,78.7820943405502,no_tremor
187,4587385,1.373,-0.2117579018918737,-0.2996520373695031,0.9275090691607245,14.234181964989647,-28.42991722724376,73.74447023970957,no_tremor
188,4587412,1.4,-0.21682908416510868,-0.3029666082603517,0.9273682666690232,13.370109704172933,-26.27267951538756,68.72815281130923,no_tremor
189,4587417,1.405,-0.22109385294377856,-0.30638970760386586,0.9270235527951285,12.510956885509538,-24.11376881752742,63.750293516720525,no_tremor
190,4587422,1.41,-0.2245451872180356,-0.30990199613951597,0.9264802355223931,11.659607287353262,-21.96167356315282,58.82755079938891,no_tremor
191,4587427,1.415,-0.22717995889942239,-0.31348432675050225,0.9257443209123208,10.818841539734247,-19.824741238297523,53.97599286957477,no_tremor
192,4587432,1.42,-0.2289990139115328,-0.31711787894105875,0.9248224805178885,9.991320166064986,-17.71112382118452,49.21100628585155,no_tremor
193,4587436,1.424,-0.23000721747404088,-0.32078428493702943,0.9237220141031077,9.179568082505364,-15.628725356588804,44.547211213510636,no_tremor
194,4587441,1.429,-0.23021346243421895,-0.3244657463122195,0.922450808036637,8.385960713953791,-13.58515217897045,39.99838409834125,no_tremor
195,4587456,1.444,-0.2296306400879568,-0.3281451402546483,0.9210172897720209,7.612711847128703,-11.587666235416389,35.57738835704238,no_tremor
196,4587461,1.449,-0.22827557353005945,-0.33180611479745015,0.9194303788616418,6.861863304505618,-9.643141906720295,31.29611355488334,no_tremor
197,4587466,1.454,-0.2261689141583516,-0.33543317254370175,0.9176994349752634,6.135276488584641,-7.758026674886243,27.165423415045247,no_tremor
198,4587470,1.458,-0.2233350025040142,-0.33901174260899497,0.9158342034068625,5.434625814091957,-5.938305933105208,23.195112880199204,no_tremor
199,4587475,1.463,-0.21980169505229416,-0.342528240687102,0.9138447585560225,4.761394016049669,-4.189472177044444,19.393874325842575,no_tremor
200,4587480,1.468,-0.2156001591449287,-0.34597011731044675,0.9117414458647694,4.1168692941665235,-2.516498754943016,15.769272910490342,no_tremor
201,4587485,1.473,-0.21076463842120852,-0.34932589452703966,0.9095348226807712,3.5021442290186964,-0.9238182913018478,12.327730944752886,no_tremor
202,4587490,1.478,-0.20533219156699184,-0.35258519134857913,0.9072355985066921,2.918116383428348,0.5846941624977936,9.074521072752908,no_tremor
203,4587495,1.483,-0.1993424074087398,-0.3557387384406862,0.9048545750857749,2.365490483591145,2.0057332555198863,6.01376798611551,no_tremor
204,4587499,1.487,-0.19283709961946247,-0.358778382626152,0.9024025867671799,1.8447820590130117,3.336570800719552,3.1484583322876794,no_tremor
205,4587509,1.497,-0.18585998449994048,-0.36169708185605254,0.8998904415922815,1.3563224085716175,4.575058679764637,0.48045843397723187,no_tremor
206,4587544,1.532,-0.1784563454635332,-0.364488891371758,0.8973288635455745,0.9002647527110995,5.719627334294679,-1.9894605964158802,no_tremor
207,4587564,1.552,-0.17067268798276128,-0.36714894183279845,0.8947284364206839,0.47659142915260255,6.769280020316044,-4.261590786916305,no_tremor
208,4587569,1.557,-0.16255638883885778,-0.36967341022015415,0.892099549760526,0.08512199055926034,7.723583025669121,-6.33724873934694,no_tremor
209,4587573,1.561,-0.15415534353371976,-0.3720594843406511,0.8894523473345897,-0.27447793430698136,8.582652066746284,-8.218731046692435,no_tremor
210,4587578,1.566,-0.1455176156628352,-0.3743053217557989,0.8867966786067034,-0.6026871501644999,9.347135092699695,-9.909264204264831,no_tremor
211,4587583,1.571,-0.1366910919066998,-0.376410003939619,0.8841420536165946,-0.9001189043518752,10.018191735588557,-11.412949558540713,no_tremor
212,4587588,1.576,-0.12772314608951665,-0.37837348643815416,0.8814976016469432,-1.1675105175874931,10.597469653930824,-12.734703870559434,no_tremor
213,4587593,1.581,-0.11866031549611639,-0.3801965457619104,0.8788720339788775,-1.405712750169807,11.087078025029182,-13.880196097219779,no_tremor
214,4587598,1.586,-0.10954799234816481,-0.38188072369449266,0.8762736109595342,-1.6156790076598264,11.489558449260088,-14.855781010645215,no_tremor
215,4587603,1.591,-0.1004301330318877,-0.38342826964879023,0.8737101135216948,-1.7984544791517685,11.80785353878244,-15.668430282634267,no_tremor
216,4587607,1.595,-0.09134898735142655,-0.3848420816486915,0.8711888192128988,-1.9551652901288077,12.0452734743163,-16.325661659849228,no_tremor
217,4587612,1.6,-0.08234484976226143,-0.3861256464617896,0.8687164827142079,-2.0870077416422355,12.20546082581073,-16.83546684824634,no_tremor
218,4587617,1.605,-0.0734558342245421,-0.38728297935923833,0.8662993207604364,-2.195237698810327,12.292353944741556,-17.206238713828643,no_tremor
219,4587622,1.61,-0.06471767401244813,-0.38831856393513114,0.8639430013166919,-2.281160184735771,12.310149246857472,-17.446698391447406,no_tremor
220,4587627,1.615,-0.056163547527761745,-0.38923729238138277,0.861652636821995,-2.346119230728234,12.263262713952981,-17.56582287393169,no_tremor
221,4587658,1.646,-0.047823930897564995,-0.3900444065860113,0.8594327812800256,-2.3914880294203655,12.156290950321141,-17.572773630200633,no_tremor
222,4587663,1.651,-0.03972647788896094,-0.3907454404024803,0.8572874309589854,-2.4186594330697426,11.99397213153268,-17.476826773341283,no_tremor
223,4587673,1.661,-0.03189592744429132,-0.39134616342313533,0.8552200284550739,-2.4290368345628175,11.781147177652192,-17.28730526808601,no_tremor
224,4587677,1.665,-0.024354038918209454,-0.3918525265766517,0.8532334698737227,-2.4240254632467546,11.52272146891104,-17.01351363166126,no_tremor
225,4587682,1.67,-0.01711955487080958,-0.3922706098529002,0.8513301148860762,-2.4050241216380046,11.223627400775642,-16.664675542587517,no_tremor
226,4587687,1.675,-0.010208191031967136,-0.39260657243497477,0.8495117994233148,-2.373417382498118,10.888788051058395,-16.24987472931765,no_tremor
227,4587692,1.68,-0.003632652802954192,-0.3928666054860135,0.8477798507781842,-2.3305682595414874,10.523082207887114,-15.777999466112448,no_tremor
228,4587697,1.685,0.002597322590239647,-0.39305688779893316,0.8461351048922862,-2.277811360208019,10.131310985275553,-15.257690959100787,no_tremor
229,4587702,1.69,0.008474899422960536,-0.39318354447278886,0.8445779256197313,-2.216446525966465,9.718166231719852,-14.697295862239505,no_tremor
230,4587707,1.695,0.01399605364040174,-0.3932526087332102,0.8431082257723286,-2.14773296404261,9.288200915400015,-14.10482312070292,no_tremor
231,4587711,1.699,0.019159461444542995,-0.3932699869692528,0.8417254897673654,-2.0728838734011164,8.845801647295168,-13.48790529700109,no_tremor
232,4587716,1.704,0.02396636806513619,-0.3932414270174968,0.8404287977145927,-1.9930615666602909,8.39516348212964,-12.853764492374832,no_tremor
233,4587721,1.709,0.028420438643790347,-0.3931724896879362,0.8392168507925419,-1.9093730883386986,7.940267117578707,-12.209182934001234,no_tremor
234,4587726,1.714,0.03252759329540608,-0.3930685234957935,0.8380879977743786,-1.8228663287913993,7.484858594303022,-11.560478259522432,no_tremor
235,4587731,1.719,0.03629582851703473,-0.3929346425387866,0.837040262569071,-1.7345266328699993,7.032431581988796,-10.913483495820408,no_tremor
236,4587740,1.728,0.03973502719044264,-0.3927757074400024,0.8360713726441331,-1.6452739027641994,6.5862123187751465,-10.273531698498886,no_tremor
237,4587745,1.733,0.042856759471851254,-0.39259630926160455,0.8351787881914197,-1.5559601950065365,6.149147253242399,-9.645445190851106,no_tremor
238,4587750,1.738,0.04567407688189434,-0.3924007562832817,0.8343597318877122,-1.467367811602585,5.723893419939577,-9.033529315132167,no_tremor
239,4587755,1.743,0.04820130190289908,-0.39219306353092986,0.8336112190878744,-1.3802078846730674,5.312811561423118,-8.441570584722522,no_tremor
240,4587780,1.768,0.050453815361914574,-0.39197694493514323,0.8329300882716052,-1.295119453050181,4.917961991686482,-7.872839104043847,no_tremor
241,4587785,1.773,0.052447843829761726,-0.3917558079955826,0.8323130315474747,-1.2126690277726755,4.541103177224623,-7.33009510420105,no_tremor
242,4587795,1.783,0.05420024920231691,-0.39153275082642747,0.8317566250029225,-1.133350641171168,4.183692992678267,-6.815599424881106,no_tremor
243,4587799,1.787,0.05572832255351685,-0.3913105614602549,0.8312573586792693,-1.057586371646085,3.8468925886671217,-6.331127754308223,no_tremor
244,4587804,1.792,0.057049584262221884,-0.39109171929292563,0.8308116659486537,-0.9857273342382469,3.53157279119269,-5.877988417333367,no_tremor
245,4587809,1.797,0.058181592317319224,-0.3908783985599485,0.8304159520754201,-0.9180551263319322,3.238322935750783,-5.457043477912985,no_tremor
246,4587814,1.802,0.05914176059606749,-0.3906724737443413,0.8300666217564486,-0.8547837181917681,2.9674620251710504,-5.068732898554287,no_tremor
247,4587819,1.807,0.05994718878805338,-0.3904755268260199,0.8297601054510428,-0.7960617789190246,2.719052087731999,-4.713101477458645,no_tremor
248,4587824,1.812,0.06061450549993707,-0.3902888562920319,0.8294928843290885,-0.7419754292629547,2.4929136004381887,-4.389828264864816,no_tremor
249,4587829,1.817,0.06115972592350371,-0.3901134878343845,0.8292615136843129,-0.6925514130451002,2.2886428302332744,-4.098258143783024,no_tremor
250,4587833,1.821,0.061598125280884326,-0.38995018666678705,0.8290626446760216,-0.6477606781511136,2.105630931887454,-3.8374352467535346,no_tremor
251,4587838,1.826,0.061944129076188535,-0.3897994713925277,0.8288930442766373,-0.6075223555642634,1.9430846242476179,-3.606137868846686,no_tremor
252,4587843,1.831,0.062211220983019865,-0.3896616293523838,0.8287496133132913,-0.5717081205674637,1.800048246160757,-3.402914527131641,no_tremor
253,4587848,1.836,0.062411868983968215,-0.3895367333736076,0.8286294024997731,-0.5401469143974081,1.675426969972615,-3.2261208076348287,no_tremor
254,4587853,1.841,0.06255747015315109,-0.38942465982851693,0.828529626360868,-0.5126299980688088,1.5680109246504608,-3.073956631772537,no_tremor
255,4587862,1.85,0.06265831423825624,-0.3893251078941763,0.8284476749553942,-0.4889163032946554,1.476499953276621,-2.944503565030194,no_tremor
256,4587867,1.855,0.06272356595624938,-0.38923761988342287,0.828381123308328,-0.4687380381407483,1.3995287026512317,-2.835761781524808,no_tremor
257,4587872,1.86,0.06276126566856677,-0.3891616024925973,0.8283277384679738,-0.4518064968440428,1.335691718324698,-2.7456862895746528,no_tremor
258,4587877,1.865,0.0627783478483435,-0.3890963487834352,0.828285484113306,-0.437818014352293,1.2835681984910385,-2.6722220156207768,no_tremor
