sample,t_ms,t_s,ax,ay,az,gx,gy,gz,tremor
0,4664445,0.0,-0.03542638824897861,-0.34227572305867515,0.8670500777362199,1.5767326091144502,2.627382695744348,8.406124175928984,no_tremor
1,4664449,0.004,-0.03522765359332272,-0.3422852478183998,0.8670253951407123,1.5991905264502013,2.346746544321974,8.78572010148265,no_tremor
2,4664454,0.009,-0.034995343199100575,-0.3422936852530016,0.866995138988852,1.6167781583906926,2.053754599589429,9.162172081283055,no_tremor
3,4664459,0.014,-0.034754626512872075,-0.3422978583745407,0.8669613331488022,1.6291573793608927,1.7494945519930525,9.532705199250652,no_tremor
4,4664464,0.019,-0.03454611008854708,-0.34229379710668395,0.8669277932653005,1.6360096668742614,1.4352043723437324,9.894390694219883,no_tremor
5,4664473,0.028,-0.03441381229262016,-0.3422776773584961,0.866898799187239,1.6370393686154592,1.1122716202269365,10.244155863584806,no_tremor
6,4664478,0.033,-0.03439745320359226,-0.3422463006735118,0.8668781866933285,1.6319770121299078,0.7822314447535302,10.578795600552848,no_tremor
7,4664483,0.038,-0.03452988734335505,-0.3421971762283568,0.8668690066420983,1.620582639608984,0.4467632211171536,10.89498556829971,no_tremor
8,4664488,0.043,-0.034837447550796374,-0.3421284179176644,0.8668735245712431,1.6026491454792688,0.10768577896993065,11.18929699197005,no_tremor
9,4664492,0.047,-0.0353412869552913,-0.3420386021375954,0.8668933497964718,1.578005589704937,-0.23304880630966257,11.458213026969453,no_tremor
10,4664497,0.052,-0.03605873505841837,-0.3419266481211977,0.8669295797779001,1.5465204553004894,-0.5733628709079729,11.698146640085698,no_tremor
11,4664502,0.057,-0.03700433331831475,-0.34179173424680626,0.8669829175662215,1.5081048147387912,-0.9110622605390377,11.905459918708459,no_tremor
12,4664507,0.062,-0.0381905207534673,-0.3416332448563021,0.8670537556456195,1.46271536721708,-1.243846840744527,12.076484702522063,no_tremor
13,4664512,0.067,-0.039628041251470986,-0.34145073807083287,0.8671422321757125,1.410357307717594,-1.5693223700448837,12.207544411143333,no_tremor
14,4664516,0.071,-0.041326156927893785,-0.3412439264011752,0.8672482679486839,1.3510869895727189,-1.8850136642828783,12.294976920071527,no_tremor
15,4664521,0.076,-0.0432927360972629,-0.34101266437338984,0.8673715910985245,1.2850143443124116,-2.188378956510681,12.335158316466652,no_tremor
16,4664546,0.101,-0.045534264607000885,-0.34075693949363967,0.8675117546103687,1.212305025398008,-2.476825330397053,12.324527346735909,no_tremor
17,4664551,0.106,-0.04805581306106344,-0.3404768643753093,0.8676681499509453,1.1331822458263274,-2.747725077095523,12.259610350627488,no_tremor
18,4664556,0.111,-0.050860980957950934,-0.340172668829416,0.8678400188768264,1.0479282833096484,-2.998432798780212,12.137046461865957,no_tremor
19,4664561,0.116,-0.05395183115396447,-0.33984469132563866,0.8680264646227199,0.9568856303322993,-3.2263030611178785,11.953612843466821,no_tremor
20,4664566,0.121,-0.057328823204071865,-0.3394933695936633,0.8682264631213589,0.8604577696776796,-3.4287083851686986,11.706249717183312,no_tremor
21,4664570,0.125,-0.060990751092312785,-0.33911923034354474,0.8684388745639567,0.7591095597008348,-3.6030573669829997,11.3920849417043,no_tremor
22,4664575,0.13,-0.06493468897480113,-0.3387228781991729,0.8686624554043182,0.6533672187647274,-3.7468127188409937,11.008457893662602,no_tremor
23,4664585,0.14,-0.06915594737862302,-0.33830498399846753,0.8688958707915041,0.5438179052020589,-3.8575090377360266,10.552942409266768,no_tremor
24,4664590,0.145,-0.07364804154624167,-0.33786627264058494,0.8691377073534272,0.431108897095622,-3.9327701224398464,10.023368552295915,no_tremor
25,4664605,0.16,-0.07840267311063084,-0.337407510667704,0.8693864862265037,0.3159463838271094,-3.9703256781905236,9.417842986186363,no_tremor
26,4664610,0.165,-0.08340972592351666,-0.33692949376452125,0.8696406762214703,0.1990938877523934,-3.9680272658176565,8.734767743712778,no_tremor
27,4664614,0.169,-0.08865727657477428,-0.3364330343467325,0.8698987070238461,0.0813703384619356,-3.9238633690327127,7.972857206549724,no_tremor
28,4664619,0.174,-0.09413161990072005,-0.3359189493932361,0.8701589823426602,-0.03635217777765102,-3.8359734697508676,7.131153127665632,no_tremor
29,4664624,0.179,-0.09981730956500476,-0.33538804865777594,0.8704198929378432,-0.15315097555528254,-3.702661037230888,6.209037551078498,no_tremor
30,4664629,0.184,-0.1056972135985684,-0.33484112337638217,0.8706798294715433,-0.2680556247898015,-3.522405353133814,5.206243505471822,no_tremor
31,4664634,0.189,-0.11175258459896972,-0.33427893556923655,0.8709371951396386,-0.3800510992881571,-3.2938721119944576,4.122863370391498,no_tremor
32,4664638,0.193,-0.11796314411115524,-0.3337022080211605,0.8711904180462612,-0.488081220763845,-3.0159227558146435,2.959354836355148,no_tremor
33,4664643,0.198,-0.1243071805404214,-0.3331116150150298,0.8714379632866124,-0.5910524014270157,-2.6876225229189368,1.7165444037199522,no_tremor
34,4664668,0.223,-0.1307616597847072,-0.3325077738878178,0.8716783447027526,-0.6878376888738142,-2.308247214483535,0.39562839041400755,no_tremor
35,4664673,0.228,-0.13730234761952592,-0.33189123747990396,0.8719101362749316,-0.7772811171066374,-1.8772887060403762,-1.0018285540758796,no_tremor
36,4664678,0.233,-0.14390394272888063,-0.3312624875543612,0.8721319831093325,-0.8582023671192375,-1.3944592538820897,-2.473897403303252,no_tremor
37,4664687,0.242,-0.1505402191555646,-0.33062192927312584,0.8723426119837538,-0.929401739979025,-0.8596946654202531,-4.01829112673762,no_tremor
38,4664692,0.247,-0.15718417684960928,-0.32996988682966416,0.8725408414168656,-0.9896654457260833,-0.27315641599593493,-5.632373410267216,no_tremor
39,4664697,0.252,-0.16380819892483056,-0.3293066003511071,0.8727255912337025,-1.0377712133932238,0.36476719963620396,-7.313169637855486,no_tremor
40,4664702,0.257,-0.17038421418619054,-0.32863222419474303,0.8728958916081236,-1.0724942305930953,1.0534607962422429,-9.057380034909238,no_tremor
41,4664711,0.266,-0.17688386345942156,-0.32794682677221637,0.8730508915699009,-1.0926134239975567,1.792082433809334,-10.861394862532755,no_tremor
42,4664716,0.271,-0.18327866823502725,-0.3272503920379598,0.8731898669683748,-1.0969180931721856,2.5795649016582347,-12.721311541459716,no_tremor
43,4664721,0.276,-0.1895402001305112,-0.3265428227746154,0.8733122278855685,-1.0842149089141369,3.414617707694805,-14.632953574684535,no_tremor
44,4664726,0.281,-0.1956402496802815,-0.3258239457956587,0.873417525489283,-1.0533352837448429,4.295729742217469,-16.591891127974847,no_tremor
45,4664741,0.296,-0.20155099298697024,-0.32509351916230816,0.8735054583114322,-1.0031431171414005,5.2211725958983415,-18.593463116364337,no_tremor
46,4664746,0.301,-0.2072451548147837,-0.3243512414767374,0.873575877929445,-0.9325429113967655,6.189004520248437,-20.63280063147228,no_tremor
47,4664751,0.306,-0.21269616677662984,-0.3235967632657553,0.8736287940196225,-0.8404882447132842,7.197075027885882,-22.704851529637594,no_tremor
48,4664755,0.31,-0.2178783193621159,-0.3228297004078623,0.8736643787413763,-0.7259905752928045,8.24303014157313,-24.80440598637982,no_tremor
49,4664760,0.315,-0.22276690667091936,-0.322049649481952,0.873682970400382,-0.5881283339917531,9.324318316668968,-26.92612281016197,no_tremor
50,4664765,0.32,-0.227338362849948,-0.32125620482948414,0.8736850763266963,-0.42605624510174067,10.438197080601363,-29.064556297341095,no_tremor
51,4664791,0.346,-0.2315703893747667,-0.3204489770272817,0.873671374890635,-0.23901479689689442,11.581740452702336,-31.214183398592386,no_tremor
52,4664796,0.351,-0.23544207245744725,-0.31962761237115267,0.8736427165650276,-0.026339767274717037,12.75184722501136,-33.36943095438318,no_tremor
53,4664801,0.356,-0.2389339899978163,-0.31879181288064445,0.8736001239289444,0.2125283033955261,13.945250195775328,-35.52470274693966,no_tremor
54,4664806,0.361,-0.24202830761926267,-0.3179413562649961,0.8735447904981718,0.4780348086713242,15.158526448645597,-37.67440611514574,no_tremor
55,4664811,0.366,-0.24470886344232798,-0.31707611525166124,0.8734780782651815,0.7705020617586823,16.388108759668192,-39.81297788992907,no_tremor
56,4664821,0.376,-0.24696124134925945,-0.31619607567767577,0.8734015138384498,1.090120690993991,17.630298191283853,-41.93490942694555,no_tremor
57,4664826,0.381,-0.24877283258150998,-0.31530135277928056,0.8733167830880533,1.4369415649496917,18.881277900076796,-44.034770534726185,no_tremor
58,4664836,0.391,-0.25013288559150926,-0.31439220518015304,0.8732257242298906,1.8108683667653127,20.137128146688333,-46.107232117712925,no_tremor
59,4664841,0.396,-0.25103254414212395,-0.31346904616447235,0.8731303193117315,2.211650937148483,21.393842456940035,-48.14708737616177,no_tremor
60,4664845,0.4,-0.2514648737144986,-0.3125324519178218,0.8730326840968502,2.638879504237117,22.64734484775117,-50.14927143032903,no_tremor
61,4664850,0.405,-0.25142487634963534,-0.31158316651677503,0.8729350563715017,3.0919799146778804,23.89350800310684,-52.108879264940086,no_tremor
62,4664855,0.41,-0.25090949411280583,-0.3106221035390923,0.8728397827281986,3.570209973018508,25.128172264202856,-54.02118192034227,no_tremor
63,4664860,0.415,-0.2499176014336699,-0.30965034424647137,0.8727493038966749,4.072656986011372,26.347165281534075,-55.881640886172754,no_tremor
64,4664865,0.42,-0.2484499866391766,-0.3086691323599034,0.8726661387092592,4.598236595282688,27.546322162445897,-57.68592067892576,no_tremor
65,4664870,0.425,-0.2465093230608683,-0.3076798655051886,0.8725928667990489,5.145692966473575,28.72150593450147,-59.429899605305216,no_tremor
66,4664874,0.429,-0.24410013016274962,-0.3066840834552673,0.872532110140375,5.713600385805996,29.86862813372798,-61.10967872933471,no_tremor
67,4664884,0.439,-0.24122872519983463,-0.30568345333911245,0.8724865135545014,6.3003662966225855,30.983669318805912,-62.721589073720075,no_tremor
68,4664889,0.444,-0.23790316597982544,-0.3046797520262974,0.8724587243224158,6.904235789163383,32.062699308094025,-64.26219709501565,no_tremor
69,4664915,0.47,-0.2341331853590744,-0.3036748459339001,0.87245137107407,7.523297536533833,33.101896935593984,-65.72830847779677,no_tremor
70,4664920,0.475,-0.22993011815543826,-0.30267066853933594,0.8724670421615722,8.155491148318662,34.09756912496131,-67.11697029661663,no_tremor
71,4664925,0.48,-0.2253068211999043,-0.3016691959190159,0.872508263770324,8.798615891375654,35.04616909036256,-68.42547159926605,no_tremor
72,4664930,0.485,-0.22027758727138733,-0.300672420667003,0.8725774780672999,9.450340706846065,35.94431349312782,-69.65134247509675,no_tremor
73,4664935,0.49,-0.21485805366360236,-0.2996823245778667,0.8726770217160895,10.108215435079531,36.78879841422449,-70.79235169065888,no_tremor
74,4664939,0.494,-0.20906510612327436,-0.2987008505018136,0.8728091050962601,10.769683146523427,37.57661404021995,-71.84650300029818,no_tremor
75,4664944,0.499,-0.2029167788825941,-0.29772987379694316,0.8729757925526599,11.432093466205448,38.30495799886371,-72.8120302668432,no_tremor
76,4664954,0.509,-0.19643215149311433,-0.2967711738131551,0.8731789839753522,12.092716771564321,38.97124731636611,-73.68739155188514,no_tremor
77,4664959,0.514,-0.1896312431577346,-0.29582640584569037,0.8734203979767786,12.748759137639842,39.57312900076176,-74.4712623532877,no_tremor
78,4664964,0.519,-0.1825349052529508,-0.2948970739951394,0.8737015568895585,13.397377900227292,40.10848928334591,-75.16252817875139,no_tremor
79,4664969,0.524,-0.17516471273290296,-0.29398450536715387,0.8740237737551783,14.035697707453476,40.5754615714561,-75.76027664900654,no_tremor
80,4664974,0.529,-0.16754285510634542,-0.2930898260414258,0.874388141410369,14.660826934121175,40.97243317991041,-76.26378932301313,no_tremor
81,4664978,0.533,-0.15969202767468224,-0.29221393923806915,0.8747955237043994,15.269874340397543,41.298050915732894,-76.67253343081389,no_tremor
82,4664988,0.543,-0.15163532371241276,-0.29135750611223366,0.8752465487972676,15.859965864620747,41.55122559239234,-76.98615368819458,no_tremor
83,4664998,0.553,-0.1433961282603217,-0.29052092961565273,0.8757416043966243,16.428261446588582,41.7311355453262,-77.20446435194557,no_tremor
84,4665008,0.563,-0.1349980141863908,-0.2897043418765059,0.8762808346919109,16.971971781453348,41.83722920758175,-77.3274416554961,no_tremor
85,4665038,0.593,-0.12646464114960962,-0.2889075955636089,0.8768641386421143,17.488374905830756,41.86922677941708,-77.35521674126177,no_tremor
86,4665043,0.598,-0.11781965807613207,-0.28813025971021483,0.8774911691789861,17.97483251899403,41.82712098651634,-77.28806917733606,no_tremor
87,4665048,0.603,-0.10908660971952104,-0.28737162046294984,0.8781613328186206,18.428805946073712,41.71117687016461,-77.12642111259908,no_tremor
88,4665053,0.608,-0.10028884781579656,-0.2866306871747336,0.878873789152596,18.847871659471092,41.52193049616448,-76.87083208838443,no_tremor
89,4665057,0.612,-0.09144944724905955,-0.2859062041631566,0.8796274497294064,19.22973628905333,41.260186416415614,-76.52199449015234,no_tremor
90,4665062,0.617,-0.08259112751324292,-0.2851966683062266,0.8804209759351784,19.57225106767726,40.927013675701424,-76.0807295923291,no_tremor
91,4665072,0.627,-0.07373617959950156,-0.28450035245643024,0.8812527756229844,19.873425671146418,40.52374013205506,-75.5479841254142,no_tremor
92,4665082,0.637,-0.06490639827169921,-0.28381533443825413,0.8821209984010493,20.13144141718201,40.0519448564511,-74.92482727705561,no_tremor
93,4665087,0.642,-0.05612301952956982,-0.28313953117136104,0.8830235296523655,20.34466378610318,39.513448399830324,-74.21244802732635,no_tremor
94,4665091,0.646,-0.04740666291480505,-0.28247073724963206,0.8839579835065398,20.51165421893083,38.910300764771506,-73.41215271136905,no_tremor
95,4665096,0.651,-0.03877727820302919,-0.2818066671228626,0.8849216951095665,20.63118113877687,38.244766995162465,-72.52536269815288,no_tremor
96,4665101,0.656,-0.030254095955594886,-0.28114499988656194,0.8859117126361138,20.70223012962945,37.51931039511776,-71.5536120712428,no_tremor
97,4665111,0.666,-0.021855581386345996,-0.28048342559230466,0.8869247895654506,20.72401319337511,36.736573498640084,-70.49854519651339,no_tremor
98,4665115,0.67,-0.013599391031556054,-0.2798196919459578,0.8879573778031956,20.69597699165628,35.899357022511836,-69.36191406399115,no_tremor
99,4665120,0.675,-0.00550233179240182,-0.2791516502597375,0.8890056222838848,20.617809964912844,35.0105971351169,-68.14557529785172,no_tremor
100,4665130,0.685,0.002419677959798492,-0.27847729956101996,0.8900653577398933,20.489448207972274,34.0733414534217,-66.85148674062702,no_tremor
101,4665135,0.69,0.01015164537653407,-0.27779482782984904,0.8911321083739568,20.311079971063496,33.09072423299256,-65.48170353458917,no_tremor
102,4665161,0.716,0.017679538221889057,-0.2771026494308412,0.8922010912247497,20.08314864856264,32.065941239976034,-64.03837364399519,no_tremor
103,4665166,0.721,0.02499031789980232,-0.2763994379155965,0.8932672240605002,19.806354117498973,31.00222479040796,-62.52373278421393,no_tremor
104,4665171,0.726,0.032071970127039544,-0.27568415349082226,0.8943251386580594,19.481652296725308,29.902819413608505,-60.94009874409644,no_tremor
105,4665176,0.731,0.03891353287454622,-0.2749560645687459,0.8953692003001543,19.1102528169871,28.77095854810167,-59.2898651025023,no_tremor
106,4665181,0.736,0.04550512117346963,-0.27421476293684993,0.8963935342300916,18.693614719980634,27.609842619139737,-57.57549434741725,no_tremor
107,4665186,0.741,0.05183794841128757,-0.2734601722043481,0.8973920596333883,18.23344013642553,26.42261878598197,-55.79951040905185,no_tremor
108,4665190,0.745,0.057904343810513154,-0.2726925493070383,0.8983585314786819,17.731665924587016,25.21236259073743,-53.96449062080871,no_tremor
109,4665195,0.75,0.06369776586491033,-0.2719124789849317,0.8992865902642341,17.190453278633377,23.982061689630083,-52.07305712704308,no_tremor
110,4665200,0.755,0.06921281158633809,-0.27112086129208934,0.9001698194020681,16.612175339912138,22.734601799069303,-50.12786776503622,no_tremor
111,4665210,0.765,0.07444522147484245,-0.2703188923571008,0.9010018096494562,15.999402864860025,21.47275493957388,-48.13160645996931,no_tremor
112,4665215,0.77,0.07939188015744601,-0.2695080387843328,0.9017762296869053,15.354888023381278,20.19917000835002,-46.086973184798865,no_tremor
113,4665220,0.775,0.08405081264696594,-0.2686900062648836,0.9024869016633211,14.681546423910488,18.916365655156316,-43.99667355078461,no_tremor
114,4665229,0.784,0.0884211761566362,-0.26786670314158845,0.9031278803027347,13.982437487865962,17.62672537602909,-41.863408108437376,no_tremor
115,4665234,0.789,0.09250324737502104,-0.26704019983032673,0.9036935340083219,13.260743327089553,16.33249467775412,-39.68986145285279,no_tremor
116,4665239,0.794,0.09629840506272225,-0.26621268512509394,0.9041786263146325,12.519746311782052,15.035780107698141,-37.4786912419688,no_tremor
117,4665244,0.799,0.0998091077848705,-0.26538642049308253,0.9045783960244129,11.762805550813182,13.738549895082997,-35.23251725089538,no_tremor
118,4665253,0.808,0.10303886655428325,-0.26456369348882613,0.9048886344121754,10.993332538254954,12.44263591680019,-32.95391059946547,no_tremor
119,4665258,0.813,0.10599221214378897,-0.2637467713804965,0.9051057579698615,10.214766246894472,11.149736688360202,-30.645383303365104,no_tremor
120,4665284,0.839,0.10867465684308905,-0.2629378559910607,0.9052268752974303,9.430547968645108,9.86142109255569,-28.309378311560593,no_tremor
121,4665293,0.848,0.11109265048997237,-0.2621390406224804,0.9052498468921635,8.64409621061881,8.57913259585111,-25.948260202805344,no_tremor
122,4665298,0.853,0.11325353069335645,-0.261352269767973,0.9051733367579547,7.858781952872278,7.304193759509426,-23.564306717950963,no_tremor
123,4665303,0.858,0.11516546727222325,-0.26057930214468206,0.9049968549363024,7.0779045606539555,6.03781091575251,-21.1597012977953,no_tremor
124,4665308,0.863,0.11683740104076917,-0.2598216774147242,0.9047207902515434,6.304668623632634,4.7810789346214895,-18.736526776189145,no_tremor
125,4665318,0.873,0.1182789771608384,-0.2590806868172827,0.9043464327599008,5.542161970961238,3.534986047494949,-16.29676034801301,no_tremor
126,4665322,0.877,0.11950047335217184,-0.2583573478111178,0.9038759855889863,4.7933350868737765,2.3004187190786194,-13.84226989717196,no_tremor
127,4665327,0.882,0.1205127233012419,-0.25765238272442115,0.9033125660442045,4.060982127253401,1.0781665742136852,-11.374811735812017,no_tremor
128,4665332,0.887,0.12132703564611987,-0.25696620132617504,0.9026601960337448,3.3477237116222556,-0.1310726089144491,-8.896029775341562,no_tremor
129,4665337,0.892,0.12195510894399111,-0.2562988871701388,0.9019237820186543,2.6559916355807123,-1.3266878301251344,-6.407456124065284,no_tremor
130,4665342,0.897,0.12240894305440257,-0.25565018752007246,0.9011090848260904,1.9880156159960738,-2.508149722365926,-3.9105130860762745,no_tremor
131,4665347,0.902,0.12270074739813455,-0.25501950664342965,0.9002226797732069,1.3458121472716034,-3.675005341872949,-1.4065165214061461,no_tremor
132,4665351,0.906,0.12284284658020442,-0.25440590226029447,0.8992719076397565,0.7311755142371114,-4.826872919251771,1.1033194826242436,no_tremor
133,4665356,0.911,0.12284758389635272,-0.2538080849535242,0.898264817103948,0.14567097676421167,-5.963436613190121,3.6178766854970807,no_tremor
134,4665361,0.916,0.12272722327537991,-0.2532244203825621,0.8972100993228442,-0.40936988704618943,-7.084441323164424,6.13612557346841,no_tremor
135,4665366,0.921,0.1224938502448667,-0.25265293419392687,0.8961170153996493,-0.9328517184521518,-8.189687628309311,8.657117107127348,no_tremor
136,4665371,0.926,0.12215927254538919,-0.2520913195818241,0.8949953175388438,-1.4239158590707588,-9.279026925031216,11.179973397217774,no_tremor
137,4665376,0.931,0.12173492105888072,-0.25153694751772554,0.8938551647485791,-1.8819388573275388,-10.352356835754433,13.70387736618688,no_tremor
138,4665381,0.936,0.12123175176089956,-0.25098687973244044,0.8927070340091815,-2.3065290980699236,-11.409616955216197,16.22806144729374,no_tremor
139,4665411,0.966,0.12066014945434797,-0.25043788459191324,0.8915616278869686,-2.697521666178792,-12.450784987639286,18.751795364507835,no_tremor
140,4665416,0.971,0.120029834091963,-0.2498864560520054,0.8904297796317346,-3.054971566530271,-13.47587330653142,21.274373025598557,no_tremor
141,4665420,0.975,0.1193497705412359,-0.2493288359006048,0.8893223568484002,-3.3791454326416503,-14.484925940320728,23.79509855227957,no_tremor
142,4665425,0.98,0.11862808267903047,-0.248761039490651,0.8882501648688527,-3.6705118643218952,-15.478015956636675,26.31327147242336,no_tremor
143,4665435,0.99,0.11787197271498988,-0.24817888513172628,0.887223850959387,-3.9297305402824954,-16.455243190966947,28.828171114364718,no_tremor
144,4665440,0.995,0.11708764662937636,-0.24757802724391462,0.8862538104780462,-4.157640254864674,-17.416732243834492,31.33904026869513,no_tremor
145,4665450,1.005,0.11628024657573692,-0.2469539932945345,0.8853500960462928,-4.35524602883544,-18.36263065499724,33.84506821136413,no_tremor
146,4665455,1.01,0.1154537910489318,-0.24630222444669891,0.884522330725549,-4.523705442791586,-19.29310715457975,36.345373208725086,no_tremor
147,4665464,1.019,0.11461112356187891,-0.24561811975747594,0.8837796260964543,-4.664314338680513,-20.208349890683028,38.838984649807166,no_tremor
148,4665469,1.024,0.11375387051517269,-0.24489708367899118,0.8831305060325383,-4.778492031120147,-21.10856454045803,41.324824974257616,no_tremor
149,4665474,1.029,0.11288240888503182,-0.244134576541674,0.8825828368458372,-4.867766166033576,-21.993972224913193,43.80169158635944,no_tremor
150,4665479,1.034,0.1119958442965095,-0.24332616763632278,0.8821437643648568,-4.9337573594803095,-22.864807164469607,46.26823896611817,no_tremor
151,4665484,1.039,0.11109199998836404,-0.2424675904604403,0.8818196583891998,-4.978163744159942,-23.721314030066114,48.722961206914135,no_tremor
152,4665489,1.044,0.1101674171107428,-0.24155479965295368,0.8816160648527163,-5.002745544775883,-24.563744960830892,51.164175224326684,no_tremor
153,4665494,1.049,0.10921736672486383,-0.24058402910790672,0.8815376659192665,-5.009309796349884,-25.392356231495445,53.590004891274155,no_tremor
154,4665499,1.054,0.10823587379443125,-0.23955185072963642,0.8815882481320236,-4.999695311837895,-26.207404559397478,55.99836636033226,no_tremor
155,4665504,1.059,0.10721575337211402,-0.23845523326698562,0.8817706786377849,-4.975757997211433,-27.00914304204751,58.38695483535888,no_tremor
156,4665530,1.085,0.10614865909254369,-0.23729160064005123,0.8820868894109898,-4.939356603640476,-27.7978167126816,60.75323305136716,no_tremor
157,4665535,1.09,0.10502514398793189,-0.23605888914759965,0.8825378693080402,-4.892338997699462,-28.573657694695594,63.09442171392318,no_tremor
158,4665545,1.1,0.10383473354540976,-0.23475560291409012,0.8831236636941912,-4.836529022285075,-29.336879929593927,65.40749213879792,no_tremor
159,4665549,1.104,0.1025660108274845,-0.23338086689991033,0.8838433813098604,-4.773714014234652,-30.087673451713002,67.68916132242407,no_tremor
160,4665554,1.109,0.10120671337816259,-0.2319344767564635,0.8846952079893683,-4.705633039909918,-30.826198190505654,69.93588966599908,no_tremor
161,4665559,1.114,0.0997438415357825,-0.230416944762033,0.8856764268184774,-4.633965906572588,-31.552577298846874,72.14388156944722,no_tremor
162,4665564,1.119,0.09816377766776567,-0.22882954103058845,0.8867834443175551,-4.560323004023626,-32.26689003188441,74.30908910185127,no_tremor
163,4665569,1.124,0.09645241573144192,-0.22717432915040447,0.8880118222595358,-4.486236026672116,-32.969164231930826,76.42721893835484,no_tremor
164,4665574,1.129,0.09459530044899034,-0.22545419538837844,0.8893563147679863,-4.413149620236149,-33.65936850702844,78.49374272788546,no_tremor
165,4665579,1.134,0.09257777526429982,-0.2236728705939281,0.890810910381286,-4.3424139894390255,-34.337404221078984,80.50391102143303,no_tremor
166,4665583,1.138,0.09038513812668077,-0.22183494395679848,0.8923688788053008,-4.2752784936250645,-35.00309743965859,82.45277084808042,no_tremor
167,4665588,1.143,0.08800280402279272,-0.21994586781842437,0.8940228221011808,-4.212886246462494,-35.65619099613852,84.33518697683192,no_tremor
168,4665593,1.148,0.08541647305610137,-0.21801195280838545,0.8957647300610392,-4.156269723999319,-36.29633685615546,86.1458668483356,no_tremor
169,4665598,1.153,0.08261230275476895,-0.21604035267728317,0.897586039508448,-4.10634737296312,-36.92308896421134,87.87938910403719,no_tremor
170,4665603,1.158,0.07957708317581359,-0.21403903832619317,0.8994776972216219,-4.06392119954059,-37.535896754455116,89.53023558273671,no_tremor
171,4665608,1.163,0.07629841326668756,-0.21201676069172434,0.9014302261161462,-4.0296753087917105,-38.134099499128446,91.09282659641923,no_tremor
172,4665617,1.172,0.07276487684552928,-0.20998300233537137,0.9034337942449934,-4.00417535660181,-38.71692165340137,92.56155923846562,no_tremor
173,4665622,1.177,0.06896621646834662,-0.207947917806106,0.9054782860825219,-3.987868869883572,-39.28346933515204,93.93084841802103,no_tremor
174,4665627,1.182,0.06489350336560487,-0.2059222630940947,0.9075533754645863,-3.981086386938072,-39.832728053985065,95.19517025514054,no_tremor
175,4665654,1.209,0.06053930155318182,-0.20391731476644612,0.9096485994689534,-3.9840433684139045,-40.36356177799846,96.3491074135496,no_tremor
176,4665658,1.213,0.055897824155990115,-0.20194477966332836,0.9117534324497749,-3.996842829484837,-40.87471340375067,97.38739589303968,no_tremor
177,4665663,1.218,0.05096507993169648,-0.2000166963158689,0.9138573593974186,-4.01947864452129,-41.36480667999773,98.30497275424571,no_tremor
178,4665668,1.223,0.04573900795411727,-0.19814532949780508,0.9159499477892807,-4.051839475374561,-41.83234963339167,99.09702420835991,no_tremor
179,4665673,1.228,0.04021959841882045,-0.1963430595129309,0.9180209171316907,-4.093713272661135,-42.2757395540363,99.75903347583842,no_tremor
180,4665678,1.233,0.03440899757337989,-0.19462226793524973,0.920060205462716,-4.144792296182904,-42.69326961401363,100.28682780171556,no_tremor
181,4665683,1.238,0.028311594855394397,-0.19299522156014104,0.9220580321790806,-4.204678596370327,-43.08313720328693,100.67662401018173,no_tremor
182,4665687,1.242,0.02193409044486691,-0.19147395630384753,0.924004956654995,-4.272889894032478,-43.443454067269776,100.92507198765571,no_tremor
183,4665692,1.247,0.015285541604894377,-0.1900701627180369,0.9258919322269776,-4.348865791555385,-43.77225831498354,101.02929550213432,no_tremor
184,4665697,1.252,0.00837738639592698,-0.18879507467811588,0.9277103552208095,-4.431974246041073,-44.06752833451185,100.98692979714345,no_tremor
185,4665702,1.257,0.0012234436027457746,-0.18765936266957267,0.9294521087915263,-4.521518234775892,-44.32719860294646,100.7961554401584,no_tremor
186,4665707,1.262,-0.006160111993644882,-0.1866730329464286,0.9311096014333784,-4.6167425466465435,-44.54917731295048,100.45572795556818,no_tremor
187,4665712,1.267,-0.013754799540597228,-0.1858453336794195,0.9326758000936203,-4.716840640023974,-44.73136566294155,99.96500282801003,no_tremor
188,4665717,1.272,-0.021539907424195644,-0.18518466905669786,0.934144257891981,-4.820961518036265,-44.871678581287455,99.32395552089699,no_tremor
189,4665722,1.277,-0.029492593785764763,-0.18469852215230687,0.9355091365073034,-4.928216585278728,-44.96806658562004,98.53319621687041,no_tremor
190,4665726,1.281,-0.037588011687861834,-0.18439338724054177,0.9367652233449892,-5.037686464352376,-45.01853842325234,97.59397905282037,no_tremor
191,4665731,1.286,-0.04579945799670777,-0.184274712108122,0.9379079436445512,-5.148427764068558,-45.021184102057056,96.50820569295672,no_tremor
192,4665736,1.291,-0.054098544679830815,-0.18434685079891347,0.938933367726645,-5.259479801429564,-44.9741979046705,95.27842315915905,no_tremor
193,4665746,1.301,-0.06245539086366027,-0.18461302711353647,0.939838213613954,-5.369871284558067,-44.87590098153222,93.90781591800393,no_tremor
194,4665751,1.306,-0.07083883365962908,-0.1850753090724052,0.9406198452903283,-5.478626962392054,-44.72476313796692,92.40019230805282,no_tremor
195,4665777,1.332,-0.07921665545032067,-0.18573459442844065,0.9412762668873812,-5.584774239768639,-44.51942346571148,90.75996547845868,no_tremor
196,4665787,1.342,-0.08755582502899907,-0.18659060717934417,0.941806113107232,-5.687349746289763,-44.25870951742841,88.99212909843435,no_tremor
197,4665792,1.347,-0.09582274970826705,-0.18764190487955407,0.9422086362051119,-5.785405838020987,-43.94165477654406,87.10222818153268,no_tremor
198,4665802,1.357,-0.10398353526605127,-0.18888589639890357,0.9424836898682722,-5.878017005565593,-43.56751422295697,85.09632544202027,no_tremor
199,4665806,1.361,-0.1120042503981986,-0.19031886963499423,0.9426317103401616,-5.964286160686224,-43.13577783013669,82.98096365758198,no_tremor
200,4665811,1.366,-0.11985119221870136,-0.19193602857377706,0.9426536951513854,-6.043350774162812,-42.64618185305932,80.76312455184093,no_tremor
201,4665816,1.371,-0.1274911493085526,-0.19373153901374007,0.9425511798290483,-6.1143888371114015,-42.09871778849097,78.45018473289024,no_tremor
202,4665821,1.376,-0.1348916588707579,-0.19569858222070582,0.942326212959833,-6.176624615259662,-41.493638917813804,76.04986923243202,no_tremor
203,4665826,1.381,-0.1420212547001059,-0.19782941575457288,0.9419813299762184,-6.229334161550945,-40.83146438145327,73.57020318785887,no_tremor
204,4665831,1.386,-0.14884970291232402,-0.20011544069665008,0.9415195260178206,-6.271850548748245,-40.11298078250077,71.01946220090979,no_tremor
205,4665836,1.391,-0.15534822268525603,-0.20254727449760035,0.9409442281910467,-6.303568781640101,-39.33924137285227,68.40612189377083,no_tremor
206,4665846,1.401,-0.16148968963072147,-0.20511482865477676,0.9402592675118304,-6.323950348036651,-38.51156293442893,65.73880716641814,no_tremor
207,4665855,1.41,-0.16724881982480028,-0.20780739041022797,0.939468850770967,-6.332527368331112,-37.63152052560616,63.02624163604066,no_tremor
208,4665860,1.415,-0.17260233296054395,-0.21061370763675533,0.9385775325125127,-6.3289063042972105,-36.7009403120718,60.27719770925236,no_tremor
209,4665865,1.42,-0.17752909353426527,-0.21352207605296614,0.9375901872653345,-6.312771188471498,-35.721890734678325,57.500447700653716,no_tremor
210,4665870,1.425,-0.18201022941829487,-0.21652042788619993,0.9365119821177209,-6.283886335669239,-34.69667227856838,54.704716369454864,no_tremor
211,4665875,1.43,-0.18602922759385876,-0.21959642109163652,0.935348349675592,-6.2420984981234415,-33.62780609528226,51.89863520359234,no_tremor
212,4665901,1.456,-0.18957200720431513,-0.22273752824143364,0.9341049613963004,-6.1873384261272175,-32.51802169370927,49.09069874232646,no_tremor
213,4665906,1.461,-0.19262697043141233,-0.22593112422145495,0.932787701242283,-6.119621797820281,-31.370243860349028,46.289223195243665,no_tremor
214,4665911,1.466,-0.19518503198781822,-0.22916457191675177,0.931402639552585,-6.03904948584713,-30.187578900794588,43.502307585250264,no_tremor
215,4665916,1.471,-0.1972396282519254,-0.2324253051326304,0.9299560069877362,-5.945807135772638,-28.973300222521445,40.73779761056911,no_tremor
216,4665921,1.476,-0.19878670724369213,-0.23570090808592817,0.9284541683685318,-5.840164041173726,-27.730833215737945,38.003252383232514,no_tremor
217,4665925,1.48,-0.1998247007572967,-0.2389791909060591,0.9269035962067966,-5.722471311707462,-26.46373934398204,35.305914160578475,no_tremor
218,4665930,1.485,-0.20035448003724912,-0.242248260698156,0.9253108437205955,-5.593159341263238,-25.175699334889348,32.65268114432551,no_tremor
219,4665935,1.49,-0.2003792964200652,-0.24549658783114012,0.923682517140379,-5.4527345924514306,-23.87049536579907,30.050083380108195,no_tremor
220,4665940,1.495,-0.19990470837227067,-0.2487130672137009,0.9220252471469524,-5.3017757209787675,-22.551992166994776,27.504261750697083,no_tremor
221,4665945,1.5,-0.19893849634299182,-0.2518870744055271,0.920345659335507,-5.140929069008304,-21.22411701293355,25.0209500220667,no_tremor
222,4665950,1.505,-0.19749056681875038,-0.25500851647666295,0.9186503436689688,-4.970903560638705,-19.890838632807675,22.605459875834736,no_tremor
223,4665955,1.51,-0.1955728469204321,-0.2580678775736674,0.9169458229638578,-4.792465035865577,-18.556145140200915,20.262668844491028,no_tremor
224,4665964,1.519,-0.19319917081785704,-0.2610562591783999,0.9152385205373194,-4.6064300630138755,-17.224021151806713,17.997011055509763,no_tremor
225,4665970,1.525,-0.19038515915646242,-0.2639654150566691,0.9135347272296147,-4.413659274864308,-15.898424331158337,15.812470684611087,no_tremor
226,4665974,1.529,-0.18714809259569642,-0.2667877808944907,0.9118405680970487,-4.21505028118731,-14.583261648155252,13.712578014832467,no_tremor
227,4665989,1.544,-0.18350678045499272,-0.2695164986156341,0.9101619691411579,-4.0115302201215295,-13.282365682357106,11.700407994807701,no_tremor
228,4665994,1.549,-0.17948142535904288,-0.2721454353722526,0.9085046244966775,-3.8040480221299195,-11.99947131441161,9.778581185820164,no_tremor
229,4665999,1.554,-0.1750934846811053,-0.2746691972065592,0.9068739645399853,-3.5935664716275317,-10.738193147003093,7.949266983111376,no_tremor
230,4666024,1.579,-0.17036552951438358,-0.27708313739971996,0.9052751253993793,-3.381054160614662,-9.502003978319983,6.214188993563797,no_tremor
231,4666029,1.584,-0.16532110186677954,-0.27938335955509386,0.9037129203484182,-3.1674774339339264,-8.294214621152204,4.574632449631339,no_tremor
232,4666034,1.589,-0.15998457077369138,-0.28156671550303225,0.9021918135451724,-2.9537924264667437,-7.117955321885579,3.0314535372092823,no_tremor
233,4666044,1.599,-0.15438098804575315,-0.283630798156873,0.9007158965459691,-2.740937289151196,-5.976158987029116,1.5850905113901679,no_tremor
234,4666048,1.603,-0.1485359443965148,-0.28557392948815513,0.899288867974463,-2.5298246944253133,-4.871546371831272,0.23557646856524905,no_tremor
235,4666058,1.613,-0.14247542671416824,-0.28739514382075904,0.897914016667844,-2.3213347045140043,-3.8066133289648976,-1.017446362294411,no_tremor
236,4666063,1.618,-0.13622567724218823,-0.28909416667027976,0.8965942085540376,-2.1163080795732205,-2.783620159063642,-2.174710950606347,no_tremor
237,4666068,1.623,-0.12981305541173166,-0.2906713893804791,0.8953318774394169,-1.9155400974126908,-1.8045830525885458,-3.23730856139543,no_tremor
238,4666073,1.628,-0.12326390302350755,-0.2921278398369421,0.8941290198090086,-1.7197749514129628,-0.871267567174839,-4.206670763676579,no_tremor
239,4666078,1.633,-0.11660441341213633,-0.2934651495708819,0.8929871936642263,-1.5297007872168809,0.014815951001694909,-5.084550493926626,no_tremor
240,4666083,1.638,-0.10986050514815075,-0.294685517602709,0.8919075213507608,-1.3459454310926142,0.8524151173622697,-5.873002315325289,no_tremor
241,4666087,1.642,-0.10305770074921322,-0.2957916714128119,0.8908906962647967,-1.1690728531065144,1.6405365581748583,-6.5743620075782925,no_tremor
242,4666092,1.647,-0.0962210107897035,-0.29678682546210866,0.8899369932716007,-0.999580396295941,2.3784453876505265,-7.191225613525671,no_tremor
243,4666097,1.652,-0.08937482372193226,-0.29767463771310654,0.8890462826279213,-0.8378967893128436,3.0656632340545595,-7.726428058093706,no_tremor
244,4666102,1.657,-0.08254280165661648,-0.2984591646195701,0.8882180471683361,-0.6843809453135561,3.7019649225509172,-8.183021443960753,no_tremor
245,4666107,1.662,-0.07574778229757549,-0.2991448150566519,0.8874514024941669,-0.5393215349936821,4.287373905398808,-8.564253117835838,no_tremor
246,4666112,1.667,-0.06901168718800779,-0.2997363036521454,0.886745119889342,-0.40293730733698624,4.822156510634131,-8.873543591795777,no_tremor
247,4666117,1.672,-0.0623554364049617,-0.3002386039535896,0.8860976516776616,-0.27537811870862455,5.3068150596097095,-9.114464395526753,no_tremor
248,4666122,1.677,-0.055798869835885744,-0.3006569018269048,0.8855071587273943,-0.15672662035673499,5.742079883433407,-9.290715927811204,no_tremor
249,4666147,1.702,-0.04936067518659591,-0.30099654943303844,0.8849715397995331,-0.047000546986039754,6.128900250440625,-9.406105369853044,no_tremor
250,4666152,1.707,-0.04305832290147182,-0.30126302007445405,0.884488462423719,0.053844455027006966,6.46843420348894,-9.464524719548006,no_tremor
251,4666157,1.712,-0.036908008217372675,-0.3014618641501641,0.8840553949704851,0.1459115225964572,6.762037299873111,-9.469929004825309,no_tremor
252,4666162,1.717,-0.030924600610801906,-0.30159866641474015,0.8836696395713897,0.22935885645263224,7.011250251097656,-9.426314735929582,no_tremor
253,4666167,1.722,-0.025121600921306952,-0.30167900470990194,0.8833283655222599,0.30439564818004655,7.217785475507925,-9.337698660854095,no_tremor
254,4666172,1.727,-0.0195111064375386,-0.3017084103285339,0.8830286427917312,0.3712777130879435,7.383512600985121,-9.208096894119173,no_tremor
255,4666176,1.731,-0.014103784218068995,-0.30169233017706204,0.8827674752493049,0.43030288707131736,7.510442982658946,-9.041504495271692,no_tremor
256,4666181,1.736,-0.008908852892618129,-0.3016360909176551,0.8825418332251277,0.4818062449563374,7.600713328011033,-8.841875578881979,no_tremor
257,4666186,1.741,-0.0039340731556831605,-0.3015448652914217,0.8823486850178653,0.5261551971117456,7.656568547128168,-8.613104042369004,no_tremor
258,4666196,1.751,0.0008142528733895561,-0.3014236408432142,0.8821850269773921,0.5637445198099833,7.680343968754151,-8.359005002090258,no_tremor
259,4666201,1.756,0.005331273291249907,-0.30127719128397124,0.882047911805477,0.5949913727267988,7.674447082567152,-8.083297031844959,no_tremor
260,4666210,1.765,0.009613568965703692,-0.3011100507341784,0.8819344747403302,0.620330354083454,7.641338983540755,-7.789585300813311,no_tremor
261,4666215,1.77,0.013659126971976212,-0.3009264910888778,0.8818419573200942,0.6402086403889677,7.583515704113013,-7.4813457096554545,no_tremor
262,4666220,1.775,0.017467304940612063,-0.30073050272860385,0.8817677284566482,0.6550812536979175,7.5034896236179165,-7.161910124053078,no_tremor
263,4666225,1.78,0.021038786423616836,-0.3005257787710617,0.8817093025948476,0.6654064948480419,7.403771142111737,-6.834452804117399,no_tremor
264,4666230,1.785,0.024375527474180328,-0.3003157030162183,0.881664354783531,0.6716415764278406,7.2868507979051325,-6.501978124750383,no_tremor
265,4666234,1.789,0.02748069473548452,-0.30010334168468583,0.8816307325425622,0.674238484806549,7.155181995639193,-6.167309675147609,no_tremor
266,4666239,1.794,0.030358595443585365,-0.29989143898823606,0.8816064644733913,0.673640097355393,7.011164495483495,-5.833080815232601,no_tremor
267,4666244,1.799,0.03301459986607036,-0.29968241650433514,0.8815897656271585,0.6702765796108755,6.857128794653737,-5.5017267542373975,no_tremor
268,4666276,1.831,0.03545505682032441,-0.29947837625591184,0.8815790397119923,0.6645620872362757,6.695321510585953,-5.175478203428598,no_tremor
269,4666281,1.836,0.03768720304026199,-0.2992811073256965,0.88157287828737,0.656891797939054,6.52789185213982,-4.856356641786234,no_tremor
270,4666285,1.84,0.03971906728321785,-0.29909209576523677,0.8815700571552048,0.647639297360682,6.356879244038331,-4.546171219768241,no_tremor
271,4666290,1.845,0.04155937018096659,-0.29891253749747865,0.8815695302111998,0.6371543392480836,6.184202154067368,-4.246517311028389,no_tremor
272,4666305,1.86,0.043217420931147645,-0.29874335386367534,0.8815704210629631,0.625760994138805,6.011648164325707,-3.9587767046056315,no_tremor
273,4666310,1.865,0.04470301199082548,-0.29858520943264244,0.8815720127519376,0.6137561938663023,5.840865325735658,-3.68411941175647,no_tremor
274,4666315,1.87,0.04602631296966842,-0.2984385316719861,0.8815737359343898,0.6014086731840969,5.673354835970202,-3.4235070444618314,no_tremor
275,4666320,1.875,0.04719776492648504,-0.2983035320740728,0.8815751558830442,0.588958305522433,5.5104650825860455,-3.177697708335155,no_tremor
276,4666324,1.879,0.048227976251786486,-0.29818022833122254,0.8815759586661274,0.5766158267411052,5.353387094826572,-2.9472523411037357,no_tremor
277,4666329,1.884,0.04912762127446135,-0.2980684671625218,0.8815759368458179,0.5645629373052125,5.203151449315928,-2.732542417798583,no_tremor
278,4666334,1.889,0.04990734266741945,-0.29796794740721694,0.8815749750152896,0.5529527687168151,5.060626676283519,-2.5337589343351823,no_tremor
279,4666339,1.894,0.05057765865004404,-0.29787824301614446,0.8815730354649293,0.5419106948662317,4.926519212964835,-2.350922572320952,no_tremor
280,4666344,1.899,0.05114887589857992,-0.29779882559301973,0.8815701442360254,0.531535464252756,4.801374948179861,-2.18389494008751,no_tremor
281,4666349,1.904,0.05163100898232469,-0.29772908616200333,0.8815663777861172,0.5219006247188035,4.685582395770317,-2.0323907782104107,no_tremor
282,4666358,1.913,0.05203370704599658,-0.2976683558672798,0.8815618504557624,0.5130562076902899,4.579377523820533,-1.8959910120547154,no_tremor
283,4666363,1.918,0.052366188358580895,-0.29761592534484815,0.881556702892892,0.5050306339802499,4.482850250679934,-1.7741565292229755,no_tremor
284,4666368,1.923,0.052637183247485834,-0.2975710625464746,0.8815510915589566,0.49783279911428646,4.395952596649615,-1.6662425560714555,no_tremor
285,4666393,1.948,0.0528548858348249,-0.29753302884041416,0.8815451794111826,0.49145429394796386,4.318508450332853,-1.5715135041147037,no_tremor
286,4666398,1.953,0.053026914890632326,-0.29750109326185864,0.8815391278274649,0.48587171619323444,4.250224870535826,-1.4891581535063145,no_tremor
287,4666403,1.958,0.05316028401586961,-0.29747454483573604,0.8815330898143823,0.4810490295870566,4.190704800233039,-1.4183050365443093,no_tremor
288,4666408,1.963,0.05326138126560919,-0.2974527029422003,0.8815272045139607,0.47693992887445436,4.13946102289764,-1.3580378791666854,no_tremor
289,4666413,1.968,0.05333595821863146,-0.29743492573788516,0.8815215930006592,0.47349017010380273,4.095931148094701,-1.3074109527131808,no_tremor
290,4666418,1.973,0.05338912839243081,-0.2974206166822777,0.8815163553364068,0.4706398272040571,4.059493375389572,-1.2654641822124062,no_tremor
291,4666423,1.978,0.05342537479093004,-0.29740922924861823,0.8815115688285257,0.468325438052999,4.029482753882736,-1.2312378515006863,no_tremor
