sample,t_ms,t_s,ax,ay,az,gx,gy,gz,tremor
0,4602746,0.0,-0.005776958278410799,-0.4226526938956476,0.8274357100817734,2.497114738222351,0.9445039499425686,1.6985342764129365,no_tremor
1,4602751,0.005,-0.005941569389420301,-0.42240530877024807,0.8276516491535112,2.4541917802244293,0.8697625301074683,1.5740883535529275,no_tremor
2,4602755,0.009,-0.006205856434010953,-0.42206544607469737,0.8279457349456618,2.4095407977001835,0.8050928207394129,1.4248626940164664,no_tremor
3,4602760,0.014,-0.006601928178898364,-0.42162658738791997,0.8283219848145128,2.363244330742596,0.7522105273109918,1.2485104602425459,no_tremor
4,4602765,0.019,-0.007151315236864892,-0.42109938569659455,0.8287695365338765,2.3154062397942314,0.7128827719269015,1.0426557274597006,no_tremor
5,4602770,0.024,-0.007865586600508307,-0.4205032704536629,0.8292702897366736,2.26615248194521,0.6889188445738124,0.8049086592317108,no_tremor
6,4602775,0.029,-0.00874998494738954,-0.41985884100280496,0.8298055970349444,2.2156316266091673,0.6821602189439528,0.5328815986604931,no_tremor
7,4602779,0.033,-0.009806716469694662,-0.41918390632916597,0.8303596360828283,2.164015081470044,0.6944698813498631,0.22420596515797248,no_tremor
8,4602794,0.048,-0.011036965525832023,-0.41849232863436947,0.8309203067095388,2.111497003899769,0.7277210260978991,-0.12345016519289408,no_tremor
9,4602808,0.062,-0.012441804903914173,-0.41779428702615085,0.8314789094366526,2.058293878101988,0.7837851759348539,-0.5123639283132219,no_tremor
10,4602813,0.067,-0.01402243181680013,-0.41709701582639996,0.8320294398347897,2.004643743509159,0.864519792004632,-0.944739131795431,no_tremor
11,4602818,0.072,-0.015780075538874068,-0.41640555958904235,0.8325678923944044,1.9508050653527758,0.9717554439325518,-1.4226874555381523,no_tremor
12,4602822,0.076,-0.017715782175406612,-0.4157233848745498,0.833091705040385,1.8970552443045088,1.107282616369809,-1.9482095501505443,no_tremor
13,4602827,0.081,-0.019830178456615503,-0.4150528265604962,0.8335993569994222,1.8436887690826622,1.2728382327185452,-2.523176195766298,no_tremor
14,4602866,0.12,-0.022123257089535456,-0.4143953953643195,0.8340900923966547,1.7910150238551878,1.4700919799117538,-3.1493096888006713,no_tremor
15,4602871,0.125,-0.024594196918042033,-0.4137519827648556,0.834563735450563,1.7393557706726603,1.7006325210293725,-3.828165627874279,no_tremor
16,4602876,0.13,-0.027241218520250788,-0.4131229949656994,0.8350205682478806,1.6890423354034934,1.9659536858537583,-4.561115272497267,no_tremor
17,4602881,0.135,-0.030061471417449803,-0.41250843979697094,0.8354612495129978,1.640412533027939,2.267440732805305,-5.349328649546159,no_tremor
18,4602895,0.149,-0.03305094821115206,-0.41190798338006346,0.8358867593334306,1.5938073742430914,2.606356778171631,-6.1937585834253195,no_tremor
19,4602909,0.163,-0.03620442148029979,-0.41132098795266864,0.836298359744732,1.549567600289281,2.9838294897319377,-7.09512582582717,no_tremor
20,4602914,0.168,-0.03951540016339104,-0.4107465383991292,0.8366975645531675,1.5080300969509188,3.4008381422798233,-8.053905459846206,no_tremor
21,4602919,0.173,-0.0429761030198118,-0.41018346240690434,0.8370861141289062,1.4695242412582248,3.8582011334891866,-9.070314751081877,no_tremor
22,4602924,0.178,-0.04657744748016934,-0.409630347422713,0.837465952465835,1.434368234494798,4.356564061384678,-10.144302615569316,no_tremor
23,4602929,0.183,-0.05030905273781784,-0.40908555643362604,0.8378392048312895,1.4028654723580143,4.896388469626093,-11.2755408704286,no_tremor
24,4602934,0.188,-0.05415925632288321,-0.4085472438493157,0.8382081550010327,1.375300998227768,5.477941373010583,-12.463417426903202,no_tremor
25,4602938,0.192,-0.058115143664464644,-0.4080133722753296,0.8385752215147513,1.3519380795651712,6.101285681789965,-13.707031575903473,no_tremor
26,4602943,0.197,-0.062162590312927035,-0.40748173065259463,0.8389429326768691,1.3330149413329129,6.766271648166672,-15.005191502670353,no_tremor
27,4602948,0.202,-0.06628631658406929,-0.4069499540353684,0.8393139002200706,1.3187416844672077,7.4725294599702154,-16.356414149507216,no_tremor
28,4602974,0.228,-0.07046995441706008,-0.406415545149012,0.8396907916793215,1.3092974120604346,8.219463103982193,-17.7589275235273,no_tremor
29,4602979,0.233,-0.07469612622048405,-0.4058758977837784,0.8400763016149231,1.304827581081673,9.006245615544199,-19.210675519789046,no_tremor
30,4602988,0.242,-0.07894653542437782,-0.4053283220227746,0.8404731218887775,1.3054415929483363,9.831815824422872,-20.709325299256513,no_tremor
31,4602993,0.247,-0.08320206836723887,-0.4047700712578895,0.8408839112476512,1.3112106317732979,10.694876701570093,-22.252277226843628,no_tremor
32,4602998,0.252,-0.08744290703070447,-0.4041983709073932,0.8413112645058166,1.322165754869373,11.593895407727453,-23.836677338715596,no_tremor
33,4603008,0.262,-0.09164865199511477,-0.4036104487077889,0.8417576816489086,1.3382962369590874,12.527105141586588,-25.459432270507655,no_tremor
34,4603018,0.272,-0.09579845483043442,-0.40300356640836965,0.8422255372010721,1.35954816835795,13.492508880857937,-27.117226538733544,no_tremor
35,4603027,0.281,-0.09987115896353518,-0.40237505264973417,0.842717050207503,1.3858233084649363,14.487885102511434,-28.806542025923353,no_tremor
36,4603037,0.291,-0.10384544788056822,-0.40172233675794417,0.8432342551831766,1.4169781990790862,15.510795556673436,-30.52367947641694,no_tremor
37,4603047,0.301,-0.10769999933941886,-0.4010429831352055,0.8437789743654934,1.4528235471183382,16.558595149957018,-32.264781766058775,no_tremor
38,4603056,0.31,-0.11141364409003225,-0.40033472587776775,0.8443527915848795,1.4931238928009285,17.628443966267294,-34.02585866816025,no_tremor
39,4603062,0.316,-0.11496552743789173,-0.39959550320491277,0.844957028036056,1.5375975863127707,18.7173214149139,-35.8028128030803,no_tremor
40,4603066,0.32,-0.11833527184641537,-0.3988234912428373,0.8455927201979123,1.5859171020298068,19.8220424473394,-37.59146643181049,no_tremor
41,4603071,0.325,-0.12150313866490146,-0.3980171366772704,0.8462606001156394,1.6377097233529618,20.939275727308495,-39.38758873552073,no_tremor
42,4603097,0.351,-0.12445018699459469,-0.39717518777130917,0.8469610782275026,1.692558632913662,22.0655635788147,-41.1869232120325,no_tremor
43,4603102,0.356,-0.1271584276688293,-0.39629672324172144,0.8476942288912367,1.7500044426931425,23.197343475904216,-42.98521481571121,no_tremor
44,4603107,0.361,-0.1296109703277542,-0.3953811784989209,0.8484597787414344,1.8095471964688459,24.330970785670054,-44.778236470899365,no_tremor
45,4603111,0.365,-0.13179216162112134,-0.39442836878391035,0.8492570979892248,1.8706488721350627,25.462742437994823,-46.561814604348804,no_tremor
46,4603116,0.37,-0.13368771268062668,-0.3934385087798154,0.8500851947587444,1.9327364029025005,26.588921178510702,-48.331853370459214,no_tremor
47,4603126,0.38,-0.13528481416564553,-0.3924122283345202,0.8509427125407206,1.995205224228075,27.705760063416495,-50.08435728079171,no_tremor
48,4603136,0.39,-0.13657223739392657,-0.39135058400092915,0.8518279308307282,2.0574233389277174,28.809526870776295,-51.81545199059693,no_tremor
49,4603141,0.395,-0.13754042030948482,-0.39025506617808503,0.8527387690068039,2.118735878080963,29.89652812807226,-53.521403036718596,no_tremor
50,4603145,0.399,-0.1381815373019973,-0.38912760171504995,0.8536727934864319,2.178470121303053,30.963132487814516,-55.19863236289931,no_tremor
51,4603150,0.404,-0.138489552165637,-0.3879705519157105,0.8546272281849235,2.235940927398013,32.00579322022612,-56.84373251048876,no_tremor
52,4603160,0.414,-0.13846025376184506,-0.38678670595332326,0.8555989682748198,2.290456515749346,33.021069631821845,-58.4534783940965,no_tremor
53,4603165,0.419,-0.13809127422226558,-0.3855792697671874,0.8565845972187659,2.341324530244431,34.00564725783461,-60.02483662153204,no_tremor
54,4603170,0.424,-0.1373820897879268,-0.38435185057017024,0.8575804070168036,2.387858311004844,34.95635671169593,-61.55497235467541,no_tremor
55,4603175,0.429,-0.13633400462260511,-0.3831084371454219,0.8585824215743182,2.429383294622892,35.87019110334471,-63.04125374281531,no_tremor
56,4603179,0.433,-0.1349501181575163,-0.3818533761542125,0.8595864230605004,2.4652434607283498,36.74432195829889,-64.48125399286832,no_tremor
57,4603184,0.438,-0.13323527671866509,-0.38059134471522776,0.8605879810907461,2.494807740855124,37.57611358113282,-65.8727511718106,no_tremor
58,4603189,0.443,-0.13119601035716436,-0.379327319549569,0.8615824845314426,2.5174763040962698,38.36313581139211,-67.21372586498032,no_tremor
59,4603194,0.448,-0.1288404559477821,-0.37806654301542864,0.8625651756935528,2.5326866330603295,39.10317511830803,-68.50235683830229,no_tremor
60,4603230,0.484,-0.1261782677435151,-0.3768144863816151,0.8635311866534864,2.539919304252316,39.79424397421095,-69.7370148716627,no_tremor
61,4603235,0.489,-0.12322051667530055,-0.37557681070855864,0.8644755774161383,2.5387033906335037,40.434588438096185,-70.91625494488055,no_tremor
62,4603240,0.494,-0.11997957976597798,-0.3743593257169688,0.8653933756139585,2.5286214116990733,41.02269387657253,-72.03880696959125,no_tremor
63,4603244,0.498,-0.11646902108551296,-0.37316794702573264,0.8662796174137166,2.509313767737263,41.55728875740527,-73.10356527333002,no_tremor
64,4603249,0.503,-0.11270346571117482,-0.3720086521318815,0.8671293892750638,2.4804826083995266,42.03734647491527,-74.10957705750398,no_tremor
65,4603254,0.508,-0.10869846817605568,-0.3708874354901144,0.8679378701697871,2.441895098850088,42.46208520282632,-75.05603006672348,no_tremor
66,4603259,0.513,-0.10447037689810781,-0.3698102630336309,0.8687003738285791,2.3933860576019184,42.830965811001555,-75.94223971947555,no_tremor
67,4603264,0.518,-0.10003619608457391,-0.36878302646781674,0.8694123905364812,2.334859948219157,43.14368792177272,-76.76763595633021,no_tremor
68,4603268,0.522,-0.09541344660519309,-0.3678114976674328,0.870069627953706,2.266292212880471,43.400184216203165,-77.53175006018814,no_tremor
69,4603278,0.532,-0.09062002732102803,-0.36690128351766704,0.8706680504008247,2.187729939805556,43.60061312933253,-78.23420169360696,no_tremor
70,4603283,0.537,-0.08567407834096066,-0.3660577815586724,0.8712039160221745,2.0992918593680194,43.74535009572218,-78.87468638264377,no_tremor
71,4603297,0.551,-0.0805938476490791,-0.36528613681858463,0.8716738112347399,2.0011676669610043,43.834977522143426,-79.45296365703742,no_tremor
72,4603302,0.556,-0.07539756249485684,-0.36459120024529235,0.8720746818869543,1.8936166764789866,43.870273672476735,-79.96884603433793,no_tremor
73,4603307,0.561,-0.07010330685415471,-0.36397748916361167,0.8724038605958738,1.7769658177201013,43.8522006505354,-80.42218901146038,no_tremor
74,4603312,0.566,-0.0647289061442209,-0.36344915018229995,0.8726590898011136,1.65160700329194,43.78189166045519,-80.81288220146024,no_tremor
75,4603317,0.571,-0.05929182020770459,-0.36300992494756434,0.8728385401648796,1.5179939035498176,43.660637713585,-81.14084172612694,no_tremor
76,4603343,0.597,-0.05380904537575075,-0.36266311908546683,0.8729408240521582,1.3766381793143725,43.48987393811144,-81.40600394606959,no_tremor
77,4603348,0.602,-0.04829702619240841,-0.36241157460076623,0.8729650039361212,1.2281052299652788,43.27116563537389,-81.60832057956596,no_tremor
78,4603353,0.607,-0.0427715771492325,-0.3622576459155301,0.8729105956841386,1.073009518672897,43.006194216396686,-81.74775523069736,no_tremor
79,4603357,0.611,-0.03724781455735711,-0.3622031796512182,0.8727775667831297,0.9120095379946522,42.696743143531755,-81.82428131770014,no_tremor
80,4603362,0.616,-0.03174009848844453,-0.36224949819462005,0.8725663296541915,0.7458024793402191,42.34468399413724,-81.83788136487604,no_tremor
81,4603367,0.621,-0.026261984553759134,-0.36239738704599117,0.87227773028274,0.5751186698474058,41.95196275470099,-81.78854759569367,no_tremor
82,4603372,0.626,-0.02082618516385401,-0.3626470859248409,0.871913032451568,0.40071584005171584,41.52058644415781,-81.67628374049599,no_tremor
83,4603381,0.635,-0.015444539817476566,-0.3629982835995065,0.8714738979117274,0.223373285198853,41.052610154458634,-81.5011079496506,no_tremor
84,4603386,0.64,-0.010127993902865985,-0.3634501164052917,0.8709623628619947,0.043885982356416595,40.55012458537741,-81.26305668277448,no_tremor
85,4603391,0.645,-0.004886585452313977,-0.36400117041810354,0.8703808111338031,-0.1369412749734271,40.01524413991508,-80.96218942777668,no_tremor
86,4603396,0.65,0.00027056073397950693,-0.3646494872529092,0.869731944496369,-0.3182996631785299,39.45009563689696,-80.59859409071049,no_tremor
87,4603401,0.655,0.00533523219114081,-0.36539257345670073,0.8690187505072005,-0.49938197443281124,38.85680768820123,-80.17239288921992,no_tremor
88,4603405,0.659,0.010300121719720317,-0.3662274134626128,0.868244468336793,-0.6793880615483294,38.23750077898885,-79.68374857861015,no_tremor
89,4603410,0.664,0.01515881473850856,-0.36715048606471923,0.8674125529937354,-0.8575300227081257,37.594278080046244,-79.13287083988871,no_tremor
90,4603415,0.669,0.01990577164546955,-0.3681577843616478,0.8665266383685787,-1.0330370693507807,36.92921701193978,-78.52002266311419,no_tremor
91,4603420,0.674,0.024536305755365806,-0.3692448391015946,0.8655904995030425,-1.2051600238704177,36.24436157135155,-77.84552656662234,no_tremor
92,4603425,0.679,0.029046557358896413,-0.370406745341874,0.8646080144770704,-1.3731753987970214,35.5417154209535,-77.1097705028063,no_tremor
93,4603435,0.689,0.033433464416293614,-0.3716381923131649,0.8635831262917276,-1.5363890160166758,34.82323573541135,-76.31321331430253,no_tremor
94,4603440,0.694,0.037694730357146156,-0.3729334963524516,0.8625198051128812,-1.6941391329220572,34.09082778713529,-75.4563896214768,no_tremor
95,4603465,0.719,0.041828789407589176,-0.3742866367394956,0.8614220112309047,-1.8457990514292892,33.346340245764864,-74.53991404316935,no_tremor
96,4603475,0.729,0.04583476980824714,-0.37569129423929304,0.8602936590867526,-1.9907791952269978,32.59156115493885,-73.56448467585027,no_tremor
97,4603480,0.734,0.049712455227822513,-0.37714089211657525,0.8591385827146897,-2.1285286502349705,31.8282145385432,-72.530885778048,no_tremor
98,4603484,0.738,0.053462244628061026,-0.378628639346974,0.8579605029545796,-2.2585361725715303,31.057957576181032,-71.43998962384295,no_tremor
99,4603489,0.743,0.05708511080541498,-0.38014757570285185,0.8567629967880481,-2.3803306770273163,30.28237827435935,-70.29275750023892,no_tremor
100,4603494,0.748,0.060582557826187586,-0.3816906183416381,0.8555494691492812,-2.493481227248543,29.502993546789178,-69.09023982965674,no_tremor
101,4603499,0.753,0.06395657758071695,-0.38325060947417783,0.8543231275505073,-2.5975965568159007,28.721247605409214,-67.83357540331379,no_tremor
102,4603504,0.758,0.06720960569965248,-0.3848203646444729,0.8530869598437091,-2.6923241583408823,27.938510554467115,-66.52398971635797,no_tremor
103,4603509,0.763,0.07034447709319182,-0.38639272111484074,0.8518437154139771,-2.777348985572191,27.15607707464505,-65.16279240237346,no_tremor
104,4603514,0.768,0.07336438138600915,-0.3879605858258863,0.8505958900666482,-2.8523918208966483,26.37516508419865,-63.75137377276558,no_tremor
105,4603519,0.773,0.07627281852261464,-0.389516982391248,0.8493457148307498,-2.917207366884771,25.596914270256267,-62.29120047493338,no_tremor
106,4603523,0.777,0.07907355480828276,-0.3910550965936474,0.8480951488562479,-2.971582125247783,24.8223843959184,-60.78381029265983,no_tremor
107,4603528,0.782,0.08177057962955084,-0.39256831987082313,0.8468458765331043,-3.015332129608592,24.052553307157954,-59.23080612405817,no_tremor
108,4603533,0.787,0.08436806306712745,-0.3940502903160906,0.8455993089070586,-3.0483005998296187,23.28831458700172,-57.633849187047204,no_tremor
109,4603538,0.792,0.08687031457529255,-0.3954949307665575,0.8443565894112157,-3.070355585416077,22.530474832107945,-55.99465151900632,no_tremor
110,4603543,0.797,0.08928174285833831,-0.3968964836101223,0.8431186038748938,-3.081387663997532,21.779750557518806,-54.31496785576985,no_tremor
111,4603562,0.816,0.09160681702912253,-0.39824954200790014,0.8418859947127517,-3.0813077583426933,21.0367647680348,-52.59658699638747,no_tremor
112,4603589,0.843,0.09385002909017844,-0.3995490772994366,0.840659179138971,-3.070045131978259,20.302043268234595,-50.84132278464248,no_tremor
113,4603593,0.847,0.09601585773706348,-0.4007904624319148,0.8394383711938985,-3.04754561929063,19.576010815344176,-49.051004863845925,no_tremor
114,4603598,0.852,0.09810873345007916,-0.4019694913291313,0.8382236073138214,-3.013770140595141,18.85898724618614,-47.2274693819336,no_tremor
115,4603603,0.857,0.100133004817238,-0.40308239418814246,0.8370147751170778,-2.968693545406253,18.151183728620268,-45.372549832848364,no_tremor
116,4603617,0.871,0.10209290602024072,-0.4041258487575725,0.8358116450201726,-2.912303817814871,17.45269929996671,-43.48806821543185,no_tremor
117,4603627,0.881,0.10399252541660317,-0.40509698770863745,0.834613904236348,-2.844601667137903,16.763517862442477,-41.57582667590663,no_tremor
118,4603631,0.885,0.10583577516459708,-0.40599340225632263,0.8334211926490874,-2.765600516066811,16.083505809297627,-39.6375997791038,no_tremor
119,4603636,0.89,0.10762636186300202,-0.4068131422233933,0.8322331399993131,-2.6753268883051864,15.412410452781275,-37.67512752889562,no_tremor
120,4603641,0.895,0.10936775821396826,-0.40755471276429933,0.8310494037832092,-2.57382118812101,14.749859413355885,-35.69010923008645,no_tremor
121,4603651,0.905,0.11106317576222616,-0.4082170679802244,0.8298697072321644,-2.461138854827064,14.095361107935961,-33.68419825359386,no_tremor
122,4603656,0.91,0.11271553881358082,-0.408799601661329,0.8286938767394696,-2.337351865768263,13.448306445179592,-31.658997736984855,no_tremor
123,4603661,0.915,0.11432745968570587,-0.409302135388397,0.8275218781100668,-2.2025505520147743,12.807971800827422,-29.6160572260709,no_tremor
124,4603665,0.919,0.11590121549074596,-0.40972490421439567,0.826353851038199,-2.0568456815329443,12.173523308330427,-27.556870241623255,no_tremor
125,4603670,0.924,0.11743872668901904,-0.41006854012804184,0.8251901412607096,-1.9003707554088347,11.544022462002028,-25.482872738541495,no_tremor
126,4603675,0.929,0.11894153768383844,-0.41033405347814367,0.8240313298878046,-1.7332844549779247,10.918432994340426,-23.39544241300703,no_tremor
127,4603680,0.934,0.12041079974742783,-0.4105228125117832,0.8228782594750601,-1.55577317281939,10.295628958299703,-21.29589880633362,no_tremor
128,4603685,0.939,0.12184725657572316,-0.41063652115428645,0.8217320564673128,-1.368053558766615,9.67440392042303,-19.185504152188685,no_tremor
129,4603710,0.964,0.12325123276430726,-0.4106771951374695,0.820594149714247,-1.1703750127954622,9.05348115237505,-17.06546491604804,no_tremor
130,4603715,0.969,0.12462262547748573,-0.41064713656784113,0.8194662848265237,-0.9630220593612635,8.43152469682485,-14.936933980914839,no_tremor
131,4603720,0.974,0.12596089954613804,-0.41054890702106017,0.8183505342072014,-0.7463165419673862,7.807151178798424,-12.801013438703633,no_tremor
132,4603725,0.979,0.12726508617653584,-0.4103852992550803,0.8172493026524369,-0.5206195816815764,7.178942234456842,-10.658757948505292,no_tremor
133,4603729,0.983,0.12853378538288704,-0.410159307652423,0.8161653284653352,-0.2863332484350237,6.545457433623389,-8.511178619299312,no_tremor
134,4603734,0.988,0.1297651721750795,-0.40987409752990706,0.8151016800671764,-0.043901899411756984,5.905247577976733,-6.359247367229066,no_tremor
135,4603739,0.993,0.13095700644642622,-0.40953297348832196,0.8140617481234187,0.20618685501035888,5.256868261883947,-4.203901689639284,no_tremor
136,4603744,0.998,0.13210664642097736,-0.4091393470111632,0.8130492332312038,0.46340159055262753,4.598893586146545,-2.0460497921153666,no_tremor
137,4603748,1.002,0.13321106544189668,-0.4086967035576246,0.8120681292436744,0.7271669392057863,3.9299299157967127,0.11342399832646954,no_tremor
138,4603753,1.007,0.13426687181576896,-0.40820856942837014,0.8111227023366527,0.9968639083786751,3.2486295716640776,2.2736536013553756,no_tremor
139,4603758,1.012,0.1352703313754168,-0.4076784787116906,0.8102174659568756,1.271830659219463,2.553704342696446,4.433785399613259,no_tremor
140,4603763,1.017,0.1362173923875356,-0.4071099406414342,0.8093571518290974,1.551363746400175,1.8439387032128869,6.592972369117782,no_tremor
141,4603767,1.021,0.13710371241171745,-0.406506407715861,0.8085466772422727,1.8347198141545982,1.1182026174999438,8.750368187839184,no_tremor
142,4603772,1.026,0.13792468671367392,-0.4058712449377606,0.8077911088822467,2.121117736231686,0.375463814305105,10.90512138217895,no_tremor
143,4603777,1.031,0.13867547784623876,-0.40520770054036037,0.8070956235285462,2.40974118028533,-0.38520058337389795,13.056369563373108,no_tremor
144,4603787,1.041,0.13935104603491147,-0.40451887856036983,0.8064654659838291,2.699741569810277,-1.1645931812764905,15.20323379478237,no_tremor
145,4603792,1.046,0.13994618003774617,-0.4038077136086109,0.8059059046534973,2.990241409240793,-1.9633862863508775,17.34481311728592,no_tremor
146,4603797,1.051,0.14045552818950555,-0.4030769481698161,0.8054221852368151,3.2803379307655387,-2.782112808629322,19.480179244883068,no_tremor
147,4603806,1.06,0.140873629384369,-0.40232911273641214,0.8050194830265708,3.569107015108637,-3.621158150881681,21.608371428081117,no_tremor
148,4603831,1.085,0.14119494379753747,-0.40156650904701613,0.8047028543397321,3.855607332740196,-4.480753119737189,23.728391470740988,no_tremor
149,4603836,1.09,0.14141388319191975,-0.40079119665990354,0.8044771876158766,4.1388846465515075,-5.360967866501645,25.839198878769025,no_tremor
150,4603841,1.095,0.1415248407009728,-0.40000498304560134,0.8043471547240245,4.417976213232284,-6.261706843805872,27.939706119196064,no_tremor
151,4603846,1.1,0.1415222200232504,-0.3992094173311832,0.8043171630130171,4.691915220920593,-7.182704751133889,30.028773978726168,no_tremor
152,4603851,1.105,0.14140046400947634,-0.39840578777186747,0.8043913086270659,4.959735206533317,-8.123523441440081,32.10520703177215,no_tremor
153,4603856,1.11,0.14115408266968843,-0.3975951229639605,0.8045733315876555,5.220474406231748,-9.083549770232999,34.167749255091806,no_tremor
154,4603861,1.115,0.14077768067566096,-0.39677819674889664,0.804866573116561,5.473180004077869,-10.061994382223302,36.21507985388797,no_tremor
155,4603865,1.119,0.14026598448072122,-0.3959555366935761,0.8052739356429948,5.716912255091632,-11.057891444621047,38.24580938901106,no_tremor
156,4603870,1.124,0.13961386922281793,-0.3951274359699486,0.8057978459014142,5.950748468702764,-12.070099348759888,40.25847631493989,no_tremor
157,4603876,1.13,0.13881638561445547,-0.3942939683992054,0.8064402214858256,6.1737868466280705,-13.097302412792281,42.25154405233818,no_tremor
158,4603880,1.134,0.13786878705178895,-0.39345500637506425,0.8072024411822785,6.385150175442444,-14.138013627919676,44.223398726430915,no_tremor
159,4603885,1.139,0.1367665571915451,-0.39261024133812356,0.8080853193546232,6.583989378763442,-15.190578498787227,46.172347703187434,no_tremor
160,4603890,1.144,0.13550543824516162,-0.3917592064403953,0.8090890846106874,6.7694869372793365,-16.253180034628144,48.0966190495892,no_tremor
161,4603895,1.149,0.13408146022127093,-0.3909013010167868,0.8102133629279462,6.940860186943232,-17.323844950853506,49.99436203204925,no_tremor
162,4603900,1.154,0.13249097130739354,-0.3900358164689441,0.8114571653703415,7.097364506690528,-18.400451140739275,51.86364874857478,no_tremor
163,4603905,1.159,0.13073066951771564,-0.3891619631664595,0.8128188804815215,7.238296407212607,-19.48073647355445,53.702476967052746,no_tremor
164,4603909,1.163,0.12879763564649804,-0.38827889798051013,0.8142962713944907,7.362996531537924,-20.562308968814147,55.50877421601567,no_tremor
165,4603914,1.168,0.12668936745862402,-0.38738575208472803,0.8158864776532958,7.470852576049261,-21.642658386118217,57.28040314559097,no_tremor
166,4603919,1.173,0.12440381492425963,-0.386481658686458,0.8175860216986244,7.561302137059187,-22.719169255673688,59.01516814359324,no_tremor
167,4603924,1.178,0.12193941616872954,-0.38556578038730766,0.8193908199256901,7.633835483773965,-23.789135354927417,60.71082315399258,no_tremor
168,4603929,1.183,0.1192951336671996,-0.38463733591361143,0.8212961981791488,7.687998254074183,-24.849775610100625,62.36508060269135,no_tremor
169,4603964,1.218,0.11647049007270874,-0.38369562600343005,0.8232969115057852,7.723394065103371,-25.89825136638324,63.97562128982012,no_tremor
170,4603969,1.223,0.11346560293268015,-0.3827400582844481,0.8253871679417666,7.73968702553633,-26.931684927048487,65.54010506204169,no_tremor
171,4603974,1.228,0.11028121743308035,-0.3817701710220842,0.827560656069566,7.736604129748904,-27.94717921196031,67.05618204092029,no_tremor
172,4603983,1.237,0.10691873622366825,-0.38078565565259553,0.8298105760444302,7.713937506163192,-28.941838333903092,68.52150416514657,no_tremor
173,4603988,1.242,0.10338024533468718,-0.3797863780356273,0.8321296737658966,7.6715464849678545,-29.91278884134236,69.93373681075177,no_tremor
174,4603993,1.247,0.09966853520213535,-0.37877239836198534,0.8345102778582869,7.609359446820261,-30.857201332554038,71.29057027991358,no_tremor
175,4603998,1.252,0.0957871158759708,-0.37774398963741096,0.8369443391244173,7.527375414585771,-31.772312111730617,72.58973098612562,no_tremor
176,4604003,1.257,0.09174022558920511,-0.3767016546364417,0.8394234721466519,7.42566535297719,-32.65544453483134,73.82899220398741,no_tremor
177,4604007,1.261,0.08753283200939534,-0.3756461411872623,0.8419389987262331,7.30437314395425,-33.50402968250382,75.00618429171402,no_tremor
178,4604012,1.266,0.08317062566988129,-0.3745784556137015,0.8444819928729635,7.1637162075836445,-34.315625999688024,76.1192043315258,no_tremor
179,4604017,1.271,0.07866000527792535,-0.37349987412837465,0.8470433270804681,7.003985738770245,-35.08793755692175,77.16602516625652,no_tremor
180,4604027,1.281,0.07400805481206793,-0.37241195194469584,0.8496137196455853,6.825546531223705,-35.81883061737728,78.14470383904083,no_tremor
181,4604032,1.286,0.06922251254229969,-0.3713165298574535,0.852183782812369,6.628836362939417,-36.506348236579434,79.05338946541174,no_tremor
182,4604036,1.29,0.06431173232355485,-0.37021573803355723,0.854744071540242,6.414364923151505,-37.14872267824061,79.89033058172006,no_tremor
183,4604041,1.295,0.05928463771398961,-0.3691119967575636,0.8572851327103205,6.182712268844395,-37.74438549769786,80.65388201955797,no_tremor
184,4604046,1.3,0.05415066964433314,-0.3680080138913817,0.85979755459164,5.934526808839135,-38.29197521979436,81.34251135380251,no_tremor
185,4604051,1.305,0.04891972850741663,-0.36690677883447176,0.8622720163873706,5.670522824915261,-38.79034261490599,81.9548049645671,no_tremor
186,4604087,1.341,0.04360211164703981,-0.3658115528099079,0.864699337667461,5.391477552393394,-39.238553648543046,82.4894737439446,no_tremor
187,4604097,1.351,0.03820844730500704,-0.3647258553522978,0.867070527466699,5.0982278565110875,-39.63589023771352,82.94535846995323,no_tremor
188,4604101,1.355,0.03274962613645361,-0.3636534469338196,0.869376832786337,4.791666553711272,-39.98184897874437,83.32143486479839,no_tremor
189,4604111,1.365,0.027236731425218562,-0.36259830773080265,0.8716097861873779,4.472738435574056,-40.27613800660278,83.61681835309341,no_tremor
190,4604116,1.37,0.021680969119239193,-0.36156461260067496,0.8737612521123613,4.142436055587877,-40.51867210920136,83.83076853663125,no_tremor
191,4604121,1.375,0.01609359875853824,-0.3605567024039269,0.8758234715297996,3.8017953358640777,-40.70956617324236,83.96269340320494,no_tremor
192,4604126,1.38,0.010485866287660087,-0.3595790518660642,0.8777891044697788,3.4518910446043765,-40.849127006066425,84.0121532860609,no_tremor
193,4604131,1.385,0.0048689396369764005,-0.35863623423001084,0.8796512700157992,3.093832187905813,-40.937843573735634,83.97886458720488,no_tremor
194,4604135,1.389,-0.0007461521677052663,-0.3577328830005633,0.8814035833377846,2.728757352428044,-40.97637571797762,83.86270327161557,no_tremor
195,4604141,1.395,-0.006348575740366669,-0.35687365113007585,0.8830401893921602,2.3578300284995817,-40.965541456342095,83.6637081299692,no_tremor
196,4604146,1.4,-0.011927745419006753,-0.35606316803930327,0.8845557929727983,1.9822339360770018,-40.90630302344519,83.38208379458399,no_tremor
197,4604151,1.405,-0.017473370325241627,-0.355305994909872,0.8859456848661266,1.603168368978218,-40.79975186919495,83.01820347766719,no_tremor
198,4604160,1.414,-0.02297549613354054,-0.35460657872580864,0.887205763938721,1.2218435670741263,-40.64709288483416,82.57261138438571,no_tremor
199,4604170,1.424,-0.028424541374129607,-0.35396920558147,0.888332555059623,0.8394761225223957,-40.449628171897245,82.04602473858952,no_tremor
200,4604175,1.429,-0.03381132816405197,-0.35339795381226946,0.8893232228255128,0.45728442478342957,-40.20874069440515,81.4393353494168,no_tremor
201,4604201,1.455,-0.03912710731516105,-0.35289664754201006,0.8901755811081213,0.076484149766049,-39.925878151935635,80.75361064493286,no_tremor
202,4604206,1.46,-0.0443635778126996,-0.3524688112741354,0.8908880984755176,-0.30171619943796396,-39.60253737659893,79.99009410455655,no_tremor
203,4604226,1.48,-0.04951290070076454,-0.35211762617962594,0.8914598995530169,-0.6761196902316389,-39.24024949873304,79.15020503259505,no_tremor
204,4604231,1.485,-0.054567707457836054,-0.35184588874621553,0.891890762392668,-1.0455452854121239,-38.84056606385573,78.2355376266234,no_tremor
205,4604236,1.49,-0.05952110300301306,-0.3516559724475574,0.892181111923052,-1.408832085285364,-38.40504623580905,77.24785930371475,no_tremor
206,4604245,1.499,-0.06436666354509009,-0.35154979306542505,0.8923320095616379,-1.764843479641263,-37.935245194887,76.1891082538242,no_tremor
207,4604256,1.51,-0.06909842956812817,-0.3515287782547611,0.8923451390924219,-2.1124712045807423,-37.43270382946337,75.06139019348501,no_tremor
208,4604260,1.514,-0.07371089432766131,-0.35159384188408144,0.8922227889384601,-2.4506393005452893,-36.898939814086546,73.86697429553406,no_tremor
209,4604265,1.519,-0.07819898829858343,-0.3517453636165422,0.8919678309857341,-2.7783079690040746,-36.335440155948945,72.6082882733636,no_tremor
210,4604270,1.524,-0.08255806006059861,-0.3519831741237864,0.8915836961357495,-3.0944773269274806,-35.74365526936188,71.28791260276824,no_tremor
211,4604275,1.529,-0.08678385412765183,-0.35230654624866664,0.8910743467768137,-3.398191060155472,-35.12499460401238,69.90857387203332,no_tremor
212,4604280,1.534,-0.0908724862270679,-0.35271419235610474,0.890444246369154,-3.6885399778587313,-34.48082381070992,68.47313726210517,no_tremor
213,4604285,1.539,-0.09482041651929583,-0.3532042680342824,0.8896983263404109,-3.96466546939571,-33.81246338279161,66.98459817359164,no_tremor
214,4604290,1.544,-0.098624421230598,-0.35377438223027374,0.8888419504897737,-4.225762861619962,-33.12118866734926,65.44607303596518,no_tremor
215,4604299,1.553,-0.1022815631591087,-0.35442161382322096,0.8878808771048996,-4.471084669202324,-32.40823110296016,63.860789356739,no_tremor
216,4604325,1.579,-0.10578916151305018,-0.3551425345515975,0.8868212190086452,-4.6999437230562995,-31.67478051412427,62.23207509384782,no_tremor
217,4604335,1.589,-0.10914476154325702,-0.3559332381162227,0.8856694017740325,-4.911716153054784,-30.92198828104049,60.563347460191274,no_tremor
218,4604340,1.594,-0.11234610443264505,-0.35678937517589343,0.8844321203753851,-5.10584419209963,-30.150971209834697,58.858101289794185,no_tremor
219,4604345,1.599,-0.11539109789904406,-0.35770619383951907,0.8831162945784372,-5.281838761052104,-29.362815952527544,57.1198971040351,no_tremor
220,4604350,1.604,-0.11827778795522906,-0.358678585143766,0.8817290234080303,-5.439281789867943,-28.558583861016064,55.352349011022724,no_tremor
221,4604354,1.608,-0.12100433225256473,-0.35970113289760675,0.8802775390644638,-5.577828230336705,-27.739316194211206,53.5591125542592,no_tremor
222,4604359,1.613,-0.12356897541376366,-0.36076816718332055,0.8787691606858755,-5.697207719382026,-26.90603962366858,51.743872604177916,no_tremor
223,4604364,1.618,-0.1259700267370205,-0.3618738207330851,0.8772112483728159,-5.797225857389263,-26.059771996997206,49.91033136313762,no_tremor
224,4604374,1.628,-0.1282058406292932,-0.3630120873542034,0.8756111579016956,-5.8777650724533,-25.20152831913236,48.062196534029844,no_tremor
225,4604379,1.633,-0.13027480010162176,-0.3641768815551357,0.8739761965552396,-5.9387850487308,-24.332326899384533,46.20316968638826,no_tremor
226,4604384,1.638,-0.13217530363463306,-0.3653620985282966,0.8723135804894825,-5.980322705520519,-23.45319558936981,44.336934842385105,no_tremor
227,4604389,1.643,-0.1339057556978228,-0.36656167367200876,0.870630394037328,-6.002491723116771,-22.565178008637,42.46714729834945,no_tremor
228,4604393,1.647,-0.13546456118120376,-0.36776964087918684,0.8689335513185229,-6.005481621079967,-21.66933962725804,40.59742269548841,no_tremor
229,4604403,1.657,-0.13685012397097726,-0.36898018887836,0.8672297604871997,-5.9895564032227675,-20.766773553032717,38.731326356645965,no_tremor
230,4604413,1.667,-0.13806084986983502,-0.37018771497639913,0.8655254909045931,-5.9550527904992885,-19.858605858977725,36.87236291402098,no_tremor
231,4604422,1.676,-0.13909515402458075,-0.3713868756147188,0.8638269434799691,-5.902378068185971,-18.94600028702062,35.02396626429758,no_tremor
232,4604449,1.703,-0.13995147297550645,-0.37257263320609524,0.8621400243797722,-5.832007577942389,-18.030162177445547,33.18948989988536,no_tremor
233,4604454,1.708,-0.14062828137922267,-0.3737402987649511,0.8604703222635802,-5.744481888636122,-17.112341499055685,31.372197674579244,no_tremor
234,4604459,1.713,-0.14112411337589995,-0.37488556988236693,0.8588230891628427,-5.640403681394204,-16.193834887066586,29.575255065456904,no_tremor
235,4604463,1.717,-0.14143758847276072,-0.376004563635515,0.8572032250702618,-5.520434383686071,-15.275986627511491,27.801720987619564,no_tremor
236,4604473,1.727,-0.1415674417026003,-0.37709384406830554,0.8556152662514694,-5.385290584982294,-14.360188553983262,26.054540204585347,no_tremor
237,4604478,1.732,-0.14151255769753496,-0.3781504439411979,0.8540633772279875,-5.235740263835903,-13.447878844936417,24.336536358240636,no_tremor
238,4604483,1.737,-0.14127200820412428,-0.3791718805240613,0.8525513463167282,-5.07259885380036,-12.540539729632597,22.650405622755244,no_tremor
239,4604488,1.742,-0.14084509246575005,-0.3801561652943217,0.8510825845528828,-4.896725173374543,-11.639694129261185,20.998710969766492,no_tremor
240,4604493,1.747,-0.1402313798180227,-0.3811018074997037,0.8496601277748976,-4.709017242668387,-10.74690127682105,19.38387701876881,no_tremor
241,4604502,1.756,-0.1394307537852126,-0.38200781164627123,0.8482866416147402,-4.5104080062640115,-9.86375137476543,17.808185437651517,no_tremor
242,4604507,1.761,-0.1384434569287402,-0.38287366907346276,0.8469644291137907,-4.301860977744279,-8.991859362518275,16.2737708537842,no_tremor
243,4604512,1.766,-0.13727013567916166,-0.3836993438737591,0.8456954406725987,-4.08436581705546,-8.132857875529217,14.78261723523672,no_tremor
244,4604517,1.771,-0.13591188437716645,-0.38448525350133395,0.844481286038403,-3.8589338481327418,-7.288389482547158,13.336554703590531,no_tremor
245,4604522,1.776,-0.13437028775384516,-0.38523224448823884,0.8433232480345739,-3.6265935219602548,-6.460098288358176,11.937256743719301,no_tremor
246,4604527,1.781,-0.13264746109405956,-0.385941563746613,0.8422222977387214,-3.3883858301163894,-5.6496209865488005,10.586237781862021,no_tremor
247,4604532,1.786,-0.13074608734857424,-0.38661482598091046,0.8411791108200868,-3.145359676042047,-4.858577442602411,9.284851111515461,no_tremor
248,4604537,1.791,-0.12866945049109052,-0.3872539777661588,0.840194084752095,-2.898567215295849,-4.088560883378688,8.034287157167116,no_tremor
249,4604541,1.795,-0.12642146445632896,-0.38786125886822187,0.8392673566232072,-2.6490591807734694,-3.3411277658934964,6.835572078231991,no_tremor
250,4604546,1.8,-0.12400669704573046,-0.38843916139145496,0.8383988212794017,-2.397880212699122,-2.6177873971430903,5.689566728975467,no_tremor
251,4604571,1.825,-0.12143038824871194,-0.3889903873394121,0.8375881495455978,-2.1460642149799956,-1.9199913784580016,4.596966003855844,no_tremor
252,4604576,1.83,-0.11869846249912529,-0.3895178051666305,0.8368348062918224,-1.8946297593235002,-1.2491229534619115,3.5582986104356116,no_tremor
253,4604581,1.835,-0.11581753446585898,-0.3900244058851085,0.8361380681331939,-1.6445755574861065,-0.6064863481929677,2.5739273217894603,no_tremor
254,4604585,1.839,-0.11279490805836191,-0.3905132592691068,0.8354970405805358,-1.3968760212852034,0.006703795856120104,1.6440497647845915,no_tremor
255,4604590,1.844,-0.10963856840727326,-0.39098747067755174,0.8349106744896293,-1.152476930004951,0.5893327816841786,0.7686997985756505,no_tremor
256,4604595,1.849,-0.1063571666553258,-0.3914501389856542,0.8343777816903055,-0.9122912254615395,1.1403958823717923,-0.05225046984333454,no_tremor
257,4604600,1.854,-0.1029599974658604,-0.3919043160869361,0.8338970497101245,-0.6771949560240121,1.659007892929749,-0.8190879971203964,no_tremor
258,4604605,1.859,-0.09945696922903356,-0.39235296839376904,0.8334670555397956,-0.4480233921265854,2.1444120594554064,-1.5322554189001207,no_tremor
259,4604610,1.864,-0.09585856702247866,-0.3927989407284495,0.8330862784175149,-0.2255673370158216,2.5959882304870163,-2.192346959281587,no_tremor
260,4604615,1.869,-0.09217580846636086,-0.39324492295727576,0.8327531116361104,-0.010569657223627129,3.013260072819637,-2.800103637557469,no_tremor
261,4604624,1.878,-0.08842019270397876,-0.39369341967660837,0.8324658733997143,0.19627794287512793,3.3959011949082596,-3.35640778718971,no_tremor
262,4604634,1.888,-0.08460364283853786,-0.3941467232123837,0.8322228167752407,0.39433787912301665,3.7437400260691756,-3.862276912386099,no_tremor
263,4604639,1.893,-0.08073844226276003,-0.39460689014352374,0.832022138798037,0.5830293565510495,4.056763310582866,-4.318856916713594,no_tremor
264,4604644,1.898,-0.07683716542638964,-0.3950757215065478,0.8318619888006257,0.7618307291113514,4.335118094144231,-4.727414746023474,no_tremor
265,4604649,1.903,-0.07291260369131851,-0.39555474678557145,0.8317404760387145,0.9302815312208726,4.579112106555701,-5.089330494899038,no_tremor
266,4604654,1.908,-0.06897768701938344,-0.39604521174095425,0.8316556766903924,1.0879841630275309,4.78921247806831,-5.406089032356636,no_tremor
267,4604659,1.913,-0.06504540232099841,-0.39654807008256787,0.8316056403037901,1.2346052120040518,4.9660427649568595,-5.679271208733129,no_tremor
268,4604664,1.918,-0.06112870936348985,-0.39706397895039114,0.8315883957666766,1.3698763942263872,5.110378300360032,-5.910544710863652,no_tremor
269,4604694,1.948,-0.057240455197048595,-0.3975932981254682,0.8316019568694188,1.4935950999958418,5.223139927634275,-6.1016546357664785,no_tremor
270,4604698,1.952,-0.05339328810292184,-0.39813609285722346,0.8316443275308671,1.6056245309873722,5.305386214445696,-6.254413853710871,no_tremor
271,4604708,1.962,-0.049599572098807394,-0.39869214015753174,0.8317135067547847,1.7058934200965106,5.358304284636812,-6.370693230210712,no_tremor
272,4604713,1.967,-0.0458713030435076,-0.3992609383768477,0.8318074933815526,1.7943953301147555,5.383199438095419,-6.452411773973789,no_tremor
273,4604718,1.972,-0.042220027361347244,-0.3998417198430805,0.8319242906952075,1.8711875324774048,5.381483752629423,-6.5015267748659245,no_tremor
274,4604723,1.977,-0.038656764357200106,-0.40043346631084664,0.8320619109393157,1.9363894720178798,5.354663873940745,-6.520023993013498,no_tremor
275,4604728,1.982,-0.03519193302150288,-0.401034926939001,0.8322183797874803,1.990180827678161,5.304328200280275,-6.509907957457702,no_tremor
276,4604732,1.986,-0.03183528413944833,-0.4016446384894743,0.8323917408065091,2.0327991825309457,5.232133659378963,-6.4731924301348345,no_tremor
277,4604737,1.991,-0.028595838426193773,-0.40226094742132523,0.8325800599433224,2.0645373196810013,5.139792259809487,-6.4118910879925295,no_tremor
278,4604747,2.001,-0.025481831314401623,-0.4028820335409077,0.8327814300610709,2.0857401640841475,5.029057579637705,-6.3280084723019465,no_tremor
279,4604752,2.006,-0.02250066492340669,-0.4035059348621492,0.8329939755457382,2.096801394102437,4.901711333880866,-6.223531249391281,no_tremor
280,4604757,2.011,-0.019658867640650408,-0.40413057332995045,0.8332158570012653,2.0981597504782967,4.759550140589845,-6.10041982132923,no_tremor
281,4604761,2.015,-0.01696206164490555,-0.4047537810644149,0.8334452760481058,2.09029507423729,4.6043725853831505,-5.9606003194601,no_tremor
282,4604771,2.025,-0.0144149385971839,-0.4053733267938097,0.8336804802360263,2.0737241086463163,4.437966668042393,-5.80595700935061,no_tremor
283,4604776,2.03,-0.012021243620834284,-0.40598694215956604,0.8339197680758591,2.0489961032119677,4.262097703710633,-5.63832513346017,no_tremor
284,4604781,2.035,-0.009783767590682155,-0.40659234759699553,0.8341614941859125,2.0166882592107633,4.078496745706641,-5.459484217833583,no_tremor
285,4604815,2.069,-0.007704347656421208,-0.40718727752061235,0.8344040745362601,1.977401056439468,3.888849596314738,-5.271151870999408,no_tremor
286,4604820,2.074,-0.005783875841506246,-0.40776950457276306,0.8346459917582105,1.9317535004109856,3.6947864743837338,-5.074978106337674,no_tremor
287,4604825,2.079,-0.004022315486756901,-0.4083368627276142,0.8348858004681418,1.8803783286053175,3.4978724116307562,-4.8725402222505885,no_tremor
288,4604830,2.084,-0.002418725245554061,-0.40888726907717604,0.835122132537144,1.823917213540761,3.2995984507307257,-4.6653382759072635,no_tremor
289,4604835,2.089,-0.0009712902804281756,-0.409418744159184,0.8353537022235005,1.7630159990919285,3.1013737162192037,-4.45479118487382,no_tremor
290,4604850,2.104,0.0003226397450430676,-0.4099294307162049,0.8355793110759921,1.698320004697849,2.9045184239194137,-4.242233486438927,no_tremor
291,4604855,2.109,0.0014665063417334517,-0.41041761080044037,0.8357978525129112,1.6304694301997598,2.710257886516842,-4.028912777669401,no_tremor
292,4604859,2.113,0.0024644920579308762,-0.41088172115950355,0.8360083159841173,1.5600948923009605,2.519717562270462,-3.8159878510644205,no_tremor
293,4604874,2.128,0.003321465106754731,-0.4113203668553956,0.8362097906305846,1.4878131221936015,2.3339191807171162,-3.604527531695804,no_tremor
294,4604879,2.133,0.004042919389612226,-0.41173233308225465,0.8364014683664446,1.4142228528918033,2.1537779640195494,-3.3955102122041305,no_tremor
295,4604883,2.137,0.004634910597184693,-0.41211659515796817,0.8365826463209671,1.339900924359028,1.9801009462540984,-3.1898240719944613,no_tremor
296,4604888,2.142,0.00510398911217025,-0.41247232666995703,0.8367527285905684,1.2653986344166217,1.8135863763869418,-2.9882679563730252,no_tremor
297,4604893,2.147,0.00545713047145767,-0.412798905756183,0.8369112272625102,1.1912383631323344,1.6548241746071815,-2.7915528804227407,no_tremor
298,4604898,2.152,0.005701664168199132,-0.41309591949936886,0.8370577626819657,1.1179104976352179,1.5042973966958075,-2.600304111870931,no_tremor
299,4604903,2.157,0.005845201585679526,-0.4133631664071418,0.8371920629427814,1.0458706834219638,1.3623846479440425,-2.4150637779384514,no_tremor
300,4604908,2.162,0.00589556385454811,-0.41360065694543174,0.8373139625902718,0.9755374274302251,1.2293633771119288,-2.2362939337157033,no_tremor
301,4604913,2.167,0.005860710412692185,-0.41380861208913194,0.8374234005324752,0.9072900768111026,1.105413971586754,-2.064380024114663,no_tremor
302,4604938,2.192,0.005748669022966198,-0.41398745985466456,0.8375204171650739,0.8414671945119,0.9906245666230106,-1.899634667841188,no_tremor
303,4604953,2.207,0.005567467968602422,-0.41413782978529035,0.8376051507248812,0.7783653483570449,0.8849964744566016,-1.742301690134493,no_tremor
304,4604957,2.211,0.005325071099681838,-0.4142605453731093,0.8376778328971928,0.7182383249741926,0.7884501344434213,-1.592560331544631,no_tremor
305,4604962,2.216,0.005029316346353815,-0.4143566144225636,0.8377387837126459,0.6612967743976383,0.7008314848041306,-1.4505295633686934,no_tremor
306,4604972,2.226,0.004687858245587529,-0.4144272173885826,0.8377884057784735,0.607708285892023,0.6219186606421261,-1.3162724468303975,no_tremor
307,4604977,2.231,0.004308114949411804,-0.4144736937565919,0.8378271778963557,0.5575978905646042,0.5514289305668126,-1.1898004818407872,no_tremor
308,4604981,2.235,0.0038972200967165023,-0.4144975265688977,0.8378556481241883,0.5110489816996296,0.48902579356998555,-1.0710779004837239,no_tremor
309,4604986,2.24,0.0034619798414649424,-0.41450032524009917,0.8378744263422973,0.4681046397553941,0.43432616688267595,-0.9600258688371923,no_tremor
310,4604991,2.245,0.003008835241226284,-0.4144838068415083,0.8378841763863912,0.42876934595351346,0.386907602847157,-0.8565265680561355,no_tremor
311,4605001,2.255,0.0025438301242652383,-0.41444977607004957,0.8378856078103465,0.3930110658802642,0.3463154775184822,-0.7604271320075671,no_tremor
312,4605006,2.26,0.0020725844733089525,-0.41440010415003176,0.8378794673422348,0.360763681180734,0.31207009584647905,-0.6715434241972928,no_tremor
313,4605011,2.265,0.001600273291352039,-0.4143367069457564,0.8378665300974061,0.3319297424035725,0.2836736585730184,-0.5896636412826411,no_tremor
314,4605015,2.269,0.0011316108509482811,-0.41426152258810317,0.8378475906136665,0.30638350982754897,0.2606170352214456,-0.5145517345494623,no_tremor
315,4605020,2.274,0.0006708401743785802,-0.41417648893790177,0.8378234537764383,0.2839742426780365,0.24238628665036308,-0.4459506450037391,no_tremor
316,4605025,2.279,0.000221727548081465,-0.41408352122222203,0.8377949257068646,0.2645296910681524,0.22846888056999218,-0.38358535253943005,no_tremor
317,4605030,2.284,-0.0002124381598778035,-0.41398449018622957,0.8377628046934409,0.24785973956096993,0.21835954474496577,-0.32716574482596456,no_tremor
318,4605035,2.289,-0.0006288416369619528,-0.41388120110271853,0.8377278722578904,0.23376014692743965,0.21156570518715678,-0.2763893167841383,no_tremor
319,4605060,2.314,-0.0010251329952796946,-0.41377537397358516,0.8376908844583573,0.22201632389328255,0.2076124602676518,-0.23094371660750038,no_tremor
320,4605070,2.324,-0.0013994156643773621,-0.41366862524206993,0.837652563546732,0.21240708949082718,0.2060470468276432,-0.19050915887228528,no_tremor
321,4605080,2.334,-0.0017502306100783149,-0.41356245131141245,0.8376135901103313,0.2047083469777553,0.20644276176602908,-0.15476072853564035,no_tremor
322,4605094,2.348,-0.002076537190426246,-0.41345821413518474,0.8375745958384436,0.19869662214904443,0.20840231201145543,-0.12337060087302522,no_tremor
323,4605099,2.353,-0.0023776909677978362,-0.4133571291089335,0.8375361570584019,0.19415241016568832,0.21156057572834203,-0.09601020166452022,no_tremor
324,4605114,2.368,-0.002653418803681594,-0.4132602554550894,0.8374987891819125,0.19086328138527064,0.2155867661491657,-0.07235232931226568,no_tremor
325,4605123,2.377,-0.0029037915681766184,-0.41316848925637734,0.8374629421902179,0.18862670156112119,0.22018599548357407,-0.05207325573371359,no_tremor
326,4605128,2.382,-0.0031291947980711383,-0.4130825592581813,0.8374289972677573,0.18725252675171605,0.22510024010453247,-0.034854815703816405,no_tremor
327,4605133,2.387,-0.003330297634166515,-0.4130030255259851,0.8373972646705966,0.1865651381349286,0.23010871065974692,-0.020386485358749262,no_tremor
328,4605138,2.392,-0.0035080203604849515,-0.4129302810073332,0.8373679828903743,0.1864051865293706,0.2350276330857334,-0.008367440550595821,no_tremor
329,4605152,2.406,-0.003663500856750996,-0.41286455600630695,0.837341319148599,0.1866309208002295,0.23970944956790755,0.0014914246796079575,no_tremor
330,4605158,2.412,-0.00379806026365766,-0.4128059255311109,0.8373173712307701,0.1871190788632408,0.24404145260030916,0.009465549202880456,no_tremor
331,4605182,2.436,-0.0039131681510649,-0.4127543194218354,0.8372961706451569,0.1877653254631082,0.24794387048622843,0.015814863885339637,no_tremor
