sample,t_ms,t_s,ax,ay,az,gx,gy,gz,tremor
0,4819066,0.0,0.12249679541101227,-0.3078203802013631,0.8813416628283807,0.7529292786705822,-2.973684993619844,-0.04717607005173763,no_tremor
1,4819078,0.012,0.12615825376761491,-0.306923517262272,0.8806012727162078,1.2939266664523403,-5.651113594206927,2.9334892600092712,no_tremor
2,4819142,0.076,0.1309886381174436,-0.30580171969011644,0.8794977297634625,1.747277446833791,-8.313051117265305,5.604751880900578,no_tremor
3,4819165,0.099,0.13667320728470667,-0.3045248214602051,0.877986857677808,2.07447951850091,-10.70621601706533,7.818090653681155,no_tremor
4,4819187,0.121,0.14241757948402756,-0.3032261113126034,0.8761189386021355,2.243817133569694,-12.495047765465463,9.45986755873574,no_tremor
5,4819198,0.132,0.14716645690981606,-0.30204072321007636,0.8740269265058846,2.2316216976833605,-13.285998310164805,10.452679921315605,no_tremor
6,4819221,0.155,0.14983166644961265,-0.30106100145131587,0.8719008669770537,2.023860016983602,-12.664227771964768,10.75621031208082,no_tremor
7,4819251,0.185,0.14944750731184311,-0.3003184860701167,0.8699659867364259,1.6179561736524442,-10.240919501494089,10.367539619426406,no_tremor
8,4819262,0.196,0.14526203784830133,-0.29978339921582,0.8684669924475853,1.0245663653692823,-5.707908118982091,9.32035112193939,no_tremor
9,4819274,0.208,0.13679242017467852,-0.299372296379056,0.8676554456043056,0.26886188383226295,1.1053034897063652,7.6820158400007905,no_tremor
10,4819285,0.219,0.1238625133153704,-0.2989591297206454,0.8677768361982383,-0.6092167022184853,10.178629631067011,5.5474266885432675,no_tremor
11,4819296,0.23,0.10662748885021861,-0.29838848951366886,0.8690555108543327,-1.5562552233336762,21.260398201095914,3.028802827029265,no_tremor
12,4819307,0.241,0.0855820647495603,-0.2974911939405873,0.871677130371281,-2.508586782182142,33.84684362726997,0.24154154188821678,no_tremor
13,4819318,0.252,0.06154639732943508,-0.29610224601809615,0.8757694198418781,-3.3975262973691316,47.190496935304516,-2.7125682117073224,no_tremor
14,4819352,0.286,0.03562515341982659,-0.2940801641369162,0.8813827204670671,-4.156292012591195,60.34414017764265,-5.762087426506192,no_tremor
15,4819385,0.319,0.009139291736355405,-0.29132540376779564,0.8884724291474625,-4.727810835955711,72.24294484130066,-8.87884311837698,no_tremor
16,4819419,0.353,-0.016464811720890954,-0.28779466013196287,0.8968859410548127,-5.072211975411849,81.8203917184769,-12.083000727774012,no_tremor
17,4819430,0.364,-0.03971972661425913,-0.28350800337815923,0.9063571139948414,-5.172685494628479,88.14413688513298,-15.437457389923638,no_tremor
18,4819464,0.398,-0.059243433900557994,-0.27854747259039053,0.9165110634847332,-5.0385944077084766,90.54924518264887,-19.03130820501828,no_tremor
19,4819475,0.409,-0.07383757463668572,-0.27304850014120857,0.9268805553628513,-4.7051725138139355,88.74294511334524,-22.9552109124043,no_tremor
20,4819507,0.441,-0.08257083302822482,-0.26718802192929025,0.9369323911512442,-4.229665319154385,82.85999282508845,-27.27372427379823,no_tremor
21,4819586,0.52,-0.08484478952144127,-0.2611739088695944,0.9460995069523565,-3.6843112052702356,73.45844530409099,-32.000378025759574,no_tremor
22,4819597,0.531,-0.08044137377497797,-0.2552389208375405,0.9538141074645421,-3.1470280002688207,61.45640164169192,-37.080525306032364,no_tremor
23,4819631,0.565,-0.0695500265477262,-0.24963965046123732,0.9595393207886292,-2.690982204164031,48.017869943661694,-42.38551219469592,no_tremor
24,4819642,0.576,-0.05277092142655571,-0.24465854084702846,0.9627993305240271,-2.374493919957029,34.4024462546278,-47.71968354997854,no_tremor
25,4819664,0.598,-0.031090781800159718,-0.2406058477622819,0.9632083286526888,-2.233054182277816,21.80136260786231,-52.83917718796867,no_tremor
26,4819687,0.621,-0.0058300436880526045,-0.23781764977697836,0.9604971928645042,-2.2752076566366166,11.188574009637305,-57.478429885746365,no_tremor
27,4819709,0.643,0.021438153969673163,-0.23664487666919784,0.9545358804762584,-2.4831936916151394,3.2139165954169595,-61.37766405792215,no_tremor
28,4819766,0.7,0.0489965104098395,-0.23742792695537548,0.9453504449974439,-2.8177993367817007,-1.845634474249446,-64.30397588283932,no_tremor
29,4819777,0.711,0.07511715688313862,-0.24045428457636378,0.9331349092705857,-3.225759892665312,-4.076110109360503,-66.06133583069806,no_tremor
30,4819788,0.722,0.0982104228111973,-0.24590334250942517,0.9182576822991207,-3.6478340434009957,-3.8704262937740954,-66.49007676257682,no_tremor
31,4819833,0.767,0.11696839800405294,-0.2537902026730703,0.9012596185995727,-4.026159678116216,-1.8438905565673875,-65.4611404418188,no_tremor
32,4819888,0.822,0.13047803613109238,-0.26392356603771305,0.8828387489037786,-4.310041459703736,1.261920974313143,-62.87149459069121,no_tremor
33,4819910,0.844,0.13828502448495472,-0.27588970444108846,0.8638179163511779,-4.4595978877914915,4.674003676453485,-58.644707326367296,no_tremor
34,4819922,0.856,0.14040339536999688,-0.28906729418744465,0.8450960659936775,-4.446916459605154,7.671818102172279,-52.73733204495196,no_tremor
35,4819999,0.933,0.1372772118294593,-0.30267093114486415,0.8275888337787508,-4.254887031035098,9.653328313845627,-45.149927591072135,no_tremor
36,4820022,0.956,0.12970422997587336,-0.3158168317190018,0.8121662005977496,-3.8746254352807323,10.180240159851587,-35.94125675772886,no_tremor
37,4820033,0.967,0.11873020300475537,-0.32760206569833855,0.7995938013563946,-3.3028402762244857,9.004291187574127,-25.24384720774207,no_tremor
38,4820044,0.978,0.10552285183498848,-0.3371874196310949,0.790482183836702,-2.5402401254673546,6.0789711260502255,-13.277740345596206,no_tremor
39,4820055,0.989,0.09123914300842186,-0.34387351995314647,0.7852471373413125,-1.591272889633835,1.5591113022108183,-0.3578384125427089,no_tremor
40,4820066,1.0,0.07690525913957487,-0.34716085858001955,0.7840843259473853,-0.46467311566211,-4.213849780740007,13.109588861034043,no_tremor
41,4820078,1.012,0.06332994911998414,-0.34678721018963965,0.7869613959788259,0.8260509355877597,-10.74609139925715,26.643441735590674,no_tremor
42,4820155,1.089,0.05106537964058133,-0.34274008619722107,0.7936291947447248,2.262800348149358,-17.44832750307878,39.71622855653344,no_tremor
43,4820177,1.111,0.040416620675193485,-0.33524614698329963,0.8036507995395777,3.8237110836111246,-23.711745983735145,51.79037093674856,no_tremor
44,4820189,1.123,0.03148737184654607,-0.3247425035519572,0.8164440191258852,5.483995252839645,-28.991046447649857,62.35711932753802,no_tremor
45,4820200,1.134,0.024242030020001984,-0.3118357176142465,0.831331410214958,7.215991502952958,-32.878040188949775,70.97347425664641,no_tremor
46,4820244,1.178,0.01856509874428993,-0.29725343457636333,0.84759211787438,8.987949792207464,-35.15110762956368,77.29401025578133,no_tremor
47,4820300,1.234,0.01430517962455095,-0.2817923684607043,0.8645110382357398,10.761671155616927,-35.79242860508064,81.09543975102613,no_tremor
48,4820311,1.245,0.011297748058632043,-0.26626591780860237,0.8814215490248448,12.489655963507902,-34.972239951278574,82.29184840273133,no_tremor
49,4820377,1.311,0.009366838231389812,-0.25145482864113633,0.8977381363783735,14.11276672575176,-33.00505283711371,80.93879819937614,no_tremor
50,4820389,1.323,0.008311397516413535,-0.238064054518904,0.9129758711300098,15.559612150928965,-30.28721786049329,77.22571311046258,no_tremor
51,4820434,1.368,0.007887127577824855,-0.22668785231100552,0.926755867217839,16.748810756508878,-27.228715082507588,71.45771635916266,no_tremor
52,4820489,1.423,0.007796807664416028,-0.21778369831886205,0.9387989359160398,17.594789904582626,-24.19277952257676,64.02951287894052,no_tremor
53,4820534,1.468,0.007699898768236298,-0.21165454595161182,0.9489121021687446,18.01684716357907,-21.453802307968676,55.394609999923546,no_tremor
54,4820545,1.479,0.007246561693599256,-0.20843864655824623,0.9569735717913926,17.950194141565497,-19.178409938019374,46.033151832695786,no_tremor
55,4820556,1.49,0.006133594567886786,-0.20810664081280525,0.9629208907093857,17.35696318220612,-17.42875988436096,36.42103852943582,no_tremor
56,4820567,1.501,0.004171337146159559,-0.2104665493584982,0.9667445990773271,16.234847289637194,-16.182003915233583,27.00214946549842,no_tremor
57,4820579,1.513,0.0013437026185714404,-0.2151778880664781,0.9684867413067205,14.62129770467011,-15.357001920144322,18.164859276125245,no_tremor
58,4820611,1.545,-0.002157905460343811,-0.22177570504173033,0.9682417536261949,12.592116919913325,-14.840172643686655,10.223825594153563,no_tremor
59,4820644,1.578,-0.005939565779828766,-0.2297038892884958,0.9661571679890967,10.25463651760931,-14.506228763704613,3.4080102331526647,no_tremor
60,4820656,1.59,-0.00944928508600534,-0.23835540766273894,0.9624324139341754,7.736892039636318,-14.233675022708175,-2.144314562701112,no_tremor
61,4820667,1.601,-0.012049659193531438,-0.2471160737647565,0.9573145431574592,5.174799389298477,-13.916720330845054,-6.383437941419894,no_tremor
62,4820732,1.666,-0.01310158070634494,-0.2554082325560226,0.9510896828661464,2.6992604491036793,-13.474415355409748,-9.339711649088029,no_tremor
63,4820744,1.678,-0.012042793073816359,-0.2627307917412924,0.9440692716499032,0.42472121858582035,-12.856310452662338,-11.110221846431891,no_tremor
64,4820755,1.689,-0.008449834316291899,-0.2686919214397031,0.9365713690244739,-1.5597244567083266,-12.043545910754016,-11.842566899303383,no_tremor
65,4820822,1.756,-0.0020772200681645177,-0.27303089062922065,0.9288991574159898,-3.1959915211004737,-11.045184271485265,-11.717638360365113,no_tremor
66,4820854,1.788,0.007127617962066155,-0.27562661543654937,0.921320059832064,-4.459123975950477,-9.890903466420845,-10.93296555162049,no_tremor
67,4820865,1.799,0.01903126088770088,-0.27649255977573406,0.9140489972792686,-5.355952684943657,-8.622118609212349,-9.687713761283769,no_tremor
68,4820888,1.822,0.03333796646756421,-0.2757598682691858,0.9072383892777022,-5.920685102344409,-7.28377857285877,-8.169974301154596,no_tremor
69,4820899,1.833,0.04962363595530579,-0.2736521882720694,0.9009761307817953,-6.20810645263538,-5.918448863852542,-6.546659984324285,no_tremor
70,4820910,1.844,0.06737384706079512,-0.27045619943656807,0.8952913973918105,-6.285308521668789,-4.563246380599321,-4.9561437759033575,no_tremor
