sample,t_ms,t_s,ax,ay,az,gx,gy,gz,tremor
0,4671490,0.0,0.0034174745097135853,-0.3005715753534686,0.8820604909576252,2.324846183377832,-1.4528762819792052,8.698687743268955,no_tremor
1,4671494,0.004,0.002982208819788199,-0.3005539248959466,0.8820662965881124,2.277820601818197,-1.644441197445342,8.92704193342925,no_tremor
2,4671499,0.009,0.002307445286284646,-0.3005218632449815,0.8820850148918771,2.2181248670883447,-1.8183411692372138,9.096684698200479,no_tremor
3,4671509,0.019,0.001326545325256672,-0.3004686490785923,0.8821245253741116,2.1451014744349304,-1.9713952341686602,9.19986776307051,no_tremor
4,4671519,0.029,2.038624333581575e-06,-0.30038807909006204,0.8821924686452092,2.058143301014595,-2.1003340191849817,9.228729003239188,no_tremor
5,4671544,0.054,-0.0016791673512736656,-0.30027494180387715,0.882295056830679,1.956701619807591,-2.2018189329453723,9.175345679578612,no_tremor
6,4671553,0.063,-0.003716410541448647,-0.30012487289379886,0.8824368733579748,1.8402941649268876,-2.2724630705453004,9.031791444932836,no_tremor
7,4671558,0.068,-0.006103662583050539,-0.299934039167361,0.8826211701612491,1.708513178250896,-2.3088537520523884,8.790196835394271,no_tremor
8,4671563,0.073,-0.008834132437847524,-0.29969887123812444,0.8828502587737381,1.5610333613250584,-2.307576601895588,8.442812913288671,no_tremor
9,4671573,0.083,-0.011902014797180373,-0.29941590392036294,0.8831258178117883,1.3976196505461884,-2.2652410618916297,7.982077681773378,no_tremor
10,4671578,0.088,-0.015302659944700028,-0.2990817089166188,0.8834490851285907,1.218134727735399,-2.1785072147533286,7.400684844813217,no_tremor
11,4671583,0.093,-0.019032064950798566,-0.2986928876919225,0.8838209585568612,1.0225461725043479,-2.0441137767369573,6.691654440735452,no_tremor
12,4671587,0.097,-0.02308617375243389,-0.2982460980665837,0.884242037749991,0.8109331577032926,-1.8589070976503943,5.8484048327686144,no_tremor
13,4671592,0.102,-0.027460203969931873,-0.297738097578538,0.8847126325680981,0.5834925851772593,-1.619870984162601,4.864825496136193,no_tremor
14,4671597,0.107,-0.032148076448063966,-0.29716579408605087,0.885232754520077,0.3405445564083636,-1.3241571388503701,3.7353499986515235,no_tremor
15,4671602,0.112,-0.03714195972641015,-0.2965262986906433,0.8858021009938337,0.08253707161539119,-0.9691159835213058,2.4550285312022537,no_tremor
16,4671607,0.117,-0.04243191784840587,-0.2958169785946858,0.8864200376880232,-0.1899501482902576,-0.5523276122659664,1.019599307720048,no_tremor
17,4671612,0.122,-0.048005644162379804,-0.29503550877884405,0.8870855821437079,-0.4762028197478816,-0.07163259890213837,-0.5744418769135187,no_tremor
18,4671617,0.127,-0.05384826506903203,-0.29417992195912457,0.8877973898905688,-0.7753703330020856,0.4748376339249215,-2.329774666754798,no_tremor
19,4671622,0.132,-0.05994220106602397,-0.2932486565006135,0.8885537439922713,-1.0864651598333153,1.0886311906350497,-4.248190494702971,no_tremor
20,4671627,0.137,-0.06626707592251674,-0.2922406020116514,0.8893525484037497,-1.4083635194684414,1.7709471411915891,-6.330533022910497,no_tremor
21,4671636,0.146,-0.07279966770833077,-0.2911551423157944,0.8901913253688492,-1.739807383291632,2.5226083479141703,-8.576643433657575,no_tremor
22,4671641,0.151,-0.07951389757866915,-0.2899921954487832,0.8910672169954555,-2.079407891448357,3.3440360112929275,-10.985311320874008,no_tremor
23,4671666,0.176,-0.0863808537496754,-0.288752250277841,0.8919769910962031,-2.425650244337672,4.235226266524726,-13.55423191342029,no_tremor
24,4671671,0.181,-0.09336884911788813,-0.28743639930172293,0.8929170513493484,-2.7769001186018145,5.195729159249097,-16.279970333302295,no_tremor
25,4671676,0.186,-0.1004435116005773,-0.2860463671656909,0.8938834518024422,-3.13141164073671,6.22463032126122,-19.15793355576402,no_tremor
26,4671681,0.191,-0.10756790660754965,-0.2845845344157716,0.8948719157038156,-3.4873369324682137,7.320535654888321,-22.182350693743697,no_tremor
27,4671686,0.196,-0.11470269117916176,-0.28305395601943234,0.8958778586003988,-3.8427372210905517,8.481559318357911,-25.346262175524622,no_tremor
28,4671691,0.201,-0.12180629929862932,-0.28145837419346487,0.8968964155845917,-4.195595485342649,9.705315283810705,-28.641518319774203,no_tremor
29,4671695,0.205,-0.12883515774922052,-0.2798022251035107,0.8979224725092229,-4.543830583081294,10.988912714336688,-32.05878773480073,no_tremor
30,4671700,0.21,-0.1357439316653074,-0.27809063903306336,0.8989507009203451,-4.885312780603776,12.328955376104256,-35.58757587765025,no_tremor
31,4671705,0.215,-0.14248579863888083,-0.27632943366298446,0.8999755963850624,-5.217880574591795,13.721545265770885,-39.216254003018946,no_tremor
32,4671710,0.22,-0.1490127499028335,-0.27452510015572273,0.9009915198177021,-5.539358666452008,15.162290591366068,-42.93209861161605,no_tremor
33,4671749,0.259,-0.15527591672839736,-0.2726847818016983,0.9019927413340065,-5.847576916077278,16.64631819619573,-46.72134137281387,no_tremor
34,4671754,0.264,-0.16122591975607012,-0.27081624505872015,0.9029734860918226,-6.140390068927416,18.16829045915151,-50.569229349214886,no_tremor
35,4671764,0.274,-0.16681323854257338,-0.26892784289830146,0.9039279815124975,-6.415698018583881,19.72242663968635,-54.460095197661865,no_tremor
36,4671790,0.3,-0.171988598175022,-0.2670284704640157,0.904850505226994,-6.671466338902355,21.302528560925996,-58.377436872991545,no_tremor
37,4671794,0.304,-0.1767033694054187,-0.2651275131447425,0.9057354330613137,-6.905746797833952,22.902010442705354,-62.3040062268998,no_tremor
38,4671809,0.319,-0.18090997841727738,-0.26323478726772104,0.9065772863692114,-7.116697550870272,24.51393261571107,-66.22190577824121,no_tremor
39,4671824,0.334,-0.1845623220670257,-0.2613604737208543,0.907370778033284,-7.302602708198189,26.131038779159898,-70.11269283273217,no_tremor
40,4671828,0.338,-0.1876161842528582,-0.25951504491952915,0.9081108564844788,-7.461890978350735,27.745796416094162,-73.9574900489309,no_tremor
41,4671833,0.343,-0.19002964895146723,-0.2577091856401779,0.9087927471349805,-7.593153112515002,29.350439955675732,-77.73710148344855,no_tremor
42,4671838,0.348,-0.19176350542084553,-0.2559537083509091,0.9094119906847752,-7.695157904048844,30.937016269017665,-81.43213310054526,no_tremor
43,4671843,0.353,-0.19278164108536647,-0.2542594637776493,0.9099644778523661,-7.766866531573266,32.497432098787826,-85.02311669569758,no_tremor
44,4671852,0.362,-0.1930514176889511,-0.2526372475495841,0.9104464801948444,-7.807445067150543,34.023503046274556,-88.4906361528814,no_tremor
45,4671857,0.367,-0.192544026417297,-0.25109770386598557,0.9108546768157113,-7.816275001985731,35.50700376682725,-91.8154549257669,no_tremor
46,4671862,0.372,-0.19123481784821286,-0.24965122721197835,0.9111861769004185,-7.792961670376228,36.93971905106561,-94.97864360263628,no_tremor
47,4671876,0.386,-0.1891036027904487,-0.24830786321644094,0.9114385381576273,-7.737340478020717,38.313495491154946,-97.96170638598926,no_tremor
48,4671886,0.396,-0.18613492031777912,-0.2470772097845847,0.9116097813669426,-7.649480863618798,39.620293444900746,-100.74670529381561,no_tremor
49,4671918,0.428,-0.18231826959774902,-0.24596831964720012,0.9116984013318804,-7.529687944268132,40.852239011329935,-103.31638087388741,no_tremor
50,4671923,0.433,-0.17764830245317306,-0.24498960544936835,0.9117033746046624,-7.37850181701703,42.001675715810904,-105.65426822074221,no_tremor
51,4671933,0.443,-0.17212497397638904,-0.24414874846066767,0.9116241643866276,-7.1966945113080305,43.06121556839528,-107.74480710630381,no_tremor
52,4671937,0.447,-0.1657536489348923,-0.2434526119374793,0.9114607230180428,-6.985264608806081,44.02378910820679,-109.57344508811086,no_tremor
53,4671942,0.452,-0.1585451621526671,-0.24290716011507804,0.9112134924578373,-6.745429567508475,44.882693987212946,-111.12673254510848,no_tremor
54,4671947,0.457,-0.15051583151465137,-0.24251738375528525,0.9108834031191536,-6.478615806964946,45.6316415895843,-112.39240870126797,no_tremor
55,4671952,0.462,-0.14168742271641988,-0.24228723312113554,0.9104718713708936,-6.186446632301166,46.264801137997516,-113.35947782016109,no_tremor
56,4671956,0.466,-0.1320870653667154,-0.2422195591884021,0.9099807959397881,-5.870728097003944,46.77684071214459,-114.01827488162876,no_tremor
57,4671967,0.477,-0.12174712055033729,-0.24231606383165927,0.9094125533550441,-5.533432927779283,47.162964601020555,-114.36052018257989,no_tremor
58,4671977,0.487,-0.11070500047787989,-0.24257725963827279,0.9087699924731774,-5.176682659031428,47.41894643199579,-114.3793624375369,no_tremor
59,4671982,0.492,-0.09900294138998085,-0.2430024399065998,0.9080564280106159,-4.802728149630191,47.54115756903835,-114.06941009111544,no_tremor
60,4671991,0.501,-0.08668773144631226,-0.24358965927452306,0.9072756329042815,-4.413928680435862,47.526590351458566,-113.42675069512713,no_tremor
61,4672001,0.511,-0.07381039590899355,-0.24433572530173212,0.9064318292255071,-4.012729857259511,47.372875850649734,-112.44895834904302,no_tremor
62,4672006,0.516,-0.060425842519975334,-0.24523620119548226,0.9055296773008716,-3.6016405705785655,47.078295946670515,-111.13508935623514,no_tremor
63,4672011,0.521,-0.046592470565415545,-0.24628541972732668,0.9045742626545606,-3.183209290419288,46.641789656962096,-109.48566641197213,no_tremor
64,4672037,0.547,-0.03237174771092061,-0.24747650823990983,0.9035710803876791,-2.7600000015923647,46.06295377623946,-107.50265181414998,no_tremor
65,4672042,0.552,-0.017827759273919115,-0.2488014244900316,0.9025260166523253,-2.3345681092461947,45.34203800528864,-105.18941037348135,no_tremor
66,4672130,0.64,-0.0030267351626051073,-0.25025100291898716,0.9014453269570144,-1.9094366653182857,44.47993485654357,-102.55066289133974,no_tremor
67,4672134,0.644,0.011963439771523188,-0.25181501079063584,0.9003356111420738,-1.487073279800208,43.478164725558386,-99.59243125880627,no_tremor
68,4672161,0.671,0.02707372579756327,-0.2534822135093597,0.8992037849676335,-1.0698680814872004,42.33885660646341,-96.32197638960157,no_tremor
69,4672180,0.69,0.04223443235073765,-0.2552404483498726,0.8980570483379053,-0.660113074939833,41.06472499989642,-92.74773030921429,no_tremor
70,4672185,0.695,0.057375719570181644,-0.2570767058158807,0.8969028502270237,-0.2599832020350909,39.65904360840031,-88.87922376790941,no_tremor
71,4672190,0.7,0.07242809101036174,-0.2589772178864865,0.8957488503748303,0.12848063634043,38.125616435872814,-84.72701072721392,no_tremor
72,4672204,0.714,0.08732287157655019,-0.26092755247855687,0.8946028777997931,0.5033864006763192,36.46874690729029,-80.30259100001237,no_tremor
73,4672209,0.719,0.10199266524990523,-0.26291271352040807,0.8934728861463306,0.8630034338211481,34.6932056072505,-75.61833221932525,no_tremor
74,4672214,0.724,0.1163717877737919,-0.2649172460807279,0.8923669058572019,1.2057725944923239,32.8041972048723,-70.68739218471802,no_tremor
75,4672224,0.734,0.13039667012712594,-0.26692534602160706,0.8912929931489602,1.530313966592313,30.80732708992349,-65.52364249825686,no_tremor
76,4672229,0.739,0.14400622928594028,-0.26892097364527334,0.8902591757800224,1.835432157033301,28.70856819089996,-60.14159426025098,no_tremor
77,4672234,0.744,0.15714220345646346,-0.2708879707809987,0.8892733956444955,2.1201192409842315,26.51422838112638,-54.556326453965355,no_tremor
78,4672239,0.749,0.1697494496440511,-0.27281018071257196,0.8883434483039693,2.3835554546036724,24.230918806383706,-48.78341751292939,no_tremor
79,4672244,0.754,0.18177620209707013,-0.2746715702795249,0.8874769196827746,2.6251077700505476,21.865523390650846,-42.83888043810381,no_tremor
80,4672253,0.763,0.1931742908269846,-0.27645635340000746,0.8866811202942751,2.844326515477674,19.425169699022668,-36.73910171798974,no_tremor
81,4672289,0.799,0.20389932004674124,-0.27814911516451163,0.8859630175277565,3.0409402241796952,16.91720126186687,-30.50078420489193,no_tremor
82,4672293,0.803,0.21391080697815001,-0.27973493554515755,0.8853291666945218,3.2148489123584683,14.349151393652944,-24.140894013512806,no_tremor
83,4672298,0.808,0.22317228204129383,-0.28119951166737334,0.8847856416898108,3.366115993325498,11.728718474238294,-17.67661142597354,no_tremor
84,4672303,0.813,0.23165135193833072,-0.28252927751534923,0.8843379662535722,3.4949590362115486,9.063742600087993,-11.125285699115022,no_tremor
85,4672308,0.818,0.239319727565933,-0.2837115199022195,0.883991046893642,3.6017395700163557,6.362183459252595,-4.504393571014922,no_tremor
86,4672318,0.828,0.24615321902957657,-0.28473448953326397,0.8837491085689058,3.6869521222779698,3.632099239274073,2.1684988383714825,no_tremor
87,4672322,0.832,0.25213170029373105,-0.28558750601875155,0.8836156342284429,3.7512126692340586,0.8816263435231269,8.875771129680079,no_tremor
88,4672337,0.847,0.25723904619542376,-0.2862610557417654,0.8835933092793715,3.7952466623635552,-1.881040330883746,15.599781200752645,no_tremor
89,4672341,0.851,0.2614630446868013,-0.2867468815457691,0.8836839720215411,3.819876783855551,-4.6476668128925755,22.32289582264234,no_tremor
90,4672346,0.856,0.2647952872665347,-0.28703806326978376,0.8838885710464048,3.8260105698348306,-7.409999439174531,29.027519777458885,no_tremor
91,4672351,0.861,0.2672310406196444,-0.2871290882219461,0.8842071305506963,3.814628024930277,-10.159784460992869,35.696124143281985,no_tremor
92,4672356,0.866,0.26876910251734415,-0.28701591074397514,0.8846387244605542,3.786769335546967,-12.888788134190719,42.31127431982355,no_tremor
93,4672371,0.881,0.2694116450368726,-0.28669600008111057,0.8851814601954955,3.7435227730517457,-15.588817540011567,48.85565838003498,no_tremor
94,4672376,0.886,0.2691640481475897,-0.28616837583728966,0.8858324728215538,3.686012863768194,-18.251742369078848,55.31211630449904,no_tremor
95,4672406,0.916,0.2680347266725568,-0.28543363036771635,0.8865879302461648,3.6153888920754147,-20.869517880065363,61.663670606816744,no_tremor
96,4672411,0.921,0.2660349535688522,-0.28449393754564894,0.8874430499898013,3.5328137966727002,-23.43420921806931,67.89355879264718,no_tremor
97,4672426,0.936,0.2631786823640057,-0.2833530474432636,0.8883921279249178,3.4394535170888596,-25.938017244653764,73.98526801924903,no_tremor
98,4672435,0.945,0.2594823714254131,-0.2820162665938451,0.8894285791949798,3.3364668456877027,-28.373305990360617,79.9225722439702,no_tremor
99,4672445,0.955,0.2549648125117896,-0.28049042365808347,0.8905449913120268,3.224995838216715,-30.73263178953934,85.6895720736868,no_tremor
100,4672449,0.959,0.24964696575687226,-0.27878382050036477,0.8917331891840519,3.1061568333308633,-33.008774096014164,91.27073745217426,no_tremor
101,4672454,0.964,0.24355180287328565,-0.2769061688864713,0.8929843115541428,2.9810321292330735,-35.19476790806204,96.65095324618446,no_tremor
102,4672469,0.979,0.23670415995538874,-0.2748685132342288,0.89428889805591,2.850662363775067,-37.28393765502696,101.81556771260541,no_tremor
103,4672474,0.984,0.2291306008257471,-0.27268314007501493,0.8956369858181855,2.716039642566703,-39.26993231769792,106.75044374901789,no_tremor
104,4672479,0.989,0.22085929143396774,-0.27036347510830466,0.8970182142997437,2.5781014574047227,-41.1467614721559,111.44201274860352,no_tremor
105,4672483,0.993,0.21191988540128825,-0.2679239689446415,0.8984219368151237,2.4377254343633785,-42.90883186488027,115.87733079749158,no_tremor
106,4672488,0.998,0.2023434204283728,-0.26537997282593534,0.8998373370364385,2.2957249469217067,-44.55098404829769,120.04413686705361,no_tremor
107,4672493,1.003,0.1921622249606037,-0.2627476057798181,0.901253548628057,2.1528456247067203,-46.068528532119494,123.93091256240088,no_tremor
108,4672503,1.013,0.18140983424211446,-0.26004361480488186,0.9026597760892264,2.009762783673557,-47.45728083746123,127.52694288790065,no_tremor
109,4672529,1.039,0.17012091468904245,-0.2572852297965714,0.9040454148385414,1.8670797995799595,-48.71359477915088,130.82237738012464,no_tremor
110,4672567,1.077,0.1583311953709361,-0.25449001501010643,0.9054001685681413,1.7253274428733205,-49.834393249108935,133.80829084391823,no_tremor
111,4672577,1.087,0.14607740529696836,-0.251675718916189,0.9067141619216109,1.5849641871322142,-50.817195735400226,136.47674282343007,no_tremor
112,4672582,1.092,0.1333972151440545,-0.24886012433396226,0.9079780466090512,1.4463774912459648,-51.66014179912823,138.82083487005752,no_tremor
113,4672587,1.097,0.12032918202055509,-0.24606090071866554,0.9091830991718168,1.3098860349574108,-52.36200976081728,140.834764652828,no_tremor
114,4672591,1.101,0.10691269582425268,-0.24329546043467448,0.9103213087559847,1.1757428598798711,-52.92222992869362,142.51387599535218,no_tremor
115,4672596,1.106,0.09318792573048502,-0.2405808207577874,0.911385453451988,1.0441393395269531,-53.340891827566104,143.85470399966795,no_tremor
116,4672601,1.111,0.07919576534541081,-0.23793347322716407,0.9123691640049585,0.9152098783199679,-53.61874504308855,144.85501450810736,no_tremor
117,4672606,1.116,0.06497777508905099,-0.23536926181221285,0.9132669739868875,0.7890372237192126,-53.757193467651106,145.51383724438463,no_tremor
118,4672611,1.121,0.05057612043739054,-0.23290327117733153,0.9140743558356138,0.665658267342685,-53.758282912540864,145.83149205898593,no_tremor
119,4672616,1.126,0.03603350475262614,-0.23054972612106253,0.9147877424942895,0.5450702088100178,-53.62468223124414,145.8096077824254,no_tremor
120,4672621,1.131,0.021393095562796373,-0.22832190303897842,0.9154045347159369,0.4272369583422237,-53.359658275554025,145.45113326634805,no_tremor
121,4672625,1.135,0.006698443312094687,-0.2262320540151767,0.9159230944187692,0.3120956589605357,-52.96704517297465,144.76034027011582,no_tremor
122,4672652,1.162,-0.008006608214339803,-0.2242913438908113,0.9163427247766227,0.19956321491898518,-52.45120856372996,143.74281793110816,no_tremor
123,4672657,1.167,-0.022678020390296857,-0.2225098003975934,0.9166636379918105,0.08954271908575619,-51.81700555967167,142.40545864045868,no_tremor
124,4672662,1.172,-0.03727166757336216,-0.22089627719219423,0.916886911910583,-0.018070321648969472,-51.06974127158746,140.75643523107968,no_tremor
125,4672666,1.176,-0.05174345447056668,-0.21945842940051793,0.9170144367913754,-0.12338205714135547,-50.21512278006971,138.8051694696466,no_tremor
126,4672671,1.181,-0.06604944310055598,-0.2182027010940185,0.9170488536180551,-0.22649474811025352,-49.25921139407172,136.56229192706363,no_tremor
127,4672676,1.186,-0.08014598926848512,-0.2171343239807419,0.9169934853717808,-0.32750168316749045,-48.20837396582216,134.03959338277122,no_tremor
128,4672686,1.196,-0.09398988833527608,-0.21625732649949841,0.9168522626530877,-0.42648262935004033,-47.069233935103156,131.24996799862154,no_tremor
129,4672690,1.2,-0.10753852991688112,-0.2155745524492535,0.9166296449999685,-0.5234998756120833,-45.84862267774122,128.20734857923074,no_tremor
130,4672695,1.205,-0.12075006098332011,-0.21508768825913588,0.9163305391937842,-0.6185949153132806,-44.553531640233196,124.92663431694525,no_tremor
131,4672700,1.21,-0.13358355664252583,-0.21479729799959466,0.9159602157927893,-0.7117857985894966,-43.19106565775882,121.42361149833059,no_tremor
132,4672705,1.215,-0.14599919769663533,-0.21470286524539603,0.9155242250872216,-0.8030651696527619,-41.768397778634785,117.71486772362252,no_tremor
133,4672715,1.225,-0.15795845385393684,-0.2148028409209197,0.9150283136298262,-0.8923989886868623,-40.292725856295924,113.81770026197019,no_tremor
134,4672724,1.234,-0.16942427127107712,-0.2150946962838311,0.9144783424573464,-0.9797259239687046,-38.77123112063085,109.75001923672376,no_tremor
135,4672739,1.249,-0.18036126288955198,-0.2155749802325495,0.9138802080754498,-1.0649573878195475,-37.21103890262799,105.53024640828772,no_tremor
136,4672744,1.254,-0.19073589982251113,-0.21623938015522023,0.9132397672238209,-1.1479781804825482,-35.61918165719365,101.17721039436465,no_tremor
137,4672749,1.259,-0.2005167018500116,-0.2170827855728728,0.9125627663624757,-1.2286476988964223,-34.002564406469425,96.71003923152182,no_tremor
138,4672775,1.285,-0.20967442490171,-0.21809935386626195,0.9118547767212445,-1.3068016615969058,-32.36793270920566,92.14805123060285,no_tremor
139,4672780,1.29,-0.218182243255223,-0.21928257741271975,0.9111211356342237,-1.3822542956373591,-30.72184324994983,87.51064510778681,no_tremor
140,4672785,1.295,-0.22601592407117108,-0.22062535149426507,0.9103668947472069,-1.454800926553945,-29.070637131822398,82.81719038073244,no_tremor
141,4672789,1.299,-0.23315399184478258,-0.22212004237060218,0.9095967755477519,-1.5242209091024272,-27.42041594335019,78.08691900171907,no_tremor
142,4672799,1.309,-0.23957788039814754,-0.22375855494161684,0.908815132531608,-1.5902808355774534,-25.77702064977994,73.33881915652515,no_tremor
143,4672804,1.314,-0.245272070167632,-0.2255323994557089,0.9080259241886909,-1.652737959480755,-24.146013333056978,68.59153209572368,no_tremor
144,4672809,1.319,-0.25022420873852813,-0.22743275675515187,0.9072326918663594,-1.7113437739218098,-22.532661774692922,63.86325279323671,no_tremor
145,4672814,1.324,-0.254425212817131,-0.2294505415897716,0.9064385464462003,-1.7658476858614824,-20.941926843726915,59.17163515027243,no_tremor
146,4672819,1.329,-0.25786935008644246,-0.23157646357704953,0.9056461626525207,-1.8160007294491747,-19.378452619176688,54.53370238298871,no_tremor
147,4672823,1.333,-0.26055429965044175,-0.23380108544066663,0.9048577806974359,-1.8615592646859818,-17.84655914504219,49.965763152103236,no_tremor
148,4672828,1.338,-0.2624811900249644,-0.23611487821990454,0.9040752148611241,-1.9022886117194775,-16.350237688698545,45.483333915965254,no_tremor
149,4672838,1.348,-0.26365461387765826,-0.23850827320796494,0.9032998685092664,-1.9379665763646952,-14.893148351699674,41.10106791828414,no_tremor
150,4672843,1.353,-0.2640826189558553,-0.24097171044650612,0.9025327549656259,-1.9683868287596558,-13.478619864815203,36.832691158811215,no_tremor
151,4672848,1.358,-0.26377667487221523,-0.24349568367460286,0.901774523588686,-1.9933621037496627,-12.109651384209712,32.69094563833688,no_tremor
152,4672853,1.363,-0.26275161564692334,-0.2460707817007658,0.9010254903493075,-2.0127271977649954,-10.78891609082656,28.687540115432867,no_tremor
153,4672858,1.368,-0.2610255581345635,-0.24868772623405383,0.900285672172439,-2.0263417418354566,-9.518766379901507,24.83310855990997,no_tremor
154,4672867,1.377,-0.258619796694324,-0.2513374062714682,0.8995548242892922,-2.034092733514476,-8.301240413669861,21.137176438464557,no_tremor
155,4672872,1.382,-0.2555586746926312,-0.25401090919004343,0.8988324798446763,-2.0358968117053533,-7.138069799653383,17.608134923711212,no_tremor
156,4672898,1.408,-0.2518694336544542,-0.256699548729865,0.8981179910139082,-2.0317022577433574,-6.030688150758056,14.253223078301573,no_tremor
157,4672903,1.413,-0.247582041098484,-0.25939489007655325,0.8974105709011152,-2.0214907041428427,-4.980240283576968,11.07851802692032,no_tremor
158,4672907,1.417,-0.24272899829581587,-0.262088772259418,0.8967093355128574,-2.0052785306438206,-3.987591821396632,8.088933084435014,no_tremor
159,4672912,1.422,-0.2373451293753735,-0.26477332807891507,0.8960133451265736,-1.9831179274172657,-3.0533389928161654,5.288223753610292,no_tremor
160,4672917,1.427,-0.23146735335918128,-0.267441001770233,0.8953216444030929,-1.955097608198781,-2.1778184571507397,2.679001440782052,no_tremor
161,4672922,1.432,-0.22513444084961226,-0.27008456460320124,0.8946333006281723,-1.9213431605529965,-1.3611170407351059,0.26275466809207015,no_tremor
162,4672927,1.437,-0.21838675721602066,-0.27269712861340256,0.8939474395112407,-1.882017024302469,-0.6030813283120668,-1.9601225072297754,no_tremor
163,4672941,1.451,-0.21126599424678974,-0.2752721586539531,0.893263278020562,-1.8373180907393711,0.09667288415544176,-3.990295218732111,no_tremor
164,4672951,1.461,-0.20381489234880296,-0.27780348294909396,0.8925801537917925,-1.7874809143971664,0.7387512099252628,-5.829446070230358,no_tremor
165,4672956,1.466,-0.19607695548953621,-0.280285302316444,0.8918975507091907,-1.7327745274539637,1.3239712520039997,-7.480227427481546,no_tremor
166,4672965,1.475,-0.1880961611834344,-0.2827121982023112,0.8912151203228292,-1.6735008468855088,1.8533530032162002,-8.946208225174225,no_tremor
167,4672970,1.48,-0.17991666791882596,-0.28507913964377823,0.8905326988289846,-1.6099926684741155,2.3281089230346566,-10.231815832047245,no_tremor
168,4672984,1.494,-0.17158252250148226,-0.2873814892351094,0.8898503194043413,-1.54261125024253,2.7496335678485013,-11.342273551949113,no_tremor
169,4672989,1.499,-0.16313736985589028,-0.28961500813948743,0.8891682197500046,-1.4717434995926628,3.1194926844095483,-12.283534368726938,no_tremor
170,4672994,1.504,-0.15462416787475425,-0.29177586015601104,0.8884868447724967,-1.3977987912579561,3.4394117153946255,-13.06221156748912,no_tremor
171,4673019,1.529,-0.14608490993755316,-0.2938606148305614,0.8878068444098867,-1.321205455167116,3.7112637057364486,-13.685506883189827,no_tremor
172,4673024,1.534,-0.13756035772325775,-0.29586624958834634,0.8871290667039954,-1.2424069832520956,3.9370566334727166,-14.161136838640994,no_tremor
173,4673029,1.539,-0.12908978690945114,-0.2977901508622555,0.8864545463223447,-1.1618580113725583,4.118920214102919,-14.497257937070215,no_tremor
174,4673038,1.548,-0.12071074826476004,-0.2996301141883712,0.88578448883999,-1.0800201362231903,4.259092239059063,-14.702391368535093,no_tremor
175,4673043,1.553,-0.1124588464907526,-0.3013843432320254,0.8851202511934175,-0.9973576272543911,4.359904507444191,-14.785347874900644,no_tremor
176,4673058,1.568,-0.1043675389521092,-0.303051447691566,0.8844633188091617,-0.9143330913744863,4.423768401280962,-14.755153395842292,no_tremor
177,4673068,1.578,-0.09646795616152386,-0.3046304400034013,0.883815279983845,-0.8314031453086013,4.453160145728594,-14.620976090191597,no_tremor
178,4673073,1.583,-0.08878874557552889,-0.3061207307455583,0.8831777981467365,-0.749014148407084,4.45060579297481,-14.392055294344354,no_tremor
179,4673077,1.587,-0.08135593992576821,-0.3075221226150483,0.88255258266872,-0.6675980481218737,4.418665974744762,-14.07763294339003,no_tremor
180,4673087,1.597,-0.07419285097174486,-0.3088348028440105,0.8819413588925819,-0.5875683913086567,4.359920483619968,-13.686887941792774,no_tremor
181,4673092,1.602,-0.06731998922833982,-0.31005933392529866,0.8813458380506958,-0.5093165562209441,4.276952764853274,-13.228873929212334,no_tremor
182,4673097,1.607,-0.060755009904105886,-0.3111966425401693,0.8807676877107707,-0.43320826117343636,4.172334423586195,-12.712460843350755,no_tremor
183,4673107,1.617,-0.05451268499014711,-0.31224800661614055,0.880208503351724,-0.35958040501323746,4.048609873202144,-12.146280635434087,no_tremor
184,4673112,1.622,-0.048604901166023756,-0.31321504048732346,0.8796697816227473,-0.2887382910601028,3.9082812668064437,-11.53867744544521,no_tremor
185,4673116,1.626,-0.04304068293738237,-0.3140996781770449,0.8791528957813248,-0.22095327997963057,3.7537938648850107,-10.897662494248827,no_tremor
186,4673141,1.651,-0.037826240187003576,-0.3149041548675922,0.8786590737419433,-0.15646090819436187,3.5875219976861605,-10.230873898837903,no_tremor
187,4673145,1.655,-0.03296503910325829,-0.31563098665950157,0.8781893790977325,-0.09545949730047097,3.411755780454449,-9.545541565486772,no_tremor
188,4673155,1.665,-0.02845789524468285,-0.3162829487501478,0.877744695403395,-0.03810926784509927,3.228688733493531,-8.848457264224516,no_tremor
189,4673160,1.67,-0.02430308730501126,-0.3168630521783942,0.8773257139308642,0.015468040430253436,3.0404064476699597,-8.145949937191887,no_tremor
190,4673169,1.679,-0.020496489960081642,-0.31737451929118404,0.876932925030945,0.06518904904594933,2.848876420090612,-7.4438662429952505,no_tremor
191,4673174,1.684,-0.017031724009343854,-0.3178207580930879,0.8765666131570051,0.11100813655978402,2.655939165474851,-6.747556288816778,no_tremor
192,4673179,1.689,-0.013900321874242859,-0.31820533564471004,0.8762268555329699,0.15291637070655487,2.4633006876815218,-6.0618644519458,no_tremor
193,4673189,1.699,-0.011091906387155282,-0.31853195068274825,0.8759135243793188,0.19094000394673305,2.2725263741104476,-5.391125143459697,no_tremor
194,4673193,1.703,-0.008594380700154843,-0.3188044056438089,0.8756262925485524,0.2251385653452053,2.0850363540100942,-4.739163320534199,no_tremor
195,4673203,1.713,-0.006394127063887322,-0.31902657828486314,0.8753646423657921,0.2556025876966888,1.9021023405430824,-4.109299512031411,no_tremor
196,4673213,1.723,-0.004476212173867991,-0.3192023931040883,0.8751278774201721,0.2824510149935456,1.7248459560203175,-3.5043590858452047,no_tremor
197,4673222,1.732,-0.0028245967550342764,-0.31933579277570656,0.8749151370074306,0.3058283411183772,1.5542385202441416,-2.926685456174591,no_tremor
198,4673227,1.737,-0.001422347055980463,-0.3194307098210939,0.8747254128825394,0.32590153495552515,1.3911022639601425,-2.378156903522121,no_tremor
199,4673237,1.747,-0.00025184595267628736,-0.31949103874657325,0.8745575679426625,0.3428568093215899,1.236112913787772,-1.8602066584280585,no_tremor
200,4673263,1.773,0.0007049985820282539,-0.31952060888713796,0.8744103564253489,0.35689629153477287,1.0898035820396375,-1.3738458812635035,no_tremor
201,4673282,1.792,0.0014665498029121135,-0.31952315820572974,0.8742824451758724,0.36823465267312283,0.9525698839005802,-0.9196891559144337,no_tremor
202,4673287,1.797,0.002051245361552694,-0.31950230830896803,0.8741724355139171,0.37709575078116836,0.8246761942479485,-0.4979821066829859,no_tremor
203,4673291,1.801,0.002477409239735694,-0.31946154094965923,0.8740788852179084,0.38370934027947573,0.7062629462596486,-0.10863074592533908,no_tremor
204,4673296,1.806,0.002763074217709834,-0.3194041762900925,0.8740003301500638,0.3883078953794091,0.5973548641873905,0.2487678362337149,no_tremor
205,4673301,1.811,0.002925816484952392,-0.3193333531949479,0.8739353050691917,0.3911235893946964,0.4978700136334936,0.5748938212580317,no_tremor
206,4673306,1.816,0.0029826038274400786,-0.31925201180766477,0.8738823632200956,0.3923854648822492,0.40762954416418706,0.8706724221233798,no_tremor
207,4673311,1.821,0.0029496586432710254,-0.3191628786402169,0.8738400943440604,0.3923168223171203,0.32636799113030085,1.1372414141805378,no_tremor
208,4673321,1.831,0.0028423368493193006,-0.31906845437490466,0.8738071408194538,0.39113284838626183,0.25374399695024713,1.3759187847303784,no_tremor
209,4673325,1.835,0.0026750235463666996,-0.31897100453928895,0.8737822117105367,0.389038499515788,0.18935130760517552,1.5881708346328964,no_tremor
210,4673330,1.84,0.002461046109411776,-0.31887255317263746,0.8737640945723121,0.3862266517446391,0.13272989761157103,1.775581048584562,no_tremor
211,4673335,1.845,0.0022126051639249126,-0.31877487955484746,0.8737516649262382,0.3828765239141497,0.08337707593641919,1.939820031645245,no_tremor
212,4673340,1.85,0.0019407236980753804,-0.31867951801732775,0.8737438933830911,0.3791523772155568,0.040758426408283505,2.0826167883131337,no_tremor
213,4673385,1.895,0.0016552143461667967,-0.3185877608005902,0.8737398504433548,0.3752024909618428,0.00431843941220867,2.2057315969687266,no_tremor
214,4673390,1.9,0.0013646646610813479,-0.3185006638668719,0.8737387090517316,0.37115841245691616,-0.02650930331916656,2.3109307064944624,no_tremor
215,4673395,1.905,0.0010764399756741801,-0.3184190555208259,0.8737397450214017,0.3671344779159013,-0.05229252264235462,2.39996305289519,no_tremor
216,4673399,1.909,0.0007967032377330003,-0.318343547641131,0.8737423354771388,0.3632276013080631,-0.07359133845268698,2.4745391620115726,no_tremor
217,4673409,1.919,0.0005304509933130847,-0.3182745492840977,0.8737459554959885,0.3595173285456036,-0.09095018166566228,2.536312371212023,no_tremor
218,4673414,1.924,0.0002815644911971633,-0.31821228238771154,0.8737501731508682,0.35606615510157424,-0.10489062043255183,2.586862469909263,no_tremor
219,4673419,1.929,5.28746883224076e-05,-0.31815679927915075,0.8737546431858771,0.35292010505067356,-0.1159051817779562,2.627681826597675,no_tremor
220,4673424,1.934,-0.000153760246691651,-0.3181080016678926,0.8737590995712833,0.35010956788715847,-0.12445223064005495,2.6601640385073795,no_tremor
221,4673429,1.939,-0.0003373665065419718,-0.31806566078810017,0.873763347199882,0.3476503857872682,-0.13095194882171798,2.685595108604761,no_tremor
