sample,t_ms,t_s,ax,ay,az,gx,gy,gz,tremor
0,10271442,0.0,-0.6136161504756934,-0.10015727531243969,-0.9074333178443805,4.151505629035131,8.881932315588417,4.2421913720738464,tremor
1,10271447,0.005,-0.6130309268511465,-0.10036509215799375,-0.9063449690708879,3.8847251434927377,8.17924506944956,3.947453756482237,tremor
2,10271451,0.009,-0.6122230847285149,-0.10065299775977035,-0.9048627353245458,3.6183638274622067,7.543018350386348,3.6517494687182683,tremor
3,10271456,0.014,-0.6111754986352379,-0.10102743998761006,-0.9029675119325253,3.3533092183658413,6.978345264099245,3.3559900269528318,tremor
4,10271461,0.019,-0.6099123899613689,-0.10147989462800383,-0.9007162310338669,3.090414488637644,6.489813041060802,3.061089362402643,tremor
5,10271466,0.024,-0.6084797702171372,-0.10199371980566523,-0.8982033149274351,2.8304901061185856,6.081435588102291,2.767958287039739,tremor
6,10271471,0.029,-0.6069272832265274,-0.10255065079990833,-0.8955267770780141,2.5742963563385968,5.756590057030146,2.477499164483102,tremor
7,10271476,0.034,-0.605298509751576,-0.10313433517722384,-0.8927710578295123,2.322536877343226,5.517958378733608,2.1906008429675077,tremor
8,10271480,0.038,-0.6036279317763893,-0.10373149303847613,-0.8900023917427953,2.07585332872984,5.3674746179885515,1.9081338994835837,tremor
9,10271485,0.043,-0.6019413419467483,-0.10433182805067787,-0.8872703685135032,1.834821284860291,5.306278888444686,1.6309462330781928,tremor
10,10271490,0.048,-0.6002574552403355,-0.10492748873877272,-0.8846114606371984,1.599947410917344,5.334678436619207,1.3598590343592603,tremor
11,10271505,0.063,-0.598589616667042,-0.10551248023001965,-0.8820525161727889,1.3716679515627712,5.452116367608849,1.0956631483853072,tremor
12,10271510,0.068,-0.5969472064023598,-0.10608217415485895,-0.879613545181233,1.1503485359368273,5.657148354557734,0.8391158391642909,tremor
13,10271515,0.073,-0.5953366762677138,-0.1066329441361501,-0.8773097304966612,0.9362852790162274,5.947427560173012,0.5909379552291651,tremor
14,10271519,0.077,-0.5937622725576427,-0.10716190960588565,-0.8751527997580602,0.7297071366747081,6.319697910705146,0.3518114867606274,tremor
15,10271544,0.102,-0.5922265261111462,-0.10766676047054291,-0.8731519298858745,0.530779448651683,6.769795801890156,0.12237749538285776,tremor
16,10271549,0.107,-0.5907305816762961,-0.10814563775691541,-0.8713143300280264,0.33960857931034927,7.292660273237803,-0.09676561197292023,tremor
17,10271553,0.111,-0.5892744212966874,-0.10859705128009976,-0.8696456117386915,0.15624754202008606,7.882351646403636,-0.3050635034557456,tremor
18,10271558,0.116,-0.5878570202425634,-0.10901982103875386,-0.8681500221874349,-0.01929752743769981,8.532078571624291,-0.5020070834596938,tremor
19,10271563,0.121,-0.5864764614479124,-0.1094130334762526,-0.8668305912727463,-0.18706019718552944,9.234233358392624,-0.6871334454821267,tremor
20,10271573,0.131,-0.5851300254523528,-0.10977600692015597,-0.8656892259896192,-0.34710602186195083,9.980435387471054,-0.8600266662862592,tremor
21,10271578,0.136,-0.5838142667216338,-0.11010826267582156,-0.8647267735528051,-0.4995244416740286,10.761582319619658,-1.020318483810522,tremor
22,10271587,0.145,-0.5825250831333894,-0.11040949967955435,-0.8639430669523007,-0.6444204597553336,11.56790873795458,-1.1676888901939149,tremor
23,10271592,0.15,-0.5812577827238924,-0.11067957153945078,-0.8633369615284905,-0.7819062612443377,12.389051787612962,-1.3018666595235768,tremor
24,10271597,0.155,-0.5800071500337824,-0.11091846537504951,-0.8629063678815304,-0.9120929393806037,13.21412330915449,-1.422629820013571,tremor
25,10271607,0.165,-0.5787675132487016,-0.1111262822267902,-0.8626482843418746,-1.035082495608694,14.031787902530201,-1.529806072624059,tremor
26,10271612,0.17,-0.5775328125926197,-0.1113032190224524,-0.8625588309018728,-1.1509602813406834,14.830346308678504,-1.6232731508674125,tremor
27,10271621,0.179,-0.5762966699574975,-0.11144955221279589,-0.8626332856602319,-1.2597880478928507,15.597823457180063,-1.7029591074437278,tremor
28,10271626,0.184,-0.5750524594509419,-0.11156562325609662,-0.8628661242770264,-1.361597767353332,16.322060500271828,-1.7688425013431432,tremor
29,10271640,0.198,-0.5737933783543647,-0.11165182616109608,-0.8632510625576463,-1.4563863800753356,16.990810132533078,-1.820952445017372,tremor
30,10271670,0.228,-0.5725125178718357,-0.11170859730032748,-0.8637811020051603,-1.544111613978523,17.59183447692091,-1.8593684572302542,tremor
31,10271675,0.233,-0.5712029329963684,-0.11173640768460155,-0.8644485779594425,-1.624689006325855,18.113004801131293,-1.8842200560015712,tremor
32,10271685,0.243,-0.5698577108226713,-0.11173575784465854,-0.8652452097602163,-1.6979902376464577,18.542402322795382,-1.8956860223635812,tremor
33,10271695,0.253,-0.5684700367001071,-0.11170717539684637,-0.8661621522311754,-1.7638428573529044,18.86841938046441,-1.8939932753217557,tremor
34,10271700,0.258,-0.5670332577550342,-0.11165121527743754,-0.8671900476953149,-1.8220314433056033,19.07986029101987,-1.879415322009817,tremor
35,10271709,0.267,-0.5655409435190124,-0.111568462519893,-0.8683190777095431,-1.872300200317221,19.166041270470277,-1.8522702757817469,tremor
36,10271714,0.272,-0.5639869436669779,-0.1114595373299014,-0.8695390137546565,-1.9143569717689208,19.11688884952432,-1.8129184582267854,tremor
37,10271719,0.277,-0.5623654431705861,-0.1113251020959413,-0.8708392662309414,-1.9478786140801243,18.92303625681481,-1.7617596163594769,tremor
38,10271729,0.287,-0.5606710154660455,-0.11116586987063445,-0.872208931278166,-1.9725176602247831,18.575917260451924,-1.6992297981509903,tremor
39,10271734,0.292,-0.5588986744763002,-0.11098261378032963,-0.87363683514455,-1.9879101707519276,18.06785694630818,-1.625797941275672,tremor
40,10271743,0.301,-0.5570439264721001,-0.11077617677300747,-0.8751115760528344,-1.9936846390515346,17.392158873098197,-1.5419622398485424,tremor
41,10271748,0.306,-0.5551028227767442,-0.11054748109955254,-0.8766215637318416,-1.9894717870839196,16.543187989594628,-1.4482463596171358,tremor
42,10271753,0.311,-0.5530720142066792,-0.11029753694025297,-0.8781550569772637,-1.974915064965042,15.516448635805077,-1.3451955738393082,tremor
43,10271758,0.316,-0.5509488079079897,-0.11002744963567497,-0.8797001997554112,-1.9496816574332643,14.308656882601621,-1.233372892138262,tremor
44,10271762,0.32,-0.5487312269267285,-0.10973842505678419,-0.8812450564521815,-1.9134738035378103,12.917806397655788,-1.1133552549126775,tremor
45,10271787,0.345,-0.5464180724756333,-0.10943177275041355,-0.8827776468878342,-1.8660402498366033,11.343226962875612,-0.9857298671065897,tremor
46,10271792,0.35,-0.5440089884673325,-0.10910890661829646,-0.884285981667266,-1.8071876757689331,9.585634710610108,-0.8510907461632756,tremor
47,10271797,0.355,-0.5415045275070512,-0.1087713430232013,-0.8857580983275725,-1.7367919456929624,7.647173091944886,-0.7100355560317867,tremor
48,10271802,0.36,-0.5389062172016567,-0.10842069635297436,-0.8871820986024802,-1.6548090501160255,5.531443540823236,-0.5631627872602913,tremor
49,10271807,0.365,-0.5362166253609888,-0.10805867220037262,-0.8885461869739956,-1.561285597444901,3.243524755576899,-0.4110693205380324,tremor
50,10271812,0.37,-0.5334394224430272,-0.10768705842465166,-0.8898387105484923,-1.456368709058714,0.7899794901786483,-0.2543483807351007,tremor
51,10271821,0.379,-0.5305794394184847,-0.10730771444628426,-0.8910482001915576,-1.3403151563902493,-1.8211522615556457,-0.09358785657596055,tremor
52,10271826,0.384,-0.5276427190929842,-0.10692255918860882,-0.892163412788987,-1.2134995574481278,-4.580374783115278,0.0706310669045219,tremor
53,10271846,0.404,-0.5246365588203027,-0.10653355811998456,-0.8931733744703308,-1.0764214182779386,-7.476773874539318,0.23773503595363035,tremor
54,10271851,0.409,-0.5215695424728052,-0.10614270986615294,-0.8940674246309434,-0.9297107618026569,-10.49807067942816,0.4071594972105777,tremor
55,10271855,0.413,-0.5184515595278854,-0.10575203285157114,-0.8948352606063055,-0.7741320395702052,-13.630692689715767,0.5783495841416091,tremor
56,10271860,0.418,-0.5152938092246624,-0.10536355238571182,-0.895466982869412,-0.6105859860360823,-16.85986208917326,0.7507609752410533,tremor
57,10271865,0.423,-0.5121087879911317,-0.10497928853348747,-0.8959531406174124,-0.44010906729929444,-20.169701014643504,0.9238607435763176,tremor
58,10271870,0.428,-0.5089102587681971,-0.10460124500264453,-0.8962847775720476,-0.26387020924148175,-23.543352625324495,1.0971281746089414,tremor
59,10271875,0.433,-0.5057132014643035,-0.10423139915737416,-0.8964534777326686,-0.08316456740380919,-26.96311614640683,1.2700554849726198,tremor
60,10271880,0.438,-0.5025337445388225,-0.10387169314376558,-0.8964514106902607,0.10059578221201416,-30.4105933596138,1.442148333717111,tremor
61,10271884,0.442,-0.49938907859144827,-0.10352402600812137,-0.8962713759396873,0.2858942055712695,-33.86684339838632,1.6129259837252679,tremor
62,10271911,0.469,-0.49629735376728024,-0.10319024662092922,-0.8959068454241984,0.47112473594549853,-37.31254220987071,1.7819209496157031,tremor
63,10271916,0.474,-0.4932775636818665,-0.10287214719897708,-0.8953520033316673,0.6546098061965826,-40.72814272333808,1.9486779646186756,tremor
64,10271921,0.479,-0.490349419288476,-0.10257145724706634,-0.8946017819787521,0.8346199896146441,-44.09403170604448,2.112752117439132,tremor
65,10271926,0.484,-0.48753321647358905,-0.10228983780768533,-0.8936518925312358,1.0093951577043512,-47.390679596655524,2.273706055069297,tremor
66,10271930,0.488,-0.4848497010277082,-0.10202887598973068,-0.8924988493757844,1.1771664307331422,-50.59878031516548,2.431106219830162,tremor
67,10271935,0.493,-0.48231993395888983,-0.10179007981987294,-0.8911399872045384,1.3361783139981807,-53.699379069496,2.5845181837384654,tremor
68,10271950,0.508,-0.47996515897977976,-0.10157487350077773,-0.8895734702834583,1.4847104590999531,-56.67398736615326,2.73350125074713,tremor
69,10271960,0.518,-0.4778066725609949,-0.10138459315696562,-0.8877982939090174,1.6210985530296655,-59.504685656927634,2.877602604811536,tremor
70,10271964,0.522,-0.475865695392877,-0.10122048310003719,-0.8858142786635765,1.7437539198866772,-62.17421520324685,3.0163513738143086,tremor
71,10271969,0.527,-0.4741632426475231,-0.10108369255800147,-0.8836220586918792,1.851181527126139,-64.66606168630415,3.1492530402843606,tremor
72,10271979,0.537,-0.47271998930468373,-0.10097527270292458,-0.8812230657660258,1.9419962219570794,-66.96453371087979,3.275784649720052,tremor
73,10271984,0.542,-0.4715561261873315,-0.10089617369389407,-0.8786195113199695,2.0149371751196457,-69.05483957144939,3.3953912459900613,tremor
74,10271993,0.551,-0.4706912023758115,-0.10084724134287337,-0.8758143688742154,2.0688806607937567,-70.92316545005387,3.5074839050519637,tremor
75,10272008,0.566,-0.4701439504112814,-0.10082921291939115,-0.87281135931081,2.102851429693703,-72.5567575918762,3.6114396455378808,tremor
76,10272036,0.594,-0.46993209219064763,-0.10084271154408288,-0.8696149412765585,2.1160330128523794,-73.94400996492985,3.706603369876257,tremor
77,10272041,0.599,-0.47007212564363066,-0.10088823859320283,-0.8662303085689608,2.107777303737748,-75.07455752677909,3.7922918418407447,tremor
78,10272046,0.604,-0.4705790949543614,-0.10096616356844687,-0.8626633956892727,2.07761369351526,-75.9393736831041,3.8677995557944547,tremor
79,10272051,0.609,-0.47146634984422187,-0.10107671100578201,-0.8589208918624639,2.0252578869448468,-76.53086910857922,3.9324062241857694,tremor
80,10272055,0.613,-0.4727453018015099,-0.10121994421907947,-0.8550102628042575,1.9506203374470301,-76.84298804747316,3.985385519590948,tremor
81,10272065,0.623,-0.4744251867842576,-0.10139574598970261,-0.8509397784705948,1.8538140530640064,-76.87129761024636,4.026014657652001,tremor
82,10272070,0.628,-0.47651284469837846,-0.10160379668842369,-0.8467185440683844,1.7351613763706781,-76.61306540818009,4.053584391737176,tremor
83,10272075,0.633,-0.47901252586761117,-0.10184355070420623,-0.8423565308447849,1.59519925087154,-76.06732107287773,4.0674090053014185,tremor
84,10272080,0.638,-0.48192573382427806,-0.1021142124039236,-0.8378646027004919,1.4346824588619282,-75.23489775319818,4.066835933818235,tremor
85,10272085,0.643,-0.485251112154952,-0.10241471310905548,-0.8332545345569624,1.2545843427277599,-74.11845051968555,4.051254724038705,tremor
86,10272095,0.653,-0.4889843809696743,-0.10274369071175025,-0.8285390186658003,1.0560945858577042,-72.72244966605201,4.020105138694663,tremor
87,10272099,0.657,-0.4931183260025038,-0.10309947354261373,-0.8237316556489397,0.8406137130071678,-71.05314810178093,3.972884328695473,tremor
88,10272104,0.662,-0.49764284059024705,-0.10348006994451373,-0.8188469279360427,0.6097440630361853,-69.1185233051135,3.9091531071478607,tremor
89,10272114,0.672,-0.5025450180126518,-0.10388316471651995,-0.8139001543364532,0.36527708975875267,-66.92819557535238,3.828541453291559,tremor
90,10272119,0.677,-0.5078092890963124,-0.104306123201349,-0.8089074256501246,0.10917696707614113,-64.49332550448402,3.730753436677348,tremor
91,10272124,0.682,-0.5134175977535117,-0.10474600334241256,-0.8038855223832393,-0.15643937760812962,-61.826494593117495,3.6155717784542634,tremor
92,10272129,0.687,-0.519349605396003,-0.105199575581795,-0.7988518166951217,-0.42932549741796294,-58.94157368197202,3.4828622618578695,tremor
93,10272155,0.713,-0.5255829140538145,-0.10566335005032122,-0.7938241615896644,-0.7071314164781966,-55.85358429247487,3.332578175947967,tremor
94,10272165,0.723,-0.5320932976263154,-0.10613361014157517,-0.7888207710274941,-0.9874316544379632,-52.57855801797257,3.164764931147213,tremor
95,10272175,0.733,-0.5388549310682532,-0.1066064512742606,-0.7838600950368919,-1.2677543846105586,-49.133398728690665,2.9795649225769063,tremor
96,10272180,0.738,-0.5458406085280492,-0.10707782343512959,-0.7789606940046414,-1.5456107251266218,-45.5357515230165,2.77722263656879,tremor
97,10272185,0.743,-0.55302194348575,-0.10754357596133546,-0.7741411161097851,-1.8185231702870697,-41.803881149944566,2.558089903193905,tremor
98,10272190,0.748,-0.5603695465912157,-0.10799950297268886,-0.7694197813420495,-2.084052284564703,-37.95656123267904,2.3226311077078137,tremor
99,10272195,0.753,-0.5678531798428762,-0.10844138790807004,-0.7648148747841407,-2.339820978148668,-34.01297425260662,2.071428099859294,tremor
100,10272200,0.758,-0.5754418886112125,-0.1088650457608342,-0.7603442509141797,-2.5835359262285067,-29.992621045521755,1.8051844863175248,tremor
101,10272209,0.767,-0.5831041155075897,-0.1092663618444271,-0.7560253496796928,-2.813005953997763,-25.91523758335524,1.5247289556892025,tremor
102,10272214,0.772,-0.5908078020317212,-0.10964132624252146,-0.7518751240795545,-3.0261574595312832,-21.80071610543901,1.231017266368173,tremor
103,10272219,0.777,-0.5985204851764392,-0.10998606348878211,-0.7479099780369918,-3.2210471611878093,-17.669027274644915,0.9251325285016794,tremor
104,10272223,0.781,-0.6062093966531772,-0.11029685745032566,-0.7441457125316683,-3.395872610310107,-13.540140020131993,0.6082834395834753,tremor
105,10272228,0.786,-0.6138415721039693,-0.1105701718178297,-0.74059747735664,-3.548980989675633,-9.433936108330975,0.28180019395734995,tremor
106,10272233,0.791,-0.6213839766279345,-0.11080266699086752,-0.7372797255375293,-3.6788767264177182,-5.370117215772019,-0.05287211935271126,tremor
107,10272238,0.796,-0.6288036512706493,-0.11099121444458543,-0.7342061674361233,-3.784228400209697,-1.3681032857601279,-0.39418269205975254,tremor
108,10272248,0.806,-0.6360678829328636,-0.11113290983047308,-0.7313897218738302,-3.8638753411873346,2.5530778356392663,-0.7404866598129682,tremor
109,10272280,0.838,-0.6431443975979434,-0.11122508606572895,-0.7288424622381818,-3.916834202187528,6.374908138975731,-1.0900590092341518,tremor
110,10272285,0.843,-0.6500015740482997,-0.11126532748906688,-0.7265755564240785,-3.9423056653838047,10.079501854569033,-1.441110335482393,tremor
111,10272290,0.848,-0.6566086726360895,-0.11125148582639513,-0.7245992005001951,-3.939681305595137,13.649728654556835,-1.79180394752096,tremor
112,10272309,0.867,-0.6629360715928216,-0.11118169827691057,-0.7229225470160354,-3.908550479346393,17.06933313803913,-2.1402737774526845,tremor
113,10272314,0.872,-0.6689555021866876,-0.11105440757836119,-0.7215536297092486,-3.8487069464169554,20.323046108765908,-2.4846425844690807,tremor
114,10272319,0.877,-0.6746402739711258,-0.11086838350706714,-0.7204992869295811,-3.760154780983101,23.396683802349838,-2.8230400312009345,tremor
115,10272324,0.882,-0.6799654824028323,-0.11062274495020906,-0.7197650863380449,-3.6431130213313376,26.27723229371466,-3.1536203181560563,tremor
116,10272339,0.897,-0.6849081930705762,-0.1103169814639356,-0.719355253393706,-3.4980184600212296,28.952915616356226,-3.474579166497579,tremor
117,10272343,0.901,-0.6894475993798717,-0.1099509730967028,-0.7192726058576715,-3.3255259965249673,31.413247486740858,-3.784170028306974,tremor
118,10272348,0.906,-0.6935651533966934,-0.10952500721002337,-0.7195184960867592,-3.126506063983582,33.649067791697696,-4.080719471202792,tremor
119,10272353,0.911,-0.6972446722286619,-0.1090397910761061,-0.7200927623212188,-2.902038801881071,35.65256601902286,-4.362641729751506,tremor
120,10272358,0.916,-0.7004724244251953,-0.1084964591884834,-0.7209936895510765,-2.6534048666724526,37.417294497204146,-4.6284524425035185,tremor
121,10272363,0.921,-0.7032372021653169,-0.10789657449767343,-0.7222179799302552,-2.382073024782144,38.938174634355164,-4.876781605297094,tremor
122,10272377,0.935,-0.7055303853925037,-0.10724212317622285,-0.7237607321523213,-2.0896849205301273,40.211499324627525,-5.10638577000891,tremor
123,10272405,0.963,-0.7073460035732603,-0.10653550300616497,-0.7256154287681984,-1.7780376207456288,41.23493432895595,-5.316159496881319,tremor
124,10272410,0.968,-0.7086807994707349,-0.10577950601871952,-0.7277739301904607,-1.4490646761494739,42.00752071796853,-5.505146016033048,tremor
125,10272414,0.972,-0.7095342973546352,-0.10497729650935347,-0.7302264741742169,-1.1048164821220747,42.52967939300476,-5.672546964738814,tremor
126,10272424,0.982,-0.7099088756082648,-0.10413238587963689,-0.7329616799415607,-0.7474406650614178,42.80321737781435,-5.817730957261577,tremor
127,10272429,0.987,-0.7098098410138343,-0.1032486058271514,-0.7359665567930685,-0.37916308844422175,42.83133420753142,-5.940240648022671,tremor
128,10272439,0.997,-0.7092454994076746,-0.10233008120721844,-0.7392265179047446,-0.0022698965366384554,42.618625571009794,-6.0397979021404655,tremor
129,10272444,1.002,-0.7082272152043378,-0.10138120350017335,-0.7427254008787317,0.38090918334964347,42.17108057319326,-6.116306708774532,tremor
130,10272449,1.007,-0.7067694507679138,-0.10040660534455421,-0.7464454973520519,0.7680162577230368,41.49606868557514,-6.169853557540838,tremor
131,10272453,1.011,-0.7048897759700592,-0.09941113613762947,-0.7503675944646214,1.1566795570614588,40.602312679246815,-6.200705122266179,tremor
132,10272468,1.026,-0.7026088386276317,-0.09839983832653333,-0.7544710311879075,1.5445268873436488,39.499844536249974,-6.2093032304253635,tremor
133,10272473,1.031,-0.6999502878541541,-0.0973779237493523,-0.7587337724007431,1.9291986149522211,38.19994238244845,-6.196257221510689,tremor
134,10272478,1.036,-0.6969406445779112,-0.09635074924340221,-0.7631325031820948,2.3083605920013173,36.715047716601475,-6.16233390626421,tremor
135,10272483,1.041,-0.6936091163762245,-0.09532379070908373,-0.7676427451071587,2.679717414749474,35.05866348355412,-6.108445429428888,tremor
136,10272488,1.046,-0.6899873570819294,-0.09430261488534065,-0.7722389954317027,3.041026340082011,33.24523475931991,-6.035635410322602,tremor
137,10272498,1.056,-0.6861091750206353,-0.09329284823863773,-0.7768948889855359,3.3901120627894104,31.2900149296959,-5.94506378770141,tremor
138,10272523,1.081,-0.6820101969064317,-0.09230014257855257,-0.7815833814287415,3.7248823836640073,29.208921213799965,-5.837990829166811,tremor
139,10272528,1.086,-0.6777274970343932,-0.09133013728602332,-0.7862769513234442,4.043344587066347,27.018384140153657,-5.715760782149086,tremor
140,10272543,1.101,-0.6732992031570492,-0.09038841837744097,-0.7909478173369492,4.34362212342043,24.73519599299883,-5.579785640938511,tremor
141,10272548,1.106,-0.6687640910925108,-0.08948047502266994,-0.7955681659519387,4.623971002193876,22.37636315861608,-5.431529473179093,tremor
142,10272553,1.111,-0.6641611796358644,-0.08861165455230337,-0.8001103844545483,4.882795193120592,19.958966661532482,-5.272493678155221,tremor
143,10272558,1.116,-0.6595293359138806,-0.08778711735925239,-0.8045472937919789,5.118660335550014,17.500034100291103,-5.104203435073679,tremor
144,10272562,1.12,-0.6549068992666393,-0.08701179334151501,-0.8088523761460067,5.330305161631352,15.016424887480845,-4.928195453950108,tremor
145,10272567,1.125,-0.6503313293944655,-0.08629034159096169,-0.8129999926914653,5.516650216592236,12.524729380199808,-4.746006986925536,tremor
146,10272572,1.13,-0.6458388821316804,-0.08562711489334426,-0.8169655878960358,5.676803670803781,10.041181312687126,-4.559165919990774,tremor
147,10272577,1.135,-0.6414643139787205,-0.08502613028667466,-0.8207258777638586,5.810064234405533,7.581582025313842,-4.369181669864435,tremor
148,10272591,1.149,-0.6372406145761051,-0.08449104646536905,-0.82425902053781,5.915921387034874,5.161234405798656,-4.1775365787231005,tremor
149,10272597,1.155,-0.6331987647673598,-0.0840251482643623,-0.8275447694683458,5.994053307712666,2.794884270719569,-3.9856775387166383,tremor
150,10272601,1.159,-0.6293675169339908,-0.08363133787354199,-0.8305646082377545,6.044323015385851,0.4966671358270626,-3.7950076783458777,tremor
151,10272616,1.174,-0.6257731940827518,-0.08331213189482385,-0.8333018703932719,6.066773289243373,-1.7199410714844705,-3.6068780768167645,tremor
152,10272620,1.178,-0.6224395048622405,-0.08306966293753046,-0.8357418445955375,6.061620919669001,-3.8421699096078488,-3.4225796074096597,tremor
153,10272652,1.21,-0.61938737325819,-0.08290568420739414,-0.837871867573464,6.029250754017814,-5.857996482881807,-3.243335119083465,tremor
154,10272657,1.215,-0.6166347839070575,-0.08282157550490926,-0.8396814063923078,5.970209867153627,-7.756182351392868,-3.070292230093847,tremor
155,10272662,1.22,-0.6141966462796586,-0.08281834920172831,-0.8411621310559801,5.885202028068517,-9.526303459247314,-2.9045170239623728,tremor
156,10272667,1.225,-0.612084682788979,-0.08289665506984895,-0.8423079777124731,5.775082472910934,-11.15877120092627,-2.7469889134047425,tremor
157,10272672,1.23,-0.6103073466499719,-0.08305678323804053,-0.8431152019768784,5.640852849326771,-12.644843150099259,-2.5985968827105657,tremor
158,10272677,1.235,-0.6088697748990091,-0.0832986649835105,-0.843582421262387,5.4836560773489404,-13.97662270024256,-2.460137241976202,tremor
159,10272682,1.24,-0.6077737805629205,-0.08362187148686909,-0.843710644586873,5.3047707823652335,-15.147047744862036,-2.33231293336786,tremor
160,10272686,1.244,-0.6070178859171963,-0.08402561105083772,-0.843503288122855,5.105604899967235,-16.149869437809674,-2.215734326431611,tremor
161,10272696,1.254,-0.6065973964492907,-0.08450872558367489,-0.8429661747756483,4.8876880370549145,-16.979622957852165,-2.110921333442565,tremor
162,10272701,1.259,-0.6065045128371667,-0.08506968736060973,-0.8421075162865989,4.652662205237924,-17.631593010707793,-2.018306573532091,tremor
163,10272706,1.264,-0.6067284761874354,-0.08570659718965924,-0.840937876734765,4.4022706257672635,-18.101777475144992,-1.9382392222001399,tremor
164,10272710,1.268,-0.6072557401152366,-0.08641718511441818,-0.8394701168155544,4.138344438512643,-18.38685305815818,-1.870989109125917,tremor
165,10272721,1.279,-0.6080701620970939,-0.08719881468328142,-0.8377193188690027,3.8627873191760815,-18.484146997492726,-1.8167505835005038,tremor
166,10272725,1.283,-0.6091532059434588,-0.08804849160902002,-0.8357026932683822,3.5775581959493814,-18.391618699489662,-1.7756456652380492,tremor
167,10272730,1.288,-0.610484147243537,-0.08896287735332922,-0.8334394674081356,3.2846524300657327,-18.107854710434204,-1.7477260521272764,tremor
168,10272735,1.293,-0.6120402742490835,-0.089938307826999,-0.8309507590878945,2.9860819574591924,-17.63207958677838,-1.7329736585783837,tremor
169,10272740,1.298,-0.6137970778939472,-0.0909708170332264,-0.828259436516838,2.683854964020577,-16.964184084100363,-1.731299509938663,tremor
170,10272745,1.303,-0.6157284264655318,-0.09205616513572824,-0.8253899674122218,2.3799556813760248,-16.10477070998632,-1.7425409861609609,tremor
171,10272776,1.334,-0.6178067227773119,-0.0931898701376582,-0.8223682597059251,2.0763248529209215,-15.055215202435623,-1.7664575772659001,tremor
172,10272781,1.339,-0.6200030443902693,-0.09436724214050674,-0.8192214961863832,1.774841346143703,-13.817741046254646,-1.8027254619906858,tremor
173,10272786,1.344,-0.6222872702163874,-0.09558341904008312,-0.8159779649918093,1.4773052898339745,-12.395502909314297,-1.850931334274968,tremor
174,10272796,1.354,-0.6246281992795797,-0.09683340252986297,-0.8126668872663049,1.1854230008665465,-10.792674069602482,-1.9105659674748579,tremor
175,10272805,1.363,-0.6269936690547016,-0.09811209342462555,-0.8093182425659154,0.9007938405400308,-9.01453262208863,-1.9810180227783132,tremor
176,10272810,1.368,-0.6293506813697393,-0.09941432556732507,-0.805962591866253,0.6248990131568624,-7.06754145063151,-2.0615685890936724,tremor
177,10272825,1.383,-0.6316655433067779,-0.1007348978949526,-0.8026308974041222,0.35909219975022555,-4.959417487940332,-2.1513869013171205,tremor
178,10272830,1.388,-0.6339040290395914,-0.1020686045624094,-0.7993543381975379,0.1045918174783278,-2.699186552720767,-2.2495276271781965,tremor
179,10272840,1.398,-0.6360315663907534,-0.10341026330938834,-0.7961641200041792,-0.13752537893727076,-0.2972209770617165,-2.354930036186484,tremor
180,10272844,1.402,-0.638013449434516,-0.10475474246566163,-0.7930912787134099,-0.3663296703781494,2.234741741935575,-2.46641926478752,tremor
181,10272854,1.412,-0.6398150760577492,-0.10609698709885143,-0.7901664766846999,-0.5810430188892906,4.88359998284871,-2.582709775333396,tremor
182,10272864,1.422,-0.6414022072829778,-0.10743204480519092,-0.7874197922703742,-0.7810432101381943,7.634908451631475,-2.7024109879197096,tremor
183,10272869,1.427,-0.6427412435097749,-0.1087550915338256,-0.784880503596294,-0.965867596320413,10.472916913682358,-2.8240349620092866,tremor
184,10272895,1.453,-0.6437995117107512,-0.11006145763731413,-0.7825768685171792,-1.1352163873719485,13.380625489008006,-2.946005933482361,tremor
185,10272900,1.458,-0.644545557053569,-0.1113466540820872,-0.7805359034119705,-1.288955267764238,16.339854578498965,-3.0666714796503887,tremor
186,10272915,1.473,-0.6449494324453285,-0.11260639846726583,-0.7787831640388612,-1.4271169625412674,19.33132770502521,-3.184315090467349,tremor
187,10272920,1.478,-0.6449829801517861,-0.11383664023002109,-0.77734253193896,-1.5499012798554848,22.33476615809622,-3.2971699616704533,tremor
188,10272925,1.483,-0.6446201009062974,-0.11503358420343789,-0.7762360098096615,-1.6576731476199915,25.32899516437467,-3.403433878682965,tremor
189,10272930,1.488,-0.6438370076240646,-0.1161937115727728,-0.7754835288797414,-1.750958241070389,28.292062133882734,-3.501285108179099,tremor
190,10272935,1.493,-0.6426124626882008,-0.11731379726566775,-0.7751027706890029,-1.8304359435641533,31.201368151530033,-3.5888992437188905,tremor
191,10272939,1.497,-0.6409279994744917,-0.11839092291096606,-0.7751090049167145,-1.896929563322768,34.033814200587905,-3.6644669625069004,tremor
192,10272944,1.502,-0.6387681300985545,-0.1194224846956502,-0.7755149441225543,-1.9513939156518152,36.765963608545434,-3.726212648735243,tremor
193,10272949,1.507,-0.636120542149372,-0.12040619571974448,-0.776330615552338,-1.9949005520080527,39.37422191315255,-3.7724138292093756,tremor
194,10272959,1.517,-0.632976287329217,-0.12134008277132145,-0.7775632495930874,-2.02862105823519,41.83503478107066,-3.8014213473453435,tremor
195,10272964,1.522,-0.629329964419693,-0.12222247779040077,-0.7792171841006964,-2.053808942281906,44.125103808825116,-3.81168016660746,tremor
196,10272969,1.527,-0.6251798978558613,-0.12305200462726319,-0.7812937837219387,-2.071780678130161,46.22161904069779,-3.8017506378074386,tremor
197,10272979,1.537,-0.6205283114842581,-0.12382756198775105,-0.7837913735279538,-2.083896463245864,48.10250590256542,-3.7703299836010236,tremor
198,10272994,1.552,-0.6153814949317843,-0.1245483036567829,-0.7867051867722347,-2.0915411843966734,49.74668304282101,-3.7162736528088485,tremor
199,10273020,1.578,-0.6097499576187595,-0.12521361717162965,-0.7900273273353713,-2.0961059835804448,51.134326396193295,-3.6386160916259755,tremor
200,10273025,1.583,-0.6036485631041363,-0.1258231020646586,-0.7937467483135904,-2.098970694145359,52.24713380229712,-3.5365903923860507,tremor
201,10273030,1.588,-0.5970966345436421,-0.1263765486245076,-0.7978492490821466,-2.101487305529997,53.068583910874615,-3.4096462402328656,tremor
202,10273035,1.593,-0.5901180209756144,-0.12687391788180244,-0.802317493824946,-2.1049645388016027,53.58418302435956,-3.257465599426815,tremor
203,10273040,1.598,-0.5827411141792652,-0.1273153232756525,-0.8071310548177841,-2.110653581892618,53.781693937780474,-3.0799756561015386,tremor
204,10273044,1.602,-0.5749988069723059,-0.12770101425263503,-0.8122664836359595,-2.119735028805808,53.65134155807196,-2.877358636895554,tremor
205,10273049,1.607,-0.566928385811118,-0.12803136191212372,-0.8176974129787274,-2.1333070689154576,53.18599092031941,-2.6500582274069466,tremor
206,10273054,1.612,-0.5585713531269793,-0.12830684673570247,-0.8233946910608941,-2.152374966563178,52.38129404835768,-2.3987824078399984,tremor
207,10273059,1.617,-0.5499731776916179,-0.12852804840634954,-0.8293265496145252,-2.177841853834644,51.23580289212619,-2.124502603502015,tremor
208,10273074,1.632,-0.5411829742143307,-0.12869563771411563,-0.8354588055545029,-2.2105008333504657,49.751046312339106,-1.828449118117397,tremor
209,10273079,1.637,-0.5322531161261884,-0.12881037053965855,-0.8417550953601198,-2.2510283597292795,47.93156978504056,-1.5121028831930738,tremor
210,10273083,1.641,-0.523238787915744,-0.12887308389017932,-0.8481771402734939,-2.299978848230497,45.78493717779403,-1.1771836218972052,tremor
211,10273088,1.646,-0.5141974852742885,-0.12888469392612348,-0.8546850395708131,-2.3577804576816614,43.3216946146394,-0.8256345948120166,tremor
212,10273098,1.656,-0.5051884725783119,-0.12884619586296872,-0.8612375884643727,-2.4247320178255096,40.55529710081967,-0.45960416878973326,tremor
213,10273108,1.666,-0.49627220788354487,-0.1287586655713199,-0.867792616654396,-2.501001115008372,37.50199921660224,-0.08142452609173013,tremor
214,10273118,1.676,-0.48750974573280365,-0.12862326264686483,-0.8743073431593029,-2.586623400643705,34.180711800150014,0.30641210046210854,tremor
215,10273143,1.701,-0.4789621278422181,-0.12844123469458726,-0.8807387427959759,-2.6815032223705417,30.61282710028031,0.7012792340251405,tremor
216,10273148,1.706,-0.47068977128026296,-0.12821392257268982,-0.8870439195494726,-2.785415678861052,26.822015362020394,1.1004435550430858,tremor
217,10273153,1.711,-0.46275186321217426,-0.1279427663557717,-0.8931804820624456,-2.8980101644904086,22.83399618160843,1.5010934632795914,tremor
218,10273163,1.721,-0.45520577071631446,-0.1276293117754246,-0.8991069165838301,-3.0188154206008573,18.676288213007545,1.9003683903660735,tremor
219,10273168,1.726,-0.4481064736001492,-0.1272752168578427,-0.9047829529298415,-3.1472460709399823,14.37794092484069,2.2953884740311885,tremor
220,10273172,1.73,-0.44150602752721807,-0.12688225840520512,-0.9101699193023275,-3.2826105973392106,9.969252111448514,2.6832842219348367,tremor
221,10273177,1.735,-0.43545306407890666,-0.1264523378865432,-0.9152310821494019,-3.4241206965322655,5.481474772093766,3.061225810166811,tremor
222,10273196,1.754,-0.42999233358935035,-0.1259874862469347,-0.91993196761425,-3.5709019354920017,0.9465167998986159,3.4264516819163986,tremor
223,10273211,1.769,-0.4251642956962295,-0.12548986713375057,-0.9242406614821398,-3.7220055842046023,-3.6033633183537166,3.7762961342514005,tremor
224,10273216,1.774,-0.42100476155033106,-0.1249617780810584,-0.9281280848934227,-3.8764214553061342,-8.135861871056063,4.108215603465008,tremor
225,10273221,1.779,-0.4175445905503184,-0.12440564927797576,-0.9315682434366653,-4.03309153155658,-12.618933717078633,4.419813382297975,tremor
226,10273225,1.783,-0.41480944336749864,-0.12382403965449594,-0.934538447565801,-4.190924128958211,-17.021092094778226,4.708862526838659,tremor
227,10273230,1.788,-0.4128195919644938,-0.12321963013074017,-0.9370195025904887,-4.348808333548798,-21.31170218200804,4.973326737675104,tremor
228,10273235,1.793,-0.41158978635500226,-0.12259521398267371,-0.9389958667611019,-4.505628461464799,-25.46126621255564,5.2113790289903115,tremor
229,10273240,1.798,-0.41112917704667096,-0.12195368437783877,-0.9404557762031536,-4.660278316059357,-29.4416979570461,5.421418030706816,tremor
230,10273266,1.824,-0.41144129148207154,-0.12129801923190518,-0.9413913356499882,-4.811675043194616,-33.2265843329153,5.60208180147397,tremor
231,10273271,1.829,-0.4125240623490236,-0.12063126363333404,-0.9417985740841495,-4.958772408634824,-36.79143183529839,5.752259061899852,tremor
232,10273275,1.833,-0.41436990535611734,-0.11995651017618542,-0.9416774645447462,-5.100573333748563,-40.11389539416422,5.871097785924956,tremor
233,10273280,1.838,-0.4169658439315473,-0.11927687761979136,-0.9410319075189708,-5.236141524563456,-43.17398717683433,5.958011113196284,tremor
234,10273285,1.843,-0.4202936782638044,-0.1185954883451851,-0.9398696775405896,-5.364612018269717,-45.95426277894104,6.012680566817334,tremor
235,10273290,1.848,-0.42433019612188194,-0.11791544509259773,-0.9382023328846097,-5.4852004612527,-48.439982187347525,6.035056578086332,tremor
236,10273295,1.853,-0.4290474229384488,-0.11723980744111845,-0.9360450885763961,-5.597210936016504,-50.61924286468435,6.0253563317293395,tremor
237,10273299,1.857,-0.4344129086904192,-0.11657156843719435,-0.9334166533149385,-5.7000421787976485,-52.48308231339644,5.984058952098854,tremor
238,10273304,1.862,-0.44039004915435387,-0.1159136317040082,-0.9303390313300065,-5.7931920769680305,-54.0255475501702,5.9118980551641815,tremor
239,10273314,1.872,-0.44693843913975506,-0.1152687892822248,-0.9268372906389029,-5.876260402622212,-55.24372908492969,5.80985169617657,tremor
240,10273318,1.876,-0.45401425530062106,-0.11463970037804459,-0.9229392996304695,-5.948949819658926,-56.13775728263149,5.67912975219079,tremor
241,10273323,1.881,-0.461570666077252,-0.1140288711400203,-0.9186754343753606,-6.011065286170081,-56.71075943115771,5.521158796119181,tremor
242,10273328,1.886,-0.4695582661998439,-0.11343863556210947,-0.9140782595394489,-6.062512049308191,-56.96877648763898,5.337564548840256,tremor
243,10273333,1.891,-0.477925532958762,-0.11287113762190663,-0.9091821862623468,-6.1032924841073415,-56.92063934878481,5.1301520404994845,tremor
244,10273343,1.901,-0.48661930107623147,-0.1123283148067105,-0.9040231108587167,-6.133502053439159,-56.57780556936171,4.900883670417052,tremor
245,10273348,1.906,-0.4955852524667442,-0.11181188324407386,-0.8986380387092107,-6.153324660357707,-55.95415869272342,4.651855423465661,tremor
246,10273353,1.911,-0.5047684164279134,-0.11132332471884046,-0.8930646982288369,-6.163027625862931,-55.065773711125615,4.385271576304481,tremor
247,10273363,1.921,-0.5141136748609377,-0.11086387590319935,-0.8873411503235289,-6.1629564556658485,-53.93065359259152,4.10341830736125,tremor
248,10273419,1.977,-0.5235662660170703,-0.1104345201302161,-0.8815053992477923,-6.153529464041465,-52.56844321855221,3.808636705451244,tremor
249,10273423,1.981,-0.5330722791249899,-0.1100359819946246,-0.8755950112049312,-6.135232214929732,-51.000128304711545,3.5032957397317523,tremor
250,10273433,1.991,-0.5425791313596234,-0.10966872497378298,-0.8696467472804915,-6.108611644809503,-49.24772761180366,3.189765781660091,tremor
251,10273443,2.001,-0.5520360183970486,-0.10933295214948194,-0.863696217220796,-6.07426967814921,-47.33398663905874,2.8703932304775654,tremor
252,10273447,2.005,-0.5613943306101258,-0.10902861000600149,-0.8577775600439304,-6.0328561541844525,-45.282079929896526,2.5474766860062426,tremor
253,10273457,2.015,-0.5706080287900926,-0.10875539520054056,-0.8519231564898632,-5.985060954360414,-43.115327408761935,2.223244970222484,tremor
254,10273462,2.02,-0.5796339757499247,-0.108512764155078,-0.8461633769810308,-5.931605339417613,-40.85692830395947,1.8998371671206364,tremor
255,10273486,2.044,-0.5884322227297105,-0.10829994530463527,-0.8405263672368438,-5.87323265077598,-38.529714579999215,1.579284755089182,tremor
256,10273517,2.075,-0.5969662516628812,-0.10811595385581615,-0.835037872152729,-5.810698668762057,-36.15592460908744,1.2634958515368415,tremor
257,10273521,2.079,-0.6052031756675839,-0.10795960895296591,-0.8297210972234534,-5.744762008377562,-33.75699714527693,0.9542415706296512,tremor
258,10273526,2.084,-0.613113900392047,-0.10782955318845186,-0.8245966058591327,-5.676174938859054,-31.353385508667074,0.6531445023035876,tremor
259,10273536,2.094,-0.6206732481628174,-0.1077242743834738,-0.8196822505201854,-5.605674935252458,-28.964392078215816,0.3616693377763665,tremor
260,10273545,2.103,-0.6278600456439911,-0.10764212947340253,-0.8149931356396992,-5.533977142977033,-26.608023474637736,0.08111567393532115,tremor
261,10273550,2.108,-0.6346571744035615,-0.10758137016336002,-0.8105416106298129,-5.461767806024948,-24.300866975281682,-0.18738698612844584,tremor
262,10273555,2.113,-0.6410515828042364,-0.10754016982078086,-0.8063372916608131,-5.389698608311817,-22.057988647632424,-0.4428820567701235,tremor
263,10273560,2.118,-0.6470342572317053,-0.10751665089990793,-0.8023871111755185,-5.318381817167654,-19.892853425941084,-0.6845865898786001,tremor
264,10273570,2.128,-0.6526001509215393,-0.10750891209234309,-0.7986953941554451,-5.248386094824572,-17.817266951501527,-0.9118900185357757,tremor
265,10273574,2.132,-0.6577480694869815,-0.10751505438628473,-0.7952639599699441,-5.180232849222088,-15.841338540027513,-1.1243510982540226,tremor
266,10273579,2.137,-0.6624805135281008,-0.10753320529148776,-0.7920922482551527,-5.114393022086126,-13.973464216780542,-1.3216932503267818,tremor
267,10273594,2.152,-0.6668034802109284,-0.10756154063092122,-0.78917746675789,-5.051284255104063,-12.220328442350276,-1.5037985212543832,tremor
268,10273599,2.157,-0.6707262272150013,-0.10759830349112337,-0.7865147585262806,-4.99126842848759,-10.586922991613415,-1.6707003596524042,tremor
269,10273604,2.162,-0.6742610037297296,-0.1076418201364208,-0.7840973853274319,-4.934649622334902,-9.076581485523569,-1.8225753798717936,tremor
270,10273608,2.166,-0.6774227540295266,-0.10769051290307648,-0.7819169238174167,-4.881672601069087,-7.691028338077697,-1.9597342333936538,tremor
271,10273635,2.193,-0.680228799437647,-0.10774291027781113,-0.7799634708574051,-4.8325219562724095,-6.4304413649826975,-2.082611648605481,tremor
272,10273654,2.212,-0.6826985041746259,-0.10779765451588802,-0.7782258544989038,-4.78732205429935,-5.293527940673721,-2.191755632325725,tremor
273,10273663,2.221,-0.6848529297908914,-0.10785350725258522,-0.7766918475321571,-4.746137912209545,-4.277615237452741,-2.287815764576829,tremor
274,10273673,2.231,-0.6867144818509073,-0.1079093535911144,-0.7753483810254733,-4.708977065405408,-3.378755506242529,-2.3715304841071654,tremor
275,10273683,2.241,-0.688306551607309,-0.10796420509751764,-0.7741817558482132,-4.675792407464921,-2.591847332569935,-2.4437132816341576,tremor
276,10273692,2.25,-0.6896531549105093,-0.10801720200575417,-0.7731778506197062,-4.646485907642084,-1.9107732323074718,-2.5052378001422366,tremor
277,10273697,2.255,-0.6907785707499605,-0.10806761476429365,-0.7723223247518708,-4.620913070718318,-1.3285529571847436,-2.557021967417412,tremor
278,10273702,2.26,-0.6917069826386986,-0.10811484487979779,-0.7716008152192989,-4.598888002395153,-0.8375107056574337,-2.6000114173788673,tremor
279,10273712,2.27,-0.6924621273848305,-0.10815842486759077,-0.7709991254324325,-4.5801889679127825,-0.42945331181524704,-2.6351625604171454,tremor
280,10273716,2.274,-0.693066957387469,-0.10819801702005605,-0.7705034041878066,-4.564564363662163,-0.09585555219417571,-2.6634257253377664,tremor
