sample,t_ms,t_s,ax,ay,az,gx,gy,gz,tremor
0,10240264,0.0,-0.6177602728667391,-0.09282046605880988,-0.8530331873193506,2.2894371353688006,34.382845245862114,-7.3398592721453015,tremor
1,10240269,0.005,-0.6169677551340372,-0.09328940555484823,-0.8530953854049813,2.038367948155564,35.13187719293879,-6.8715356261876614,tremor
2,10240274,0.01,-0.61586231371527,-0.09391766713661745,-0.8532101188594046,1.7846242931831795,35.82958244419207,-6.40852126200031,tremor
3,10240279,0.015,-0.6144069799682172,-0.0947063504901601,-0.8533996189696765,1.5292585715280986,36.46174328657241,-5.9518168572552925,tremor
4,10240284,0.02,-0.6126160792271228,-0.09562394909083398,-0.8536818497360291,1.2733673042929308,37.013570969932765,-5.5023551733050775,tremor
5,10240289,0.025,-0.6105308468308289,-0.09662429255828621,-0.8540688791423843,1.0180857056168275,37.46980055958723,-5.060993947441582,tremor
6,10240294,0.03,-0.6081964885036196,-0.09766146649115817,-0.8545678542694972,0.7645818864143974,37.81479670445879,-4.628509097518703,tremor
7,10240304,0.04,-0.6056499572272922,-0.09869695634374827,-0.8551826409496867,0.5140507114088039,38.03267002283099,-4.205588276740211,tremor
8,10240308,0.044,-0.602916234580144,-0.09970125146074707,-0.8559151662336845,0.2677073358511112,38.107403673008626,-3.792824831592674,tremor
9,10240323,0.059,-0.6000090459218212,-0.10065284190208938,-0.8567662432429384,0.02678045312680576,38.02298953824478,-3.3907122347401977,tremor
10,10240348,0.084,-0.5969331471459594,-0.10153647541259012,-0.8577359785822768,-0.2074947115644661,37.763573318399644,-2.9996390873372354,tremor
11,10240353,0.089,-0.5936867601026515,-0.10234151914718823,-0.8588239206610512,-0.43388362506860534,37.31360769018377,-2.6198848102841463,tremor
12,10240368,0.104,-0.5902636363381571,-0.1030606845472038,-0.8600290716789717,-0.651159854087178,36.65801257853802,-2.251616168189905,tremor
13,10240373,0.109,-0.5866546562447358,-0.1036891196163065,-0.8613498387290445,-0.8581126301180696,35.782341474360074,-1.8948847891367326,tremor
14,10240377,0.113,-0.5828490285032029,-0.10422379244627794,-0.8627839647128666,-1.053554554015729,34.67295263038289,-1.5496258549159394,tremor
15,10240382,0.118,-0.5788351900955985,-0.10466308193631173,-0.8643284589033284,-1.2363294320438052,33.31718385362086,-1.215658139562929,tremor
16,10240387,0.123,-0.5746014972269889,-0.10500650704175574,-0.8659795357970251,-1.4053202422418807,31.703529479795016,-0.8926855694045469,tremor
17,10240392,0.128,-0.5701367759825885,-0.10525454470001867,-0.8677325653710949,-1.559457233074795,29.82181796408352,-0.5803004660441259,tremor
18,10240396,0.132,-0.5654307809536065,-0.10540850237360189,-0.8695820353489994,-1.697726156077619,27.663388362501742,-0.27798861450519147,tremor
19,10240401,0.137,-0.5604745938298985,-0.1054704227794797,-0.8715215250679593,-1.819176632245295,25.221263817864262,0.014863729015555171,tremor
20,10240411,0.147,-0.555260982169206,-0.10544300642173356,-0.8735436902227034,-1.9229306498665606,22.490320007733107,0.29896081278058134,tremor
21,10240415,0.151,-0.5497847303333876,-0.10532954293631946,-0.8756402577334007,-2.0081911896194264,19.467446358238895,0.5750863182675929,tremor
22,10240420,0.156,-0.544042948964692,-0.10513384581183222,-0.8778020300600414,-2.0742509696984652,16.15169767291127,0.8440902657303248,tremor
23,10240430,0.166,-0.5380353655671944,-0.10486018738184692,-0.8800188983786028,-2.120501297594834,12.544433665467237,1.1068739793379339,tremor
24,10240435,0.171,-0.5317645961773149,-0.10451323251983108,-0.8822798641161327,-2.1464410043906543,8.649443720135409,1.3643732588298787,tremor
25,10240440,0.176,-0.5252363963459072,-0.10409797049162392,-0.8845730684071158,-2.151685421020636,4.473054038464187,1.61753997535405,tremor
26,10240444,0.18,-0.5184598884360996,-0.10361964511770552,-0.8868858290880883,-2.135975332880779,0.024214176146183743,1.8673223871380489,tremor
27,10240469,0.205,-0.511447761381318,-0.10308368388412144,-0.8892046849015158,-2.099185818373856,-4.685440163890257,2.114644553664709,tremor
28,10240475,0.211,-0.5042164384284183,-0.10249562698595371,-0.8915154466437508,-2.0413348368834248,-9.641551318238411,2.3603853091947697,tremor
29,10240484,0.22,-0.49678620794522205,-0.10186105752488833,-0.8938032550737861,-1.9625913791567027,-14.827034093037145,2.605357328244769,tremor
30,10240489,0.225,-0.4891813120783648,-0.10118553422209282,-0.8960526455039491,-1.8632829256276011,-20.22210358722487,2.8502868652782416,tremor
31,10240494,0.23,-0.48142998792147157,-0.10047452804696702,-0.8982476191177545,-1.7439018799028503,-25.804339240215114,3.0957947685378944,tremor
32,10240504,0.24,-0.47356445593563806,-0.09973336410128669,-0.9003717211914842,-1.6051105688847795,-31.548787380266727,3.3423793495732776,tremor
33,10240508,0.244,-0.4656208507047412,-0.0989671699458535,-0.9024081265148427,-1.4477443456241186,-37.42810376922013,3.5904016377438626,tremor
34,10240513,0.249,-0.4576390897537572,-0.09818083132993428,-0.9043397323888342,-1.2728123118419428,-43.41273667264869,3.8400734686190465,tremor
35,10240518,0.254,-0.4496626771385031,-0.09737895600392313,-0.9061492596017455,-1.0814952045989246,-49.471149889124355,4.091448753965712,tremor
36,10240523,0.259,-0.4417384398292879,-0.09656584598652698,-0.9078193617253565,-0.8751400674973981,-55.570084013855464,4.344418166747625,tremor
37,10240527,0.263,-0.4339161965169367,-0.09574547834381979,-0.9093327429197692,-0.6552514424629639,-61.67485305294525,4.59870735534208,tremor
38,10240532,0.268,-0.42624836028475693,-0.09492149424151411,-0.9106722841845422,-0.4234789592806261,-67.74967239576408,4.853878684260787,tremor
39,10240537,0.273,-0.418789478504264,-0.09409719577228468,-0.9118211776549231,-0.18160135290313653,-73.75801313330906,5.109336389129429,tremor
40,10240547,0.283,-0.4115957152054549,-0.09327554984985745,-0.9127630681316959,0.06849290821385168,-79.66297681280275,5.36433493378331,tremor
41,10240551,0.287,-0.404724282922462,-0.09245919830833899,-0.9134822005756762,0.32482805533899256,-85.42768397813633,5.617990267185736,tremor
42,10240556,0.292,-0.39823283250118346,-0.09165047325168478,-0.9139635718260389,0.5853660590015982,-91.01566930402421,5.869293597797196,tremor
43,10240561,0.297,-0.39217881046354686,-0.09085141666266636,-0.914193084356868,0.8480337116445333,-96.39127582680834,6.117127235905981,tremor
44,10240591,0.327,-0.38661879417316136,-0.09006380329693423,-0.9141576995138068,1.1107511014498246,-101.52004071817744,6.360282005659134,tremor
45,10240596,0.332,-0.38160781522262277,-0.08928916594496604,-0.9138455874179852,1.3714607536764585,-106.36906523182921,6.597475704575286,tremor
46,10240601,0.337,-0.3771986812218185,-0.08852882222864832,-0.9132462706360155,1.6281566638908884,-110.90736189699537,6.827372096171828,tremor
47,10240610,0.346,-0.37344130562489014,-0.08778390219497778,-0.9123507588409256,1.8789124251956748,-115.10617279278462,7.048599966275924,tremor
48,10240615,0.351,-0.3703820545267824,-0.08705537606430476,-0.9111516720522218,2.121907669499609,-118.93925383180027,7.259771853734483,tremor
49,10240620,0.356,-0.36806311860587737,-0.08634408157641182,-0.9096433506133526,2.3554521050940136,-122.38312133031636,7.459502170228624,tremor
50,10240624,0.36,-0.3665219176676233,-0.08565075044980837,-0.9078219507607131,2.578006537777114,-125.4172586063274,7.646424535178598,tremor
51,10240629,0.365,-0.36579054460400356,-0.08497603352489584,-0.905685525360471,2.7882004068602235,-128.02428180221295,7.819208253262651,tremor
52,10240634,0.37,-0.3658952550562022,-0.0843205241979952,-0.903234090049089,2.984845545153857,-130.1900654849532,7.976573938393233,tremor
53,10240685,0.421,-0.3668560086889467,-0.08368477977004654,-0.9004696755375249,3.1669460743662228,-131.90382973927734,8.117308327539721,tremor
54,10240728,0.464,-0.36868606784494873,-0.08306934033502132,-0.8973963671500651,3.333704553488971,-133.15819127820444,8.240278323306887,tremor
55,10240733,0.469,-0.37139165961521386,-0.08247474483327,-0.8940203326633304,3.4845246650537622,-133.94918131882798,8.344444251911117,tremor
56,10240742,0.478,-0.3749717081355112,-0.08190154392187501,-0.8903498390993765,3.619010804427109,-134.27623248612744,8.428872232207018,tremor
57,10240747,0.483,-0.379417644965068,-0.08135030939720594,-0.8863952583373731,3.7369649221806904,-134.14213605262924,8.492745455268569,tremor
58,10240751,0.487,-0.3847133061347625,-0.08082164005536303,-0.8821690604366914,3.8383809050237896,-133.55296991616072,8.5353741161557,tremor
59,10240756,0.492,-0.3908349242983821,-0.08031616407708143,-0.8776857926806543,3.9234367219408885,-132.51799725387693,8.556203740353071,tremor
60,10240760,0.496,-0.39775122316082684,-0.07983453824024846,-0.8729620417631845,3.9924845293282973,-131.0495358167227,8.55482169582481,tremor
61,10240765,0.501,-0.4054236191077269,-0.07937744446019314,-0.868016376345242,4.046038912854634,-129.1627982061259,8.530961755392392,tremor
62,10240775,0.511,-0.4138065319848953,-0.07894558430907656,-0.8628692674147976,4.084763431533316,-126.8757040783008,8.484506656722655,tremor
63,10240780,0.516,-0.4228478035561675,-0.07853967225477206,-0.8575429844593382,4.1094556161821645,-124.20866597995324,8.41548868920948,tremor
64,10240784,0.52,-0.4324892185726348,-0.07816042837859867,-0.8520614663453943,4.121030563153509,-121.18435138341721,8.324088412642354,tremor
65,10240799,0.535,-0.4426671198638622,-0.07780857127980526,-0.846450166916801,4.1205032634132355,-117.8274244084419,8.210631678041985,tremor
66,10240804,0.54,-0.45331310563473054,-0.07748481176069133,-0.8407358765717572,4.108969826833013,-114.16427162590924,8.075585174558801,tremor
67,10240813,0.549,-0.4643547944137105,-0.07718984772561674,-0.8349465223355366,4.087587809945784,-110.22271714270944,7.919550767320343,tremor
68,10240818,0.554,-0.4757166410176632,-0.07692436054017729,-0.8291109500750785,4.057555934812397,-106.0317327521581,7.743258918586752,tremor
69,10240844,0.58,-0.4873207856018884,-0.07668901290164969,-0.8232586933777728,4.02009358926758,-101.62114919849073,7.547561495356504,tremor
70,10240849,0.585,-0.4990879174173106,-0.07648444807993125,-0.8174197341482933,3.976420603026547,-97.02137448748618,7.333424255267562,tremor
71,10240854,0.59,-0.5109381353149747,-0.07631129020603208,-0.8116242601148811,3.9277378670447733,-92.26312465796931,7.101919264166485,tremor
72,10240863,0.599,-0.5227917883104618,-0.0761701451197337,-0.8059024241685947,3.8752093732223574,-87.37717152843288,6.854217432865423,tremor
73,10240868,0.604,-0.5345702815858172,-0.07606160115099328,-0.8002841098173122,3.8199461841991638,-82.39411073131014,6.591581275606499,tremor
74,10240878,0.614,-0.5461968360038321,-0.07598622911722268,-0.7947987061027263,3.7629927100491147,-77.34415199704742,6.315357903162444,tremor
75,10240882,0.618,-0.5575971922822559,-0.07594458078829129,-0.789474894224465,3.705315497974209,-72.25693232439241,6.026972183043142,tremor
76,10240887,0.623,-0.5687002541272574,-0.07593718511718438,-0.7843404469742701,3.647794565050822,-67.16135150801072,5.72791993577134,tremor
77,10240892,0.628,-0.5794386675794431,-0.07596454166226436,-0.7794220410273792,3.5912171535677433,-62.085428566843134,5.419760992575502,tremor
78,10240906,0.642,-0.589749336361629,-0.07602711083053787,-0.7747450812669566,3.536273685669218,-57.05617695049698,5.104111917284079,tremor
79,10240911,0.647,-0.5995738749830802,-0.0761253008305084,-0.7703335357030342,3.4835556452093552,-52.09949598471016,4.7826381942679,tremor
80,10240925,0.661,-0.6088590026519157,-0.07625945150519325,-0.7662097792397512,3.4335551120207333,-47.24007582835138,4.457045704755964,tremor
81,10240930,0.666,-0.6175568816207225,-0.07642981547815891,-0.7623944445696179,3.3866657018297035,-42.50131323045234,4.129071353137372,tremor
82,10240940,0.676,-0.6256254034550918,-0.07663653724660885,-0.7589062788181019,3.343184705056684,-37.90523555544199,3.8004727546127546,tremor
83,10240966,0.702,-0.6330284259953294,-0.07687963097027727,-0.7557620051612715,3.3033162513262146,-33.47243082089748,3.4730169421663133,tremor
84,10240971,0.707,-0.6397359627115986,-0.07715895773366353,-0.7529761893855804,3.267175342503176,-29.221981802245132,3.148468084998674,tremor
85,10240975,0.711,-0.6457243250298758,-0.0774742030275157,-0.7505611121258953,3.234792595969357,-25.171402588733425,2.8285742379108885,tremor
86,10240984,0.72,-0.6509762173177445,-0.07782485514154965,-0.7485266481917735,3.2061195307985724,-21.33657636545612,2.515053179156458,tremor
87,10240989,0.725,-0.6554807837469304,-0.07821018511541886,-0.7468801549041223,3.1810342231892954,-17.73169370465899,2.209577456390137,tremor
88,10241004,0.74,-0.6592336062048316,-0.07862922886900693,-0.745626371708769,3.159347161136233,-14.369191306615924,1.913758844708141,tremor
89,10241009,0.745,-0.6622366526772263,-0.07908077211578646,-0.7447673335508502,3.1408071444650703,-11.259691922795003,1.6291325138084953,tremor
90,10241025,0.761,-0.6644981758845953,-0.07956333863483074,-0.7443023006333401,3.1251071048347936,-8.411947063275791,1.3571412863249483,tremor
91,10241029,0.765,-0.6660325622772957,-0.08007518242109826,-0.744227707270429,3.111889759653626,-5.832784930743945,1.099120430881661,tremor
92,10241034,0.77,-0.6668601317233489,-0.080614284142046,-0.7445371325719001,3.100753060467098,-3.5270666923695613,0.8562834592173618,tremor
93,10241038,0.774,-0.6670068884071512,-0.08117835220466617,-0.7452212956174653,3.0912554438703137,-1.497654559267121,0.6297093808982884,tremor
94,10241059,0.795,-0.6665042237257991,-0.08176482859174845,-0.7462680775484353,3.082920934333897,0.2546048896548794,0.4203318124675236,tremor
95,10241096,0.832,-0.6653885724753892,-0.08237089947292253,-0.7476625725767058,3.075244177273882,1.7308791298744348,0.22893024504594325,tremor
96,10241106,0.842,-0.66370102449326,-0.08299351044671936,-0.7493871692686982,3.0676954895152377,2.93432762087355,0.056123653199866556,tremor
97,10241116,0.852,-0.6614868951943661,-0.0836293861339086,-0.7514216626186146,3.059725994510882,3.8700580099626447,-0.09763350520915666,tremor
98,10241120,0.856,-0.6587952599390681,-0.08427505372741537,-0.7537433964428086,3.0507728607735185,4.54506041527801,-0.23205296546975196,tremor
99,10241130,0.866,-0.6556784585201101,-0.08492687001839054,-0.7563274346088542,3.0402645974714866,4.96812042393709,-0.34701214950155285,tremor
100,10241155,0.891,-0.6521915768481703,-0.08558105137212957,-0.7591467586692524,3.0276263009175346,5.149711921000704,-0.4425516372072627,tremor
101,10241174,0.91,-0.6483919129071234,-0.08623370613200419,-0.762172488687858,3.012284704047091,5.101871000771308,-0.5188707531208053,tremor
102,10241178,0.914,-0.6443384332598393,-0.08688086898627478,-0.7653741234933464,2.9936728659575347,4.838052106189864,-0.5763213588996131,tremor
103,10241183,0.919,-0.6400912250633672,-0.0875185369253631,-0.7687197963207468,2.971234358569473,4.372967336173293,-0.6153998948468286,tremor
104,10241188,0.924,-0.6357109470804355,-0.08814270651114152,-0.7721765418292021,2.9444268699556475,3.7224097126122024,-0.636737686060138,tremor
105,10241193,0.929,-0.6312582819153117,-0.08874941223522395,-0.7757105707760238,2.9127252458540536,2.9030612374444567,-0.6410895315086662,tremor
106,10241221,0.957,-0.6267933908845953,-0.08933476573258801,-0.7792875490993251,2.8756241151704276,1.9322868506523203,-0.6293206264715699,tremor
107,10241226,0.962,-0.6223753726487582,-0.08989499553286891,-0.7828728787077621,2.8326403652345093,0.8279159161704543,-0.6023919237488758,tremor
108,10241235,0.971,-0.6180617270007992,-0.09042648688700017,-0.7864319777839421,2.783315815437638,-0.39198641325995887,-0.5613441094694379,tremor
109,10241240,0.976,-0.6139078260204673,-0.09092582103155397,-0.7899305587686823,2.7272204508709383,-1.7093547209258095,-0.5072804466010823,tremor
110,10241245,0.981,-0.6099663960731124,-0.0913898130880698,-0.793334902326779,2.6639565054768757,-3.1063615797996498,-0.44134881239507373,tremor
111,10241250,0.986,-0.6062870156800537,-0.09181554767980711,-0.7966121254827139,2.5931635423840573,-4.565653552499788,-0.3647233138145286,tremor
112,10241260,0.996,-0.6029156358671169,-0.09220041131175037,-0.799730441802956,2.514524503619395,-6.070579387165702,-0.278585900722092,tremor
113,10241265,1.001,-0.5998941309645441,-0.09254212061320602,-0.8026594110778953,2.427772529508728,-7.605404624578375,-0.18410840933685368,tremor
114,10241270,1.006,-0.5972598887696992,-0.09283874568324335,-0.8053701755281986,2.3326982089938957,-9.155506948577193,-0.08243545994293833,tremor
115,10241275,1.011,-0.595045449312711,-0.09308872799332842,-0.807835679239074,2.2291568357061977,-10.707547066510628,0.0253313959812143,tremor
116,10241280,1.016,-0.5932782010635875,-0.09329089256526653,-0.8100308674077293,2.1170752191762925,-12.249610664180112,0.13814793274561166,tremor
117,10241294,1.03,-0.5919801422659456,-0.09344445442542797,-0.8119328621358549,1.9964576317791687,-13.771317979460804,0.2550396323480126,tremor
118,10241299,1.035,-0.5911677132606389,-0.09354901960334339,-0.8135211119330401,1.867390546842003,-15.263898704563623,0.3751119947618849,tremor
119,10241308,1.044,-0.5908517033339913,-0.09360458115772306,-0.8147775128094645,1.730045924325629,-16.720231180951533,0.49755867118070124,tremor
120,10241313,1.049,-0.5910372330053099,-0.09361151084349711,-0.815686499788379,1.5846829100967812,-18.134846113101002,0.6216674019936661,tremor
121,10241318,1.054,-0.5917238100023018,-0.09357054706291673,-0.8162351087887659,1.4316479212777093,-19.50389621575801,0.7468238103120569,tremor
122,10241345,1.081,-0.5929054547033035,-0.0934827796807482,-0.8164130100131692,1.2713731903170415,-20.825094249607936,0.8725131438204792,tremor
123,10241355,1.091,-0.5945708887665755,-0.09334963215957484,-0.8162125151035491,1.1043739339414858,-22.097622723059498,0.9983200728670034,tremor
124,10241369,1.105,-0.5967037792120651,-0.09317284132809883,-0.8156285612678194,0.9312443921780079,-23.322019061820946,1.1239266472390081,tremor
125,10241379,1.115,-0.5992830295364577,-0.09295443497231488,-0.8146586761999206,0.7526530287120963,-24.500040197868152,1.249108495291371,tremor
126,10241384,1.12,-0.6022831095961401,-0.09269670736251498,-0.8133029278205345,0.569337178789822,-25.634510315114102,1.37372932535122,tremor
127,10241388,1.124,-0.6056744168656644,-0.09240219280628693,-0.8115638626406244,0.38209737218482226,-26.729155051580825,1.4977337715671009,tremor
128,10241393,1.129,-0.609423662982062,-0.09207363734344896,-0.8094464359748657,0.19179146331880972,-27.7884249941593,1.6211386245088897,tremor
129,10241398,1.134,-0.613494280887082,-0.09171396876295654,-0.8069579364370285,-0.000671405721251051,-28.817310949169645,1.7440225041534727,tremor
130,10241403,1.139,-0.617846849125392,-0.09132626521412049,-0.8041079062671989,-0.1943370787838088,-29.821153275272287,1.8665140665234903,tremor
131,10241408,1.144,-0.6224395307973317,-0.09091372279504467,-0.8009080581818008,-0.3882130366800872,-30.805447522768105,1.9887788813229474,tremor
132,10241413,1.149,-0.6272285252275562,-0.09047962261919676,-0.79737218868674,-0.5812756079642463,-31.775648726023654,2.1110051746549563,tremor
133,10241418,1.154,-0.6321685305701435,-0.09002729797440305,-0.7935160872148644,-0.7724779309852039,-32.73697693441905,2.2333886976358706,tremor
134,10241427,1.163,-0.6372132153322633,-0.08956010228412699,-0.7893574400859439,-0.960758834841165,-33.69422692225009,2.3561170563881433,tremor
135,10241433,1.169,-0.642315696193999,-0.08908137864427843,-0.7849157281681652,-1.1450527515897448,-34.651585452638,2.479353915985167,tremor
136,10241438,1.174,-0.6474290185876035,-0.08859443172413613,-0.7802121172548391,-1.324300689859685,-35.61245993220846,2.6032235609633836,tremor
137,10241443,1.179,-0.6525066353553634,-0.08810250277143149,-0.7752693405468711,-1.4974621969621598,-36.57932271867202,2.7277963470640807,tremor
138,10241469,1.205,-0.6575028775343963,-0.08760874833885957,-0.7701115732108759,-1.6635281197667995,-37.553575659408956,2.8530756043357646,tremor
139,10241473,1.209,-0.6623734100585098,-0.08711622315442953,-0.7647642996897979,-1.8215338550370512,-38.535439554211,2.9789865443126464,tremor
140,10241478,1.214,-0.6670756641305944,-0.08662786730982236,-0.7592541751596994,-1.970572677730492,-39.52387303283757,3.1053676757411854,tremor
141,10241483,1.219,-0.6715692374802054,-0.08614649767158783,-0.753608883102597,-2.1098086771189255,-40.5165247159889,3.2319651368122546,tremor
142,10241488,1.224,-0.6758162539258693,-0.08567480316524188,-0.747856991267127,-2.23848883180523,-41.50972148510861,3.3584302110964415,tremor
143,10241493,1.229,-0.679781674698337,-0.08521534336921936,-0.7420278082565268,-2.3559538098019255,-42.498494353560964,3.4843201296965756,tremor
144,10241498,1.234,-0.6834335557542628,-0.08477054969785805,-0.7361512426401392,-2.461647167345634,-43.476641994866256,3.609102099610588,tremor
145,10241503,1.239,-0.6867432476208825,-0.0843427283536193,-0.7302576658987957,-2.5551227190999324,-44.43683058359323,3.732160356528175,tremor
146,10241508,1.244,-0.6896855369382786,-0.08393406418683427,-0.7243777797635484,-2.6360499493112592,-45.370727311920625,3.852805926909351,tremor
147,10241512,1.248,-0.6922387315863848,-0.08354662461193714,-0.7185424876664981,-2.704217420249861,-46.26916378769002,3.9702886991330377,tremor
148,10241517,1.253,-0.6943846938801019,-0.08318236278613107,-0.7127827691651178,-2.7595342059427432,-47.122324508927974,4.083811342496114,tremor
149,10241536,1.272,-0.6961088285727705,-0.08284311935222917,-0.7071295553985152,-2.8020294336726974,-47.91995475181707,4.192544570375938,tremor
150,10241546,1.282,-0.6974000341255743,-0.08253062217378358,-0.7016136029566294,-2.8318500543984246,-48.65158151756649,4.295643216465335,tremor
151,10241555,1.291,-0.6982506267029766,-0.08224648363916956,-0.6962653630726066,-2.8492569917295216,-49.306740697541464,4.392262582019746,tremor
152,10241560,1.296,-0.6986562465124068,-0.08199219527460914,-0.691114842879314,-2.8546198450634064,-49.875203404221175,4.481574522687196,tremor
153,10241565,1.301,-0.6986157553876112,-0.08176911957912722,-0.6861914556889287,-2.8484103498158655,-50.3471945408771,4.562782779082621,tremor
154,10241591,1.327,-0.6981311330283276,-0.08157847917429543,-0.6815238578975993,-2.8311948215183067,-50.713597151201036,4.635137113486364,tremor
155,10241596,1.332,-0.6972073772806875,-0.08142134354422466,-0.6771397711509897,-2.8036258201350877,-50.96613684271783,4.697945890221522,tremor
156,10241606,1.342,-0.6958524115428132,-0.08129861381542176,-0.6730657897244562,-2.7664332584017646,-51.09754153012206,4.750586824459494,tremor
157,10241616,1.352,-0.6940770000607743,-0.08121100617211854,-0.6693271745154913,-2.7204151456895507,-51.10167282057025,4.792515719554463,tremor
158,10241625,1.361,-0.6918946697438512,-0.08115903460072672,-0.665947636445311,-2.6664281197078594,-50.97362650100018,4.823273111774878,tremor
159,10241630,1.366,-0.6893216353151683,-0.08114299369984904,-0.6629491132787453,-2.6053778872857576,-50.70980074195965,4.842488837978085,tremor
160,10241640,1.376,-0.686376723210622,-0.08116294228907703,-0.6603515448033114,-2.5382096784931156,-50.30793178124612,4.849884632828473,tremor
161,10241645,1.381,-0.6830812886912098,-0.08121868851912942,-0.6581726519189504,-2.4658988091673986,-49.76709799299056,4.845274947250708,tremor
162,10241650,1.386,-0.6794591201468578,-0.08130977714440117,-0.6564277254890858,-2.38944143492946,-49.08769438286577,4.82856625866941,tremor
163,10241660,1.396,-0.6755363245095505,-0.08143547957479765,-0.6551294308372124,-2.309845559868135,-48.27138065830303,4.799755211730855,tremor
164,10241664,1.4,-0.6713411880001203,-0.08159478727570524,-0.6542876335985532,-2.228122337914876,-47.321007062435086,4.758925976165235,tremor
165,10241669,1.405,-0.6669040070400647,-0.08178640902614548,-0.6539092523014409,-2.1452776804937996,-46.24052307157056,4.706247224985661,tremor
166,10241679,1.415,-0.662256885009751,-0.08200877246768365,-0.6539981425864908,-2.062304164068809,-45.03487476156276,4.641969113324492,tremor
167,10241684,1.42,-0.657433491590495,-0.08226003027630799,-0.6545550173807705,-1.9801732154076914,-43.70989705880598,4.566420575156073,tremor
168,10241720,1.456,-0.652468782687573,-0.08253807116812621,-0.6555774066162868,-1.899827538929925,-42.27220710467482,4.480007158450369,tremor
169,10241739,1.475,-0.6473986804468661,-0.08284053581372325,-0.6570596591864055,-1.822173741162218,-40.72910446800504,4.3832094997038435,tremor
170,10241744,1.48,-0.6422597147609918,-0.0831648375914666,-0.6589929887323647,-1.7480751109576167,-39.08848286601915,4.276582410821872,tremor
171,10241749,1.485,-0.6370886300024521,-0.08350818795886995,-0.6613655635301241,-1.678344540944867,-37.358756463456835,4.160754433861588,tremor
172,10241754,1.49,-0.6319219634395218,-0.08386762606285975,-0.6641626392500126,-1.6137376236431777,-35.548801969188915,4.036427629883704,tremor
173,10241759,1.495,-0.6267956045674419,-0.0842400520475324,-0.6673667317960791,-1.5549460074893102,-33.667915981802075,3.90437731491987,tremor
174,10241764,1.5,-0.6217443470019304,-0.08462226336189776,-0.670957825931342,-1.502591135456988,-31.725785585699292,3.76545143605059,tremor
175,10241768,1.504,-0.6168014462996804,-0.08501099323506564,-0.6749136140737008,-1.457218505546143,-29.732469129476936,3.620569287731763,tremor
176,10241778,1.514,-0.6119981979143831,-0.0854029503873248,-0.6792097585883905,-1.4192925917607353,-27.698383406996662,3.470719298407734,tremor
177,10241783,1.519,-0.6073635494104171,-0.08579485899472775,-0.6838201701686917,-1.3891925532570528,-25.634293092153804,3.316955666239963,tremor
178,10241788,1.524,-0.6029237600571423,-0.08618349793025404,-0.6887172945401875,-1.3672088454315208,-23.551298254694256,3.160393685118227,tremor
179,10241793,1.529,-0.5987021190892922,-0.0865657383690349,-0.6938723997886193,-1.3535408354196992,-21.460816104579393,3.0022036721202614,tremor
180,10241798,1.534,-0.5947187313771911,-0.0869385789633219,-0.6992558571123624,-1.348295516379312,-19.374553740558834,2.8436034807981607,tremor
181,10241803,1.539,-0.5909903761951354,-0.08729917795071705,-0.7048374087047946,-1.3514874038496762,-17.304469542769546,2.6858496578919007,tremor
182,10241808,1.544,-0.5875304414298728,-0.08764488173566277,-0.7105864177018048,-1.3630396729907939,-15.26272186439901,2.5302273702240337,tremor
183,10241813,1.549,-0.584348932151312,-0.08797324965591372,-0.7164720965858552,-1.3827865475995098,-13.261604764257088,2.378039287510289,tremor
184,10241864,1.6,-0.5814525491700188,-0.08828207479092154,-0.7224637120141507,-1.4104768750535381,-11.313471598502442,2.2305936486191102,tremor
185,10241874,1.61,-0.5788448302426339,-0.08856940077131943,-0.7285307656098593,-1.4457787226373862,-9.430648233985963,2.089191757022464,tremor
186,10241879,1.615,-0.5765263442637323,-0.08883353460197166,-0.734643151651432,-1.48828473984753,-7.6253382666878915,1.9551151412619217,tremor
187,10241884,1.62,-0.5744949274894735,-0.08907305552432611,-0.7407712936125549,-1.5375179935573784,-5.909522744875226,1.8296125800729068,tremor
188,10241889,1.625,-0.5727459508396462,-0.08928681993882168,-0.7468862619975097,-1.5929380241031759,-4.294856514837768,1.7138871429482856,tremor
189,10241894,1.63,-0.571272608533488,-0.08947396240898353,-0.7529598758874599,-1.6539469711969512,-2.7925626754675825,1.6090833553945192,tremor
190,10241899,1.635,-0.5700662203049938,-0.08963389279171469,-0.7589647902091397,-1.7198957330123696,-1.4133260525751092,1.5162745761375278,tremor
191,10241908,1.644,-0.5691165416718094,-0.08976628958847141,-0.764874570156265,-1.7900902120823516,-0.16718625846542992,1.436450670242358,tremor
192,10241918,1.654,-0.5684120787284495,-0.08987108968677988,-0.7706637536092742,-1.8637977504987158,0.9365691782328984,1.3705060719362583,tremor
193,10241923,1.659,-0.5679404053613488,-0.08994847475283575,-0.7763079019454368,-1.9402538598656642,1.8895109650154058,1.3192283511111824,tremor
194,10241933,1.669,-0.5676884814255534,-0.08999885463119146,-0.7817836394141359,-2.0186693110502025,2.684172467576589,1.2832874271345875,tremor
195,10241938,1.674,-0.5676429701953016,-0.09002284819089287,-0.7870686813401534,-2.0982375744659243,3.3141508873228513,1.2632256088342986,tremor
196,10241964,1.7,-0.5677905523783491,-0.09002126211269086,-0.7921418518195473,-2.1781425089939295,3.774203143913595,1.2594486705240802,tremor
197,10241969,1.705,-0.5681182324238411,-0.08999506812768596,-0.7969830922159297,-2.2575661059388867,4.060333976753893,1.272218185981294,tremor
198,10241974,1.71,-0.5686136311820883,-0.08994537919276523,-0.8015734624953355,-2.335696026391613,4.169873601863816,1.3016453207135428,tremor
199,10241979,1.715,-0.5692652577089333,-0.08987342503384023,-0.8058951380510715,-2.4117326493865816,4.1015424742347175,1.3476862212877712,tremor
200,10241984,1.72,-0.5700627525884273,-0.08978052742403421,-0.8099314049832832,-2.4848953862154954,3.8555013321374108,1.4101390485396907,tremor
201,10241994,1.73,-0.5709970957687872,-0.08966807551043512,-0.8136666567214899,-2.5544281040389496,3.433385610907677,1.4886426036780909,tremor
202,10241999,1.735,-0.572060773482507,-0.08953750147298692,-0.8170863944264437,-2.6196036164632055,2.838324302993158,1.5826764197813585,tremor
203,10242013,1.749,-0.5732479010878793,-0.08939025679694058,-0.8201772328600971,-2.6797273173398475,2.0749442172262147,1.69156215148472,tremor
204,10242018,1.754,-0.5745543012771474,-0.08922778946187956,-0.8229269124823316,-2.7341401388554654,1.1493612074379331,1.814466092362673,tremor
205,10242023,1.759,-0.5759775396408365,-0.0890515223836523,-0.8253243175611851,-2.7822210895397133,0.06916019625546113,1.9504026733931807,tremor
206,10242032,1.768,-0.5775169216311007,-0.08886283347345243,-0.8273594992274247,-2.8233896580506954,-1.1566343281611238,2.0982388386216817,tremor
207,10242042,1.778,-0.5791734561794105,-0.08866303768448673,-0.8290237018048118,-2.8571083500907766,-2.517596176217165,2.2566992512980795,tremor
208,10242047,1.783,-0.5809497914314466,-0.08845337139149283,-0.8303093904921944,-2.882885567035301,-4.00194327571802,2.4243723514390116,tremor
209,10242052,1.788,-0.5828501273082529,-0.08823497939018361,-0.8312102785892025,-2.9002789505421354,-5.5965919042796495,2.5997173572172447,tremor
210,10242057,1.793,-0.5848801080814259,-0.0880089047167433,-0.8317213529175896,-2.908899219698862,-7.287220638125119,2.7810723677590627,tremor
211,10242087,1.823,-0.5870466961426821,-0.08777608137967688,-0.831838896822726,-2.9084144230584887,-9.05834604858774,2.9666637724394986,tremor
212,10242092,1.828,-0.5893580259988066,-0.08753732997807752,-0.831560511026383,-2.898554423256819,-10.893412696558334,3.1546171909935636,tremor
213,10242097,1.833,-0.5918232356447123,-0.08729335606413285,-0.8308851334782206,-2.8791153402370226,-12.774900144366057,3.342970150337552,tremor
214,10242102,1.838,-0.5944522713085871,-0.08704475100647659,-0.829813060025936,-2.849963623669935,-14.684449367199747,3.5296866421147954,tremor
215,10242111,1.847,-0.597255661470868,-0.08679199503560134,-0.8283459680298126,-2.811039427046653,-16.603010061430624,3.7126736045750652,tremor
216,10242116,1.852,-0.6002442571245072,-0.08653546210871925,-0.8264869449193782,-2.76235901838002,-18.511009074099555,3.889799253355984,tremor
217,10242121,1.857,-0.603428937289719,-0.08627542621990575,-0.8242405231651693,-2.7040160691031123,-20.388538785993706,4.05891307638554,tremor
218,10242125,1.861,-0.6068202814921833,-0.08601206879997947,-0.8216127223132031,-2.6361817884980745,-22.215563001879406,4.217867231638366,tremor
219,10242130,1.866,-0.6104282138899297,-0.0857454868956757,-0.8186110977165204,-2.55910399222068,-23.972136870251454,4.364539048851555,tremor
220,10242140,1.876,-0.6142616266319652,-0.08547570188366624,-0.8152447945109471,-2.4731052918145604,-25.638636628720853,4.4968543247556765,tremor
221,10242145,1.881,-0.6183279925238278,-0.08520266855394122,-0.8115246043328314,-2.378580653946415,-27.195994563291997,4.612811097047733,tremor
222,10242150,1.886,-0.6226329788797932,-0.08492628447881408,-0.8074630213748716,-2.275994594227277,-28.625934473055754,4.710503576330938,tremor
223,10242160,1.896,-0.6271800753387792,-0.08464639965643261,-0.8030742937272971,-2.165878238591196,-29.91120312376669,4.788145911844042,tremor
224,10242164,1.9,-0.6319702482868844,-0.08436282646886889,-0.7983744656418641,-2.048826413764321,-31.035793607696306,4.844095473426131,tremor
225,10242174,1.91,-0.6370016333696794,-0.08407535001369079,-0.7933814064358777,-1.9254948367775233,-31.9851571317781,4.876875349880904,tremor
226,10242184,1.92,-0.6422692755328117,-0.08378373884692725,-0.7881148222288226,-1.7965973860167703,-32.74640045549861,4.885195787006467,tremor
227,10242210,1.946,-0.647764923356247,-0.08348775611426562,-0.782596247532079,-1.662903372480672,-33.30846693272149,4.8679743093666845,tremor
228,10242220,1.956,-0.6534768814931973,-0.08318717095853699,-0.7768490147904102,-1.5252346943846498,-33.66229981967729,4.824354282733144,tremor
229,10242230,1.966,-0.6593899221919701,-0.08288177000157218,-0.7708982011382595,-1.384462735634746,-33.80098710620194,4.753721677249357,tremor
230,10242239,1.975,-0.6654852545454484,-0.08257136863786904,-0.7647705526884577,-1.2415048345932291,-33.71988748393751,4.655719786371859,tremor
231,10242244,1.98,-0.6717405485237228,-0.08225582186142451,-0.7584943874543678,-1.0973200966374006,-33.41673708159815,4.530261645737844,tremor
232,10242249,1.985,-0.6781300100516074,-0.08193503436462865,-0.7520994784491917,-0.9529042754539067,-32.89173627201104,4.377539880938588,tremor
233,10242254,1.99,-0.6846245032878984,-0.08160896967273047,-0.7456169186297954,-0.8092834387793411,-32.14761529781034,4.198033697507961,tremor
234,10242259,1.995,-0.6911917166715998,-0.08127765808817619,-0.7390789692254629,-0.6675061821799322,-31.18967682898435,3.9925127179791082,tremor
235,10242264,2.0,-0.697796370041184,-0.08094120321282999,-0.7325188926910298,-0.5286342524082625,-30.025812991378952,3.762037378321439,tremor
236,10242269,2.005,-0.7044004610439165,-0.08059978680426365,-0.7259707711201624,-0.39373157038285767,-28.666493981104697,3.5079556246106645,tremor
237,10242274,2.01,-0.7109635499916286,-0.08025367172235574,-0.7194693105139359,-0.2638517825380111,-27.124725163310547,3.2318957001804924,tremor
238,10242279,2.015,-0.717443083160092,-0.07990320275035553,-0.7130496308847271,-0.1400245997115758,-25.415969587474525,2.9357548792690933,tremor
239,10242283,2.019,-0.7237947551545912,-0.07954880514078431,-0.7067470418461351,-0.023241288766895095,-23.558033163959408,2.621684079303606,tremor
240,10242288,2.024,-0.7299729112705253,-0.07919098084357348,-0.7005968031548526,0.08556024735348129,-21.570910340339083,2.2920683657799623,tremor
241,10242293,2.029,-0.7359309906812858,-0.07883030251403209,-0.6946338696861869,0.18551033462718863,-19.47658895994677,1.949503449207385,tremor
242,10242298,2.034,-0.7416220107290655,-0.07846740555238409,-0.6888926205900612,0.2758218783441269,-17.298814027183873,1.5967683629976506,tremor
243,10242303,2.039,-0.746999091550738,-0.07810297856718257,-0.6834065729206474,0.3558037771648127,-15.062811290324642,1.236794605517164,tremor
244,10242308,2.044,-0.752016018747819,-0.07773775275494384,-0.6782080808654747,0.42487303781086466,-12.794972836854374,0.8726321295278198,tremor
245,10242335,2.071,-0.7566278398563316,-0.07737249072897728,-0.6733280227929044,0.48256529396295605,-10.522508240327353,0.5074126672746224,tremor
246,10242340,2.076,-0.7607914880997769,-0.07700797530250128,-0.6687954796251312,0.5285434942485966,-8.273066160808165,0.14431098510646456,tremor
247,10242345,2.081,-0.7644664245134147,-0.0766449986373485,-0.6646374094047028,0.5626045697934015,-6.074332624628945,-0.21349524316303176,tremor
248,10242350,2.086,-0.7676152872838633,-0.07628435202865246,-0.6608783241762195,0.5846839192245743,-3.953613413130101,-0.5628661849642118,tremor
249,10242354,2.09,-0.7702045353191893,-0.07592681644069202,-0.6575399762693844,0.5948575679510475,-1.93740899349304,-0.9007404260789763,tremor
250,10242359,2.095,-0.7722050718034748,-0.07557315377446368,-0.6546410616355227,0.5933418869902172,-0.050991169976278644,-1.2241745825561545,tremor
251,10242364,2.1,-0.7735928328150559,-0.07522409875853323,-0.6521969480406291,0.5804908093278237,1.6820089143229782,-1.530381180798232,tremor
252,10242369,2.105,-0.7743493259482497,-0.07488035132215339,-0.6502194356909444,0.5567905619344851,3.2399916626762737,-1.8167640872281348,tremor
253,10242374,2.11,-0.7744621042202062,-0.07454256933185953,-0.6487165573126022,0.5228520312736037,4.6037492439664875,-2.0809508372434316,tremor
254,10242379,2.115,-0.7739251613372715,-0.07421136163838876,-0.6476924238793588,0.4794009854325092,5.756786159997262,-2.32082130278736,tremor
255,10242384,2.12,-0.7727392356329574,-0.07388728147166253,-0.6471471211408237,0.4272664715271796,6.685592102160191,-2.5345322477485914,tremor
256,10242389,2.125,-0.7709120116786335,-0.07357082031658838,-0.6470766609051956,0.367367780411642,7.379860312440797,-2.7205374456877243,tremor
257,10242394,2.13,-0.7684582107109311,-0.07326240248159509,-0.6474729897220511,0.30070041519498664,7.832646247650342,-2.8776031672354923,tremor
258,10242399,2.135,-0.7653995636040511,-0.07296238061943534,-0.648324056226633,0.22832151378648785,8.04046317490846,-3.0048189756970283,tremor
259,10242404,2.14,-0.7617646631075703,-0.07267103246599704,-0.649613936972964,0.15133515944638853,8.00331331077828,-3.10160388966296,tremor
260,10242409,2.145,-0.7575886954110841,-0.07238855902412122,-0.6513230191204827,0.07087796892632073,7.724655158697192,-3.16770807273137,tremor
261,10242424,2.16,-0.7529130546896893,-0.07211508433936542,-0.6534282368698118,-0.01189472232804259,7.211309707752474,-3.203210287573712,tremor
262,10242429,2.165,-0.7477848479783828,-0.07185065690698682,-0.6559033570996258,-0.09582185045181757,6.473310032724156,-3.208511403602515,tremor
263,10242454,2.19,-0.742256301285235,-0.07159525264173534,-0.6587193082972799,-0.17974866781451854,5.523700449889057,-3.184324277336794,tremor
264,10242469,2.205,-0.7363840809465446,-0.07134877927178336,-0.6618445457053819,-0.2625378264146445,4.378292567571159,-3.131660335036857,tremor
265,10242478,2.214,-0.7302285464552902,-0.07111108201369225,-0.6652454447757485,-0.3430795651207443,3.055386162841471,-3.0518131762936003,tremor
266,10242483,2.219,-0.7238529520310844,-0.0708819504437165,-0.6688867146868787,-0.4203011006914728,1.5754627331844329,-2.94633948030688,tremor
267,10242488,2.224,-0.717322613954608,-0.07066112656398134,-0.6727318239183597,-0.4931753117052382,-0.03914112401972177,-2.817037436528389,tremor
268,10242493,2.229,-0.710704059370582,-0.07044831411865762,-0.6767434306175792,-0.5607287724154505,-1.7645744545741966,-2.6659228548543554,tremor
269,10242503,2.239,-0.7040641702752072,-0.07024318920902593,-0.6808838115481031,-0.622049166079556,-3.5758220162530447,-2.495203060137504,tremor
270,10242527,2.263,-0.6974693341808299,-0.07004541218108729,-0.6851152845453146,-0.6762920909480793,-5.447060067357563,-2.307248657660447,tremor
271,10242532,2.268,-0.6909846108806098,-0.06985464063475953,-0.689400620422671,-0.7226872559018662,-7.352015223306879,-2.1045632774420726,tremor
272,10242547,2.283,-0.684672923184909,-0.06967054326081237,-0.6937034410107948,-0.7605440349832768,-9.264324238599212,-1.889751467343256,tremor
273,10242579,2.315,-0.6785942788072514,-0.06949281407643379,-0.697988600355089,-0.7892563123152659,-11.15789243145525,-1.665485003845861,tremor
274,10242589,2.325,-0.6728050309248861,-0.06932118651201671,-0.7022225460074124,-0.8083065192425481,-13.007247661859326,-1.4344680116712036,tremor
275,10242598,2.334,-0.6673571861761325,-0.06915544669904486,-0.7063736569026416,-0.8172687688104916,-14.787885592782999,-1.1994014065664838,tremor
276,10242603,2.339,-0.6622977704593487,-0.06899544523056293,-0.7104125537031729,-0.8158110406255374,-16.47660088279868,-0.9629472760965065,tremor
277,10242608,2.344,-0.6576682641836094,-0.06884110664033767,-0.7143123769661031,-0.8036964449992317,-18.05179834579354,-0.7276938763461633,tremor
278,10242613,2.349,-0.6535041190676185,-0.0686924359060365,-0.7180490282477031,-0.7807836621178981,-19.49377806687615,-0.49612194476632326,tremor
279,10242618,2.354,-0.6498343679959747,-0.06854952143488678,-0.7216013694232843,-0.7470266800397143,-20.784988871511572,-0.27057301450310095,tremor
280,10242623,2.359,-0.646681337892007,-0.06841253421720794,-0.7249513760824126,-0.7024739395008768,-21.910245250603616,-0.053220368442434274,tremor
281,10242628,2.364,-0.6440604732487506,-0.06828172309588078,-0.7280842418060434,-0.6472669472361374,-22.856903737979472,0.1539568035175167,tremor
282,10242637,2.373,-0.6419802750948256,-0.06815740635706853,-0.7309884313594138,-0.5816383609590488,-23.61499575602648,0.3491955777963949,tremor
283,10242647,2.383,-0.6404423569723808,-0.06803996006402523,-0.7336556822465213,-0.5059094943061215,-24.177315042697536,0.5309674474596863,tremor
284,10242652,2.388,-0.6394416161768572,-0.06792980370638675,-0.7360809555595946,-0.42048715136766424,-24.539458891373034,0.6979922121632812,tremor
285,10242657,2.393,-0.6389665152653177,-0.06782738381068039,-0.7382623384941526,-0.32585968639181234,-24.699823501265573,0.8492474759366809,tremor
286,10242662,2.398,-0.6389994658863499,-0.06773315616082973,-0.7402009021594361,-0.22259219802060842,-24.659554679210103,0.9839737051816074,tremor
287,10242667,2.403,-0.6395173044789866,-0.06764756723494592,-0.7419005192979051,-0.11132080504765345,-24.422455911170264,1.1016748613181242,tremor
288,10242703,2.439,-0.6404918474163644,-0.06757103541089444,-0.7433676471912637,0.007253997855948281,-23.994856431447065,1.2021146725206653,tremor
289,10242708,2.444,-0.64189051175765,-0.06750393245833289,-0.7446110813796796,0.1323748528975121,-23.385442391205583,1.2853086613936635,tremor
290,10242713,2.449,-0.6436769869172676,-0.0674465658329949,-0.7456416859011776,0.26323582531416967,-22.605054618071424,1.3515121116641917,tremor
291,10242717,2.453,-0.645811942243763,-0.06739916231135154,-0.7464721056479149,0.3989913413641364,-21.66645682029439,1.4012042405041836,tremor
292,10242722,2.458,-0.6482537556624487,-0.06736185352531078,-0.7471164662288741,0.5387656471034108,-20.584078457079958,1.4350689377280228,tremor
293,10242728,2.464,-0.650959249064273,-0.06733466395065368,-0.7475900665048743,0.6816626563614092,-19.373736874838595,1.4539725264162757,tremor
294,10242742,2.478,-0.6538844168796933,-0.06731750185335833,-0.7479090687696,0.8267760545146086,-18.05234368107178,1.4589390802462916,tremor
295,10242747,2.483,-0.6569851351425106,-0.06731015360232058,-0.748090191405391,0.9731995149293224,-16.637600671021886,1.4511238948428367,tremor
296,10242752,2.488,-0.6602178392564604,-0.06731228162421707,-0.7481504087363852,1.120036866510271,-15.147690908530324,1.4317857505082798,tremor
297,10242761,2.497,-0.6635401596107934,-0.06732342612313572,-0.7481066627083082,1.2664120286856604,-13.600970756870103,1.402258619312538,tremor
298,10242766,2.502,-0.6669115051710359,-0.06734301053288225,-0.7479755909079092,1.41147851353702,-12.015668727985826,1.363923461427482,tremor
299,10242771,2.507,-0.6702935862354629,-0.06737035052800523,-0.7477732752579288,1.5544282933556168,-10.40959695252069,1.3181807289177894,tremor
300,10242776,2.512,-0.6736508687356406,-0.06740466629769105,-0.7475150154512111,1.694499851821937,-8.799880856805032,1.2664241558923022,tremor
301,10242780,2.516,-0.6769509538010083,-0.06744509768547995,-0.7472151307943387,1.830985277720419,-7.202712256639866,1.210016364711377,tremor
302,10242785,2.521,-0.6801648778182561,-0.06749072171411094,-0.746886793604929,1.96323631404791,-5.633130537925841,1.1502667581668045,tremor
303,10242795,2.531,-0.6832673298960352,-0.0675405719444518,-0.7465418966491953,2.0906693310694395,-4.104835894224863,1.088412094791447,tremor
304,10242800,2.536,-0.6862367854838353,-0.06759365905754937,-0.7461909563272572,2.2127692377042445,-2.630037732638837,1.0256000553797002,tremor
305,10242828,2.564,-0.6890555568761141,-0.06764899199996874,-0.7458430524256104,2.3290923717246907,-1.2193403403652239,0.9628760002798356,tremor
306,10242832,2.568,-0.6917097634354084,-0.06770559900026842,-0.7455058042763847,2.4392684105820233,0.11833325646859366,0.90117299119803,tremor
307,10242837,2.573,-0.6941892265357238,-0.06776254775890854,-0.7451853821227591,2.5430013272618974,1.3757795348842692,0.8413050225119145,tremor
308,10242847,2.583,-0.6964872963500971,-0.06781896414627081,-0.7448865514420797,2.6400693974093024,2.5475162635049635,0.7839632991809697,tremor
309,10242851,2.587,-0.6986006195265114,-0.06787404881828905,-0.7446127469917562,2.7303242635984355,3.629750236339032,0.7297153281975323,tremor
310,10242861,2.597,-0.7005288583440472,-0.06792709126860254,-0.7443661724864611,2.813689086031932,4.620314056938179,0.6790065567592561,tremor
311,10242866,2.602,-0.7022743729688682,-0.0679774809625311,-0.7441479211445019,2.890155848284471,5.518575558170359,0.6321642797402738,tremor
312,10242871,2.607,-0.7038418788420021,-0.06802471532303753,-0.7439581118963605,2.9597819278413358,6.325323741607244,0.5894035388955321,tremor
313,10242876,2.612,-0.7052380910065095,-0.0680684044502075,-0.7437960358508188,3.0226860705131817,7.042635279691791,0.550834738739799,tremor
314,10242886,2.622,-0.7064713663772694,-0.06810827255020585,-0.7436603076638496,3.0790439163325276,7.673725678682185,0.5164727053051236,tremor
315,10242891,2.627,-0.7075513536906531,-0.06814415613064276,-0.743549016731013,3.1290832100242,8.222789177223463,0.48624691312909313,tremor
316,10242896,2.632,-0.7084886592991074,-0.0681759990942607,-0.7434598735873197,3.173078795371061,8.69483136974596,0.4600126039365836,tremor
317,10242901,2.637,-0.7092945352632298,-0.06820384493983477,-0.7433903475025784,3.2113474471154158,9.095498402234565,0.4375625191173249,tremor
318,10242906,2.642,-0.7099805944896299,-0.06822782636341644,-0.7433377919567364,3.244242545635551,9.430906393545639,0.4186389685652847,tremor
319,10242911,2.647,-0.7105585560734448,-0.06824815264504233,-0.7432995554229825,3.2721485581288468,9.707474494342291,0.40294596163239493,tremor
320,10242916,2.652,-0.7110400225888343,-0.06826509530132228,-0.7432730756348103,3.295475263129805,9.931764718493364,0.3901611323693797,tremor
