sample,t_ms,t_s,ax,ay,az,gx,gy,gz,tremor
0,4038520,0.0,-1.2247861364987747,-0.5071667657519141,0.6758759600736498,-64.11667423673916,237.55317940451607,-26.335561737453194,tremor
1,4038525,0.005,-1.212352786186035,-0.5047234413051919,0.6685792432358608,-59.89234666847736,219.64492875645234,-24.428158786717596,tremor
2,4038530,0.01,-1.1954910850624423,-0.5013621898116575,0.6586586700236177,-55.7109162402779,202.05622507690111,-22.510642209882167,tremor
3,4038535,0.015,-1.1740266247721234,-0.49702077393548777,0.645996263945911,-51.58881658861635,184.84896340098916,-20.59049922445029,tremor
4,4038539,0.019,-1.1486481963268513,-0.49181072601294473,0.630982059616229,-47.54206083247423,168.0825152829532,-18.675217459079878,tremor
5,4038544,0.024,-1.1204587056582402,-0.48593427053598726,0.6142533967303627,-43.58610067940357,151.81326576425698,-16.772223239828158,tremor
6,4038549,0.029,-1.0905868012110576,-0.4796080456470693,0.5964672430324468,-39.735691751779086,136.09417408250619,-14.888821900030136,tremor
7,4038554,0.034,-1.0599934861776978,-0.47302277431650225,0.5781856648167799,-36.00476701126797,120.97436282943414,-13.032140974760491,tremor
8,4038559,0.039,-1.0294225595779996,-0.4663309492573951,0.5598454992026186,-32.4063200347578,106.49874030579089,-11.209077069113107,tremor
9,4038564,0.044,-0.9994211365454229,-0.4596488841079979,0.5417694044580459,-28.952299710601412,92.7076607852348,-9.426247080233484,tremor
10,4038573,0.053,-0.9703817465432855,-0.4530636933370452,0.524189896328892,-25.653517681243617,79.63662726698885,-7.6899443124563245,tremor
11,4038578,0.058,-0.9425833463969344,-0.4466405828374655,0.5072730004552805,-22.519569569770535,67.31604104191504,-6.006099862619399,tremor
12,4038583,0.063,-0.9162238371717293,-0.4404288093353288,0.491137083735726,-19.55877071819748,55.77100198037901,-4.380249478598486,tremor
13,4038588,0.068,-0.8914434914839188,-0.4344660550538009,0.47586644946591117,-16.778106865087867,45.021162839027674,-2.8175059181106876,tremor
14,4038593,0.073,-0.8683409823405119,-0.4287814637042986,0.46152064629512807,-14.183199925112445,35.08064007890285,-1.3225366665529645,tremor
15,4038598,0.078,-0.8469840420247566,-0.4233976860680019,0.4481406572934033,-11.778288815000932,25.957982733382405,0.10045327881174954,tremor
16,4038602,0.082,-0.8274164575467462,-0.4183322419906709,0.43575295805524417,-9.56622509593021,17.65619982162326,1.4477339769825,tremor
17,4038607,0.087,-0.8096626628634648,-0.413598430193493,0.42437217772492636,-7.548483059968727,10.172845719679666,2.716058973424713,tremor
18,4038612,0.092,-0.7937307995358627,-0.4092059475944603,0.4140028727787142,-5.725183763591191,3.500161808291465,3.902670148635832,tremor
19,4038617,0.097,-0.779614825928415,-0.4051613261249583,0.40464075455501897,-4.095132392026633,-2.374728363054643,5.00529953660034,tremor
20,4038649,0.129,-0.7672960509078958,-0.40146825694953664,0.3962735929752469,-2.6558682156586864,-7.469574195891279,6.02216860835818,tremor
21,4038659,0.139,-0.7567443303160587,-0.3981278462511027,0.3888819387097164,-1.4037262699368822,-11.80670820723004,6.951985417421076,tremor
22,4038663,0.143,-0.7479190737444985,-0.3951388298805917,0.3824397528935569,-0.3339097550567187,-15.412716817712829,7.7939398865578315,tremor
23,4038668,0.148,-0.7407701503626322,-0.392497763393612,0.37691499864200095,0.5594279808254221,-18.318077941085793,8.547697414382299,tremor
24,4038673,0.153,-0.7352387451214712,-0.3901991972505553,0.37227022587193886,1.2830931284386313,-20.556771886023785,9.213390923018673,tremor
25,4038678,0.158,-0.7312581932464657,-0.38823584280942214,0.36846316613918145,1.8447541183595368,-22.16587216633195,9.791611457238808,tremor
26,4038683,0.163,-0.7287548065481644,-0.3865987322361724,0.3654473446081512,2.252838735958721,-23.185122706155926,10.283397461993212,tremor
27,4038688,0.168,-0.7276486963930664,-0.385277373978412,0.36317271010213964,2.516427066976067,-23.65650766678021,10.690222888299555,tremor
28,4038693,0.173,-0.7278545930415434,-0.3842599046039403,0.36158628028721845,2.6451416656532794,-23.623819731544515,11.013984294608214,tremor
29,4038698,0.178,-0.7292826581265266,-0.38353323735088335,0.3606327966790879,2.6490362720262537,-23.13223218055859,11.256987116009686,tremor
30,4038703,0.183,-0.7318392854873307,-0.3830832075173059,0.3602553828482221,2.5384843054644617,-22.227879489482106,11.42193126367198,tremor
31,4038707,0.187,-0.7354278848923009,-0.38289471473886816,0.3603961986166243,2.3240682388249345,-20.957450523558435,11.511896190776923,tremor
32,4038712,0.192,-0.7399496430951088,-0.3829518622014513,0.36099708297080696,2.01647082342303,-19.367797696322928,11.530325521208066,tremor
33,4038717,0.197,-0.7453042570073198,-0.38323809287056576,0.36200017870137996,1.6263689994318131,-17.505564750068974,11.481011288469197,tremor
34,4038722,0.202,-0.7513906344305649,-0.383736322861955,0.36334853229884584,1.1643311981718054,-15.416835124669978,11.368077781144615,tremor
35,4038727,0.207,-0.7581075586960313,-0.3844290721068118,0.3649866632943439,0.6407186309184748,-13.146802249545031,11.195964943030337,tremor
36,4038732,0.212,-0.7653543146335741,-0.3852985924640422,0.3668610979615346,0.0655910717262343,-10.73946255827876,10.969411234076322,tremor
37,4038736,0.216,-0.77303127446187,-0.38632699338843535,0.36892086303741617,-0.5513824140824489,-8.23733161991548,10.693435824194932,tremor
38,4038741,0.221,-0.7810404433742876,-0.38749636516860014,0.3711179358342512,-1.2010073649191495,-5.681183527571915,10.37331996747224,tremor
39,4038768,0.248,-0.7892859657061794,-0.3887888995977548,0.37340764776847707,-1.8746419961908891,-3.109813592159194,10.014587391056919,tremor
40,4038773,0.253,-0.7976745935111199,-0.3901870077364435,0.37574903889736716,-2.5642689610724734,-0.5598244519515313,9.62298353095323,tremor
41,4038778,0.258,-0.8061161200348438,-0.3916734341828935,0.378105161508571,-3.2625602399144817,1.9345640942334845,9.204453453169343,tremor
42,4038783,0.263,-0.8145237808507945,-0.39323136701136613,0.38044333113956574,-3.9629345219533136,4.341680941375078,8.765118309343524,tremor
43,4038787,0.267,-0.8228146252614895,-0.3948445423067059,0.38273532361689183,-4.6596063735005435,6.632544345525718,8.311250189893414,tremor
44,4038792,0.272,-0.8309098600232997,-0.3964973420472788,0.3849575168233401,-5.347626442855074,8.780976323497057,7.849245256484965,tremor
45,4038797,0.277,-0.8387351666490598,-0.39817488399153167,0.3870909759696292,-6.022911946730072,10.763689634785145,7.385595059445729,tremor
46,4038802,0.282,-0.8462209926437821,-0.39986310221502763,0.38912148121989076,-6.682266722522836,12.560346280143921,6.9268559704722446,tremor
47,4038807,0.287,-0.8533028161794778,-0.40154881702237144,0.39103949664974175,-7.323390217237766,14.153586682286736,6.479616679892104,tremor
48,4038812,0.292,-0.8599213830267946,-0.40321979311328643,0.39284007974573915,-7.944874916494119,15.529029074486512,6.050463716508725,tremor
49,4038816,0.296,-0.8660229141074992,-0.40486478510523644,0.3945227310191963,-8.54619189207594,16.675239092941055,5.645944948510117,tremor
50,4038821,0.301,-0.8715592818534457,-0.40647356979709315,0.3960911838280631,-9.127664356816966,17.583670126423144,5.272531024325102,tremor
51,4038826,0.306,-0.8764881536667379,-0.40803696488698016,0.39755313518788676,-9.690429351516984,18.24857559239082,4.936574723796687,tremor
52,4038831,0.311,-0.8807731011578667,-0.40954683421559945,0.39891991920397984,-10.23638793874246,18.66689494331238,4.644268221304304,tremor
53,4038836,0.316,-0.884383674453859,-0.41099607997298443,0.4002061257563874,-10.768144530540617,18.83811581594429,4.4015983168262505,tremor
54,4038840,0.32,-0.8872954416528155,-0.4123786226574216,0.4014291681898817,-11.288936219244283,18.764115277479725,4.214299767975951,tremor
55,4038845,0.325,-0.8894899943675579,-0.41368936988375915,0.4026088049655327,-11.802553202946713,18.448983562113966,4.087806955259552,tremor
56,4038850,0.33,-0.8909549211442105,-0.4149241753779858,0.40376662147364173,-12.313251594422521,17.89883400802963,4.0272042352320865,tremor
57,4038855,0.335,-0.8916837512499157,-0.4160797896437596,0.40492547944213003,-12.825660073401028,17.121603090913403,4.03717548299535,tremor
58,4038860,0.34,-0.8916758717950501,-0.41715380383166917,0.4061089425535268,-13.344681989724155,16.126844511474847,4.121953494987132,tremor
59,4038865,0.345,-0.890936421305933,-0.41814458828194306,0.4073406879663381,-13.875394652917011,14.925521241463901,4.2852701091828616,tremor
60,4038892,0.372,-0.8894761626355234,-0.41905122705542247,0.4086439143876259,-14.422947653826842,13.529799271918817,4.530308091254863,tremor
61,4038897,0.377,-0.8873113374703405,-0.4198734495373281,0.4100407581255382,-14.992462149672676,11.952846539970139,4.859656011155269,tremor
62,4038902,0.382,-0.8844635037031509,-0.4206115599313778,0.41155172910422816,-15.588933083481125,10.208640138019144,5.275267458507124,tremor
63,4038906,0.386,-0.8809593557177245,-0.42126636521002614,0.4131951790599976,-16.217136269821946,8.311784441428753,5.778425971562001,tremor
64,4038911,0.391,-0.876830526364099,-0.4218391018986446,0.41498681396434833,-16.881542137403194,6.277342251067813,6.369716956059663,tremor
65,4038916,0.396,-0.8721133682888904,-0.42233136197124516,0.41693926208320387,-17.58623767837576,4.120680466610398,7.049007658769291,tremor
66,4038921,0.401,-0.8668487114817278,-0.422745018117175,0.4190617079797029,-18.33485783899221,1.8573312126664858,7.815435974460028,tremor
67,4038926,0.406,-0.8610815935039887,-0.423082148679642,0.4213596012337951,-19.130527226969157,-0.49713125185554374,8.667408544562813,tremor
68,4038931,0.411,-0.8548609589230197,-0.42334496264300764,0.4238344467395346,-19.97581263508087,-2.927198091120236,9.602608282085363,tremor
69,4038936,0.416,-0.848239324974635,-0.4235357251359178,0.42648368122237873,-20.87268651283298,-5.417518721587836,10.618011156482707,tremor
70,4038940,0.42,-0.8412724113595859,-0.42365668400717904,0.4293006381814208,-21.82250118020138,-7.952980222346622,11.709911817513351,tremor
71,4038950,0.43,-0.8340187332480542,-0.4237099981128391,0.4322746009048974,-22.82597328703533,-10.51877505191988,12.873957445430431,tremor
72,4038955,0.435,-0.826539157900628,-0.42369766802373127,0.435390940644367,-23.883177792735555,-13.100459085189124,14.105189089779218,tremor
73,4038960,0.44,-0.818896426687085,-0.423621469924446,0.4386313345957213,-24.993550583005632,-15.684002114534472,15.39808968919706,tremor
74,4038965,0.445,-0.8111546455734794,-0.42348289353102736,0.4419740561706753,-26.15589875593657,-18.255832922209773,16.74663793000257,tremor
75,4038969,0.449,-0.8033787482588344,-0.4232830849088825,0.44539432828288805,-27.36841759023181,-20.8028808402624,18.144367082291236,tremor
76,4038974,0.454,-0.795633937030797,-0.42302279512498325,0.448864729099054,-28.628713239290757,-23.312615401103205,19.584427933891348,tremor
77,4038980,0.46,-0.787985107087095,-0.4227023357163192,0.45235563893644376,-29.93383026145161,-25.773085280704738,21.059654916300452,tremor
78,4038984,0.464,-0.7804962605914783,-0.4223215419931508,0.4558357167012448,-31.280283186545205,-28.1729572746154,22.562634481374214,tremor
79,4038989,0.469,-0.7732299171745006,-0.4218797452114086,0.4592723944112444,-32.66409142041889,-30.501555544192538,24.085774750109675,tremor
80,4039016,0.496,-0.766246528025041,-0.42137575463126675,0.46263237887156183,-34.080816890803504,-32.74890084664425,25.621375429095504,tremor
81,4039021,0.501,-0.7596039011944561,-0.4208078504115684,0.4658821503955867,-35.525603929614086,-34.9057489525221,27.161696991294274,tremor
82,4039030,0.51,-0.7533566462368888,-0.4201737881484602,0.4689884494857617,-36.99322096153751,-36.96362702376623,28.699028156288104,tremor
83,4039035,0.515,-0.7475556467400784,-0.41947081562588867,0.4719187434990083,-38.47810362602661,-38.914866460006486,30.225750783347852,tremor
84,4039040,0.52,-0.7422475695105749,-0.4186957019974256,0.4746416664291933,-39.97439900723077,-40.75263067731509,31.73440140294248,tremor
85,4039045,0.525,-0.7374744190283392,-0.4178447791895972,0.4771274260081064,-41.47601069497567,-42.47093644931988,33.217728747139304,tremor
86,4039050,0.53,-0.7332731452097774,-0.41691399486189806,0.4793481733722131,-42.97664445429071,-44.06466774981229,34.66874678271882,tremor
87,4039055,0.535,-0.7296753115270478,-0.41589897583861835,0.48127833159514405,-44.46985433411679,-45.529581417545316,36.0807828884075,tremor
88,4039060,0.54,-0.7267068291964622,-0.4147951005877373,0.48289488045766943,-45.949089082970495,-46.86230436859907,37.44752093653008,tremor
89,4039064,0.544,-0.7243877615736406,-0.4135975790852806,0.48417759590216625,-47.40773874617216,-48.060322480431836,38.76303912998176,tremor
90,4039069,0.549,-0.7227322011922178,-0.412301538272817,0.4851092436598554,-48.83918128795356,-49.12196164307025,40.021842503224924,tremor
91,4039074,0.554,-0.7217482201674635,-0.41090211128049947,0.4856757274971685,-50.236829014121035,-50.04636179429068,41.21889002400659,tremor
92,4039079,0.559,-0.7214378930541318,-0.40939452862959674,0.4858661933518137,-51.59417447909707,-50.83344500354754,42.34961624276383,tremor
93,4039083,0.563,-0.721797389777453,-0.40777420972490624,0.48567309127617786,-52.90483546543648,-51.48387882378509,43.409947447426035,tremor
94,4039088,0.568,-0.7228171350025909,-0.4060368530774305,0.4850921975471764,-54.16259854732566,-51.99903617780952,44.39631230885756,tremor
95,4039093,0.573,-0.7244820293029102,-0.4041785238435227,0.4841225995326277,-55.361460711205396,-52.38095298171344,45.3056470540057,tremor
96,4039098,0.578,-0.726771726741863,-0.4021957374164081,0.4827666459522899,-56.49566851751814,-52.63228453766,46.13539527752965,tremor
97,4039103,0.583,-0.7296609629901545,-0.4000855379543786,0.4810298650968402,-57.55975434993504,-52.756261469950516,46.88350258980317,tremor
98,4039108,0.588,-0.7331199278364292,-0.3978455708780166,0.478920853448448,-58.54856940694373,-52.75664566014943,47.54840639048036,tremor
99,4039113,0.593,-0.7371146758806898,-0.3954741485213751,0.4764511370602008,-59.45731323425729,-52.63768629332363,48.12902114679338,tremor
100,4039139,0.619,-0.7416075692821649,-0.39297030828432494,0.4736350080638168,-60.28155976023546,-52.40407579246382,48.62471964411844,tremor
101,4039149,0.629,-0.7465577466199926,-0.39033386280544435,0.4704893388282412,-61.01727996213423,-52.060905126846386,49.035310764602045,tremor
102,4039154,0.634,-0.7519216121599671,-0.3875654418453831,0.467033376590888,-61.660861435663016,-51.61361777687304,49.36101443452004,tremor
103,4039159,0.639,-0.7576533400365304,-0.38466652571503535,0.46328852178522933,-62.209125239938885,-51.06796157509165,49.60243445206419,tremor
104,4039163,0.643,-0.7637053879915306,-0.3816394701748662,0.4592780937123577,-62.65934043033996,-50.42993775176047,49.76052995262856,tremor
105,4039168,0.648,-0.7700290153230461,-0.3784875227603682,0.45502708756403676,-63.00923667635947,-49.705746773948476,49.83658628218015,tremor
106,4039173,0.653,-0.7765747995932586,-0.37521483046403525,0.45056192703686926,-63.257015304683236,-48.90173092100675,49.83218602960688,tremor
107,4039178,0.658,-0.7832931464629976,-0.37182643864958476,0.44591021684285403,-63.40135902262105,-48.024313927016195,49.749180915261306,tremor
108,4039183,0.663,-0.7901347868220363,-0.36832828101493154,0.441100499296086,-63.44144047147781,-47.07993840381567,49.58966514463439,tremor
109,4039187,0.667,-0.7970512552370831,-0.36472716037906294,0.4361620188230998,-63.37692963779076,-46.07500211331781,49.35595071549655,tremor
110,4039192,0.672,-0.8039953437081987,-0.36103072006173204,0.43112449770237626,-63.208000015892914,-45.01579446800281,49.05054502054421,tremor
111,4039207,0.687,-0.810921524858035,-0.35724740566472324,0.426017925599513,-62.935333272693,-43.90843488846362,48.67613092565334,tremor
112,4039212,0.692,-0.8177863390081986,-0.35338641715389185,0.42087236455818644,-62.56012202526255,-42.7588148164102,48.23554933915826,tremor
113,4039216,0.696,-0.8245487401425855,-0.34945765128130035,0.41571777008379407,-62.08407022331372,-41.57254523557507,47.73178413610559,tremor
114,4039221,0.701,-0.8311703965278694,-0.3454716345713861,0.4105838278906993,-61.50939055612768,-40.35491144864632,47.167949178656876,tremor
115,4039226,0.706,-0.837615942747593,-0.3414394473162117,0.4054998048662626,-60.83879829255694,-39.11083657771637,46.54727708589238,tremor
116,4039231,0.711,-0.8438531810751075,-0.33737263927318367,0.4004944119279079,-60.07550101159193,-37.84485482841755,45.87310934596291,tremor
117,4039236,0.716,-0.8498532314105373,-0.33328313802455845,0.39559567579355065,-59.22318377631822,-36.56109504209498,45.148887318442085,tremor
118,4039262,0.742,-0.8555906303818844,-0.32918315123127967,0.3908308163088874,-58.28598943206511,-35.263274509787706,44.378143638970826,tremor
119,4039267,0.747,-0.8610433816010734,-0.32508506428017925,0.38622612590604277,-57.268493858671214,-33.954702482890646,43.56449351666934,tremor
120,4039272,0.752,-0.8661929603947759,-0.321001335059853,0.38180684800267645,-56.175676164117526,-32.6382923469912,42.71162541973206,tremor
121,4039276,0.756,-0.8710242774929301,-0.3169443877727379,0.37759705165257457,-55.01288395756476,-31.31658109449796,41.82329068838758,tremor
122,4039281,0.761,-0.875525607046101,-0.3129265077669702,0.3736195004649777,-53.7857939734109,-29.99175457330219,40.9032916992905,tremor
123,4039286,0.766,-0.8796884848809384,-0.3089597393378754,0.3698955146434192,-52.50036843186996,-28.665676982771195,39.95546832090783,tremor
124,4039291,0.771,-0.8835075830641144,-0.30505578831418884,0.3664448258826541,-51.16280761819865,-27.33992318898562,38.98368253023374,tremor
125,4039295,0.775,-0.8869805666383768,-0.30122593102955025,0.3632854257492583,-49.77949924405095,-26.015812604268685,37.99180119481139,tremor
126,4039300,0.78,-0.8901079378537583,-0.2974809310093681,0.3604334090230502,-48.35696522050854,-24.694443601047194,36.983677150609395,tremor
127,4039305,0.785,-0.8928928724015116,-0.29383096439985573,0.3579028142712872,-46.90180652195898,-23.376727684228026,35.9631288154886,tremor
128,4039310,0.79,-0.8953410511507943,-0.29028555485130386,0.3557054646476545,-45.420646851429304,-22.063422902839896,34.93391865980627,tremor
129,4039315,0.795,-0.8974604897867967,-0.2868535182602825,0.353850812531906,-43.92007582900079,-20.755166218332928,33.899730902564094,tremor
130,4039319,0.799,-0.899261367657131,-0.28354291749092153,0.3523457921262887,-42.406592412914144,-19.45250474983761,32.86414880996897,tremor
131,4039324,0.804,-0.9007558561495242,-0.2803610269455979,0.35119468446938656,-40.88654922595628,-18.15592597727265,31.830631946045685,tremor
132,4039329,0.809,-0.9019579461338411,-0.2773143066486103,0.35039899948179376,-39.36609839915374,-16.86588709329288,30.80249367157955,tremor
133,4039334,0.814,-0.902883273470636,-0.2744083853477365,0.3499573795859895,-37.85113946828363,-15.582843745479307,29.782879121794906,tremor
134,4039339,0.819,-0.9035489413570216,-0.27164805202975045,0.34986552911591223,-36.34726977923572,-14.307278392441116,28.774743828051147,tremor
135,4039344,0.824,-0.9039733383616976,-0.2690372551858885,0.35011617313829224,-34.85973778942594,-13.039728407052245,27.78083309444372,tremor
136,4039384,0.864,-0.9041759513792592,-0.26657910914779875,0.3506990484644751,-33.39339960347221,-11.78081389930801,26.80366220227299,tremor
137,4039388,0.868,-0.9041771733606778,-0.2642759068359716,0.35160092859476133,-31.952679054350913,-10.53126501379432,25.84549749595324,tremor
138,4039393,0.873,-0.9039981064628213,-0.2621291383086614,0.3528056832178837,-30.54153163018681,-9.291948212781705,24.908338403474353,tremor
139,4039398,0.878,-0.9036603620840384,-0.26013951455370626,0.3542943718415697,-29.163412538688437,-8.063890830382883,23.993900463250085,tremor
140,4039403,0.883,-0.9031858599994874,-0.25830699601291746,0.3560453702930649,-27.82124918295922,-6.848303016674771,23.10359946587932,tremor
141,4039408,0.888,-0.9025966294073404,-0.25663082535870607,0.3580345282456868,-26.517418289702622,-5.646596098572854,22.238536868787687,tremor
142,4039413,0.893,-0.9019146151195923,-0.25510956405109947,0.36023535554649483,-25.253727890201592,-4.460396356756378,21.399486695092097,tremor
143,4039417,0.897,-0.9011614923712447,-0.2537411321893695,0.36261923485245207,-24.031404317053497,-3.291553237881949,20.58688417703731,tremor
144,4039422,0.902,-0.9003584937685235,-0.25252285113714035,0.3651556578604186,-22.85108435426277,-2.1421410797299782,19.80081644522199,tremor
145,4039427,0.907,-0.8995262517368783,-0.2514514883464467,0.3678124822121903,-21.71281266880345,-1.014453527464521,19.041015598847846,tremor
146,4039432,0.912,-0.8986846594542389,-0.2505233037413527,0.37055620597749694,-20.616044658021444,0.08901002762783454,18.30685452289762,tremor
147,4039437,0.917,-0.8978527526668374,-0.2497340969553438,0.37335225649816034,-19.55965486584843,1.1655664435496207,17.597345847503817,tremor
148,4039441,0.921,-0.8970486140015675,-0.24907925466149358,0.37616529035968554,-18.541951144940487,2.2123794487731403,16.91114447090643,tremor
149,4039446,0.926,-0.8962893004460752,-0.24855379720459095,0.3789595013831522,-17.560694761782838,3.2264987784151864,16.246554083777678,tremor
150,4039451,0.931,-0.8955907936197111,-0.2481524237537516,0.3816989338230124,-16.613126645435575,4.204907392307716,15.601538128871361,tremor
151,4039456,0.936,-0.8949679713761303,-0.2478695552536005,0.3843477984072075,-15.695999953923407,5.144576013705851,14.973735593621967,tremor
152,4039461,0.941,-0.8944345982462559,-0.24769937456787472,0.38687078941883574,-14.805619061740613,6.042523904210642,14.360481953825646,tremor
153,4039466,0.946,-0.8940033313389759,-0.24763586337978183,0.3892334016113624,-13.937884949071984,6.895884480745667,13.75883545935809,tremor
154,4039471,0.951,-0.8936857376477526,-0.24767283562876172,0.39140224626596404,-13.088346798220766,7.701974089101278,13.165608782951704,tremor
155,4039476,0.956,-0.8934923183202265,-0.24780396750660438,0.39334536602740233,-12.252259384420693,8.458361977602516,12.577405854743096,tremor
156,4039481,0.961,-0.8934325353572712,-0.24802282428657935,0.39503254819165623,-11.424645602822498,9.162939267052082,11.990663498748935,tremor
157,4039506,0.986,-0.8935148364078149,-0.24832288449575396,0.3964356357873621,-10.600363222072302,9.81398450079722,11.401697292715179,tremor
158,4039511,0.991,-0.8937466737754886,-0.2486975621412456,0.3975288350615788,-9.774174723864395,10.410223214031666,10.80675090496675,tremor
159,4039516,0.996,-0.8941345143814914,-0.24914022784389678,0.3982890168924493,-8.940818910429758,10.950878948901101,10.202048029097156,tremor
160,4039521,1.001,-0.8946838381443301,-0.24964422979958406,0.3986960083494845,-8.095082871196137,11.435713336100985,9.583845940864187,tremor
161,4039525,1.005,-0.8953991229642139,-0.2502029154729721,0.39873286932026075,-7.231872909284003,11.86505328723585,8.948489636896905,tremor
162,4039530,1.01,-0.8962838152077108,-0.25080965484230516,0.3983861480334078,-6.346283120711895,12.239803933820113,8.292465475525225,tremor
163,4039535,1.015,-0.8973402852957341,-0.25145786588039465,0.3976461085857967,-5.433660459518934,12.561446606751788,7.612453225062923,tremor
164,4039540,1.02,-0.8985697687458293,-0.2521410428010569,0.3965069233093118,-4.489665280373035,12.832021795757399,6.905375440281828,tremor
165,4039545,1.025,-0.8999722938418305,-0.2528527874399017,0.3949668230130293,-3.5103265092896714,13.054097623348705,6.168443141455755,tremor
166,4039550,1.03,-0.9015465980110547,-0.2535868439825441,0.3930281987864652,-2.4920907449921237,13.230724898933165,5.399196865099402,tremor
167,4039555,1.035,-0.9032900359625413,-0.25433713710181133,0.39069765008745033,-1.4318647360244325,13.365380283548497,4.595542287372052,tremor
168,4039560,1.04,-0.9051984836280702,-0.2550978134096783,0.38798597517615213,-0.32705081376121314,13.461899493319201,3.75577978163613,tremor
169,4039565,1.045,-0.9072662428668566,-0.2558632859575173,0.3849081014945405,0.8244250065165175,13.524402792267548,2.8786274515976493,tremor
170,4039570,1.05,-0.9094859526365132,-0.25662828132393906,0.38148295523224496,2.024092409454745,13.557215254706605,1.963237373113619,tremor
171,4039574,1.054,-0.9118485127852352,-0.2573878886184819,0.37773327098786136,3.2729236584504102,13.564784391364174,1.0092049750571748,tremor
172,4039579,1.059,-0.9143430266944583,-0.2581376095143803,0.37368534407632265,4.571327826078894,13.551597716434024,0.01657168631442599,tremor
173,4039584,1.064,-0.9169567686497597,-0.2588734082189322,0.36936872961505,5.919152070288586,13.522102690732941,-1.01417883598949,tremor
174,4039589,1.069,-0.9196751810394003,-0.25959176011127433,0.36481589402071407,7.315689485530982,13.48063123783157,-2.082130412050368,tremor
175,4039594,1.074,-0.9224819053196128,-0.26028969764376203,0.36006182593932856,8.759692901839658,13.43133073338858,-3.1859493512805317,tremor
176,4039599,1.079,-0.925358849229192,-0.2609648520357816,0.35514361488190943,10.249393872841203,13.37810304345448,-4.323904036120632,tremor
177,4039604,1.084,-0.9282862910965041,-0.2616154893056972,0.35010000690376797,11.782526002118503,13.324552852188116,-5.493888279254747,tremor
178,4039630,1.11,-0.9312430203863369,-0.26224053929665175,0.3449709474946616,13.356351719939715,13.273946179724794,-6.693447641500217,tremor
179,4039635,1.115,-0.9342065120179271,-0.2628396165509453,0.3397971223640241,14.9676916474976,13.229179645400874,-7.919807936533949,tremor
180,4039640,1.12,-0.9371531305971441,-0.2634130321564835,0.334619506895146,16.612955774739095,13.192760671294781,-9.169905233180453,tremor
181,4039645,1.125,-0.9400583596857756,-0.2639617959953105,0.32947893456646904,18.28817582132582,13.166798438162848,-10.440416775726558,tremor
182,4039650,1.13,-0.9428970506558533,-0.2644876091336383,0.3244156935145035,19.9890383257161,13.153005010536017,-11.72779235316604,tremor
183,4039655,1.135,-0.9456436855143493,-0.26499284638012505,0.31946915869130754,21.710918184802686,13.152705674219627,-13.02828574496326,tremor
184,4039659,1.139,-0.9482726482138019,-0.2654805292942861,0.31467746492173343,23.44891252177554,13.166857219086816,-14.337985954221509,tremor
185,4039664,1.144,-0.9507584992503417,-0.2659542901497084,0.3100772238043809,25.197874882152032,13.196072680108944,-15.652848016904363,tremor
186,4039679,1.159,-0.9530762486899083,-0.26641832755023337,0.30570328501610217,26.952449846157673,13.240650927571403,-16.968723254264763,tremor
187,4039684,1.164,-0.9552016231051044,-0.26687735456362593,0.30158854033376287,28.707108201575167,13.30060947062002,-18.2813889158119,tremor
188,4039689,1.169,-0.957111322248758,-0.2673365403754543,0.29776376672774074,30.456182846606612,13.37571890458798,-19.586577236890626,tremor
189,4039693,1.173,-0.9587832616756291,-0.26780144657136196,0.2942575033480935,32.193905589692605,13.465537589656519,-20.880003998199317,tremor
190,4039698,1.178,-0.9601967980037238,-0.26827795922257824,0.29109595621397366,33.91444498659982,13.569445381973356,-22.157396713646563,tremor
191,4039703,1.183,-0.9613329341144358,-0.26877221797329,0.28830292395334,35.611945309209275,13.68667551864867,-23.414522581615714,tremor
192,4039708,1.188,-0.9621745023235729,-0.2692905433084758,0.2858997379780181,37.28056667903397,13.816344053212076,-24.647216312582543,tremor
193,4039712,1.192,-0.9627063243798153,-0.26983936311817636,0.2839052109395723,38.91452632341798,13.95747652632859,-25.85140789664648,tremor
194,4039718,1.198,-0.9629153480103677,-0.27042513957116776,0.282335588110881,40.508140824331626,14.109031824102575,-27.023150303287757,tremor
195,4039722,1.202,-0.962790760569812,-0.27105429717096846,0.28120449740029235,42.055869129194484,14.269923410670446,-28.158647018663636,tremor
196,4039727,1.207,-0.9623240810827397,-0.27173315269523735,0.28052289496265154,43.5523559812579,14.439038310101697,-29.254279228578756,tremor
197,4039753,1.233,-0.9615092325265031,-0.2724678475240098,0.28029900476670105,44.992475306319356,14.615254343923443,-30.306632351930975,tremor
198,4039757,1.237,-0.9603425965104323,-0.2732642826563079,0.28053825195745175,46.371372969305284,14.797456198782134,-31.312521524906902,tremor
199,4039762,1.242,-0.9588230525314497,-0.27412805652081945,0.2812431913499709,47.684508201967645,14.984550905403752,-32.269015542822196,tremor
200,4039767,1.247,-0.9569520037233133,-0.27506440553458084,0.2824134338191306,48.92769292084337,15.175483266677022,-33.17345870529189,tremor
201,4039772,1.252,-0.9547333905175144,-0.27607814728015995,0.28404557460601737,50.0971281187182,15.36925169995982,-34.023489999568035,tremor
202,4039777,1.257,-0.952173692991054,-0.2771736261654818,0.28613312855640455,51.18943652766215,15.564924876706355,-34.81705909853061,tremor
203,4039782,1.262,-0.9492819220000175,-0.27835466149049076,0.28866647797937506,52.20169081213921,15.761659457494108,-35.55243873163795,tremor
204,4039786,1.266,-0.9460695985850434,-0.2796244979506482,0.2916328391300695,53.13143664829324,15.958719121972615,-36.22823309466975,tremor
205,4039792,1.272,-0.9425507206528526,-0.2809857587376187,0.2950162532627443,53.976710171461406,16.15549496386394,-36.8433820879197,tremor
206,4039796,1.276,-0.938741715623257,-0.28244040153451344,0.2987976077694581,54.73604941988014,16.351527147079526,-37.39716130682945,tremor
207,4039801,1.281,-0.93466137759239,-0.28398967783324125,0.3029546921390906,55.408499561517836,16.54652749332686,-37.88917784844982,tremor
208,4039811,1.291,-0.9303307875846828,-0.28563409611621265,0.3074622923902432,55.993611857949574,16.740402395294126,-38.319362134806255,tremor
209,4039816,1.296,-0.925773215610876,-0.28737338953977026,0.3122923263215467,56.491436490075436,16.933275134187888,-38.68795608148897,tremor
210,4039820,1.3,-0.9210140034617724,-0.28920648883183125,0.3174140204712525,56.90250954025653,17.125506350233838,-38.99549804614328,tremor
211,4039825,1.305,-0.916080427382576,-0.2911315011732896,0.32279412817974085,57.227834586910745,17.31771110457619,-39.24280506723021,tremor
212,4039830,1.31,-0.9110015399300008,-0.2931456958748594,0.3283971866959598,57.46885951232114,17.510770720309967,-39.43095294311785,tremor
213,4039835,1.315,-0.9058079903727503,-0.2952454976913231,0.3341858099401411,57.627449244394526,17.70583743782178,-39.56125470633364,tremor
214,4039844,1.324,-0.9005318229416237,-0.297426488635611,0.34012101238909304,57.70585524097559,17.904329902056165,-39.635238023704744,tremor
215,4039849,1.329,-0.8952062520840084,-0.29968341916617786,0.346162558625002,57.70668257250357,18.107917654334464,-39.6546220083124,tremor
216,4039877,1.357,-0.8898654136803301,-0.3020102296207501,0.3522693324025978,57.632855454617236,18.318493166338474,-39.621293873060935,tremor
217,4039882,1.362,-0.8845440910429485,-0.3044000827509846,0.3583997186458696,57.48758201945448,18.538130548436726,-39.53728580150854,tremor
218,4039886,1.366,-0.8792774146186827,-0.30684540816041167,0.364511991577009,57.27431900163145,18.769030856769774,-39.40475237847022,tremor
219,4039891,1.371,-0.874100534875767,-0.3093379593367442,0.3705647021909292,56.99673688314869,19.0134548169459,-39.22594892594634,tremor
220,4039896,1.376,-0.869048269038374,-0.3118688837711583,0.3765170584914438,56.65868592972978,19.273644654444528,-39.00321112258789,tremor
221,4039901,1.381,-0.8641547241400763,-0.31442880635251913,0.3823292922611701,56.264163483370574,19.55173748267543,-38.73893631726243,tremor
222,4039911,1.391,-0.8594529011352411,-0.317007925809483,0.3879630066032004,55.81728285130038,19.849673310837215,-38.435566948422974,tremor
223,4039916,1.396,-0.8549742872646847,-0.31959612345684,0.39338149903394676,55.32224413014971,20.169101182786658,-38.09557643818885,tremor
224,4039921,1.401,-0.8507484461977789,-0.32218308290584785,0.3985500555086197,54.78330729687859,20.5112872249857,-37.721457845668546,tremor
225,4039925,1.405,-0.8468026173260421,-0.324758418757587,0.40343621143212943,54.20476785721814,20.87702843310039,-37.31571544351649,tremor
226,4039930,1.41,-0.8431613366671594,-0.32731181166236345,0.40800997647406484,53.59093525264435,21.26657584128066,-36.88085922957275,tremor
227,4039935,1.415,-0.8398460919857126,-0.329833146551537,0.41224402089596346,52.946114091065674,21.679570308598933,-36.41940220928755,tremor
228,4039940,1.42,-0.8368750239337874,-0.33231265038395114,0.4161138221331542,52.27458810121338,22.114993568418075,-35.933860099034845,tremor
229,4039945,1.425,-0.8342626833619264,-0.33474102544509127,0.4195977715551715,51.58060653799472,22.571136477436795,-35.426752925749575,tremor
230,4039950,1.43,-0.8320198526185352,-0.3371095741337821,0.422677242634749,50.86837260681337,23.04558563185349,-34.90060785521863,tremor
231,4039955,1.435,-0.8301534358607854,-0.33941031129845384,0.4253366231287546,50.142033347029084,23.535228742986174,-34.357962485574156,tremor
232,4039960,1.44,-0.8286664203920402,-0.3416360605546381,0.42756331522426233,49.405670332169926,24.036278428337212,-33.8013678040732,tremor
233,4039964,1.444,-0.8275579080770862,-0.3437805316154931,0.4293477088129385,48.66329051608965,24.544313409231997,-33.23339003019624,tremor
234,4039969,1.449,-0.8268232131994002,-0.345838376463421,0.4306831339986814,47.91881658353037,25.054335532454882,-32.65661065878031,tremor
235,4039974,1.454,-0.8264540208983131,-0.34780522313388434,0.43156579949080426,47.17607625014889,25.56084055501571,-32.07362416940726,tremor
236,4040001,1.481,-0.8264385986843774,-0.34967768691460566,0.4319947235778657,46.438790098867294,26.057900236743304,-31.48703307049044,tremor
237,4040015,1.495,-0.8267620525400593,-0.3514533598166601,0.43197166383814106,45.71055773091126,26.53925295795045,-30.89944017571563,tremor
238,4040020,1.5,-0.8274066187500883,-0.35313078016134397,0.4315010506052751,44.994842234431886,26.99839982422692,-30.313438229356937,tremor
239,4040025,1.505,-0.8283519827510099,-0.3547093849437004,0.4305899275565055,44.29495319756676,27.42870308664839,-29.731597161249294,tremor
240,4040030,1.51,-0.8295756167388112,-0.35618944819144405,0.42924790082769576,43.61402867560543,27.823483761381844,-29.1564493379403,tremor
241,4040034,1.514,-0.8310531283137949,-0.3575720088056471,0.4274870960520208,42.95501663830054,28.176115603539763,-28.590473199426107,tremor
242,4040044,1.524,-0.83275861293755,-0.3588587913798434,0.42532212090818,42.3206564743217,28.480113032519323,-28.036075670220328,tremor
243,4040049,1.529,-0.8346650034046593,-0.36005212331192077,0.42277002930535434,41.71346113161824,28.72921114275504,-27.495573741241557,tremor
244,4040054,1.534,-0.8367444099576654,-0.3611548512115908,0.41985028230368604,41.13570044058084,28.91743650104039,-26.97117564574236,tremor
245,4040059,1.539,-0.8389684452055841,-0.3621702592142644,0.41658470030088385,40.589386111709906,29.03916799195271,-26.464962090876472,tremor
246,4040064,1.544,-0.8413085287431284,-0.36310199137444127,0.41299740090337783,40.07625882913491,29.08918750498307,-25.97886803932414,tremor
247,4040069,1.549,-0.8437361673610354,-0.36395397985128525,0.40911471720546166,39.59777778319346,29.062720744991978,-25.514665545400316,tremor
248,4040074,1.554,-0.8462232079761118,-0.36473038013062287,0.404965091854067,39.155112904972704,28.95546887747329,-25.073948128210866,tremor
249,4040078,1.558,-0.8487420618250563,-0.36543551406120217,0.40057894319770726,38.74913998597665,28.763632078343402,-24.658117111497162,tremor
250,4040083,1.563,-0.8512658999476258,-0.36607382102713987,0.3959885009235254,38.38043878664864,28.4839263316622,-24.268370282142257,tremor
251,4040088,1.568,-0.8537688213944246,-0.3666498171417648,0.3912276098049941,38.04929415534599,28.113594995886867,-23.90569312353057,tremor
252,4040093,1.573,-0.8562259967889356,-0.3671680619403382,0.3863315014619703,37.755700089601255,27.65041673008612,-23.57085276987033,tremor
253,4040098,1.578,-0.8586137907226635,-0.36763313168199924,0.3813365353450788,37.49936656914978,27.09271132920009,-23.26439470352886,tremor
254,4040123,1.603,-0.8609098668652048,-0.368049598059314,0.37627991149012163,37.27972887323968,26.439344859527303,-22.986642078823333,tremor
255,4040128,1.608,-0.8630932795711468,-0.3684220108774682,0.3711993589449208,37.095958969205505,25.689735220306314,-22.737697409165996,tremor
256,4040133,1.613,-0.8651445551746678,-0.3687548831344988,0.36613280512623936,36.94697844527069,24.843858913639174,-22.51744622339006,tremor
257,4040138,1.618,-0.867045765180221,-0.3690526769436567,0.3611180326403435,36.83147238872342,23.90225943257659,-22.325562217328653,tremor
258,4040143,1.623,-0.8687805923615011,-0.36931978890838063,0.35619233117194826,36.74790360363275,22.86605732407112,-22.16151342292519,tremor
259,4040147,1.627,-0.8703343895816977,-0.36956053387417714,0.35139215278182717,36.694526619164684,21.73696167271593,-22.024568984355195,tremor
260,4040152,1.632,-0.8716942301345538,-0.3697791263932189,0.3467527792562624,36.66940104210076,20.517282479816224,-21.91380624259663,tremor
261,4040157,1.637,-0.8728489477062303,-0.3699796596895918,0.3423080099703728,36.670403936782634,19.209943168483605,-21.82811795887963,tremor
262,4040162,1.642,-0.8737891637265425,-0.3701660823556702,0.33808987805225654,36.69524106032859,17.818492222302595,-21.766219632373804,tremor
263,4040167,1.647,-0.8745072999029583,-0.37034217340482695,0.3341284014937114,36.74145693161918,16.347112765904527,-21.726656971694915,tremor
264,4040171,1.651,-0.8749975740546221,-0.37051151662524684,0.33045137430923766,36.80644385957471,14.800628733555417,-21.707813650446358,tremor
265,4040176,1.656,-0.8752559779044221,-0.3706774754060986,0.32708420099149765,36.88745018870815,13.184506166172346,-21.707919508045478,tremor
266,4040186,1.666,-0.8752802361526953,-0.3708431693310695,0.3240497754650254,36.98158812731965,11.504848148083196,-21.725059351580544,tremor
267,4040191,1.671,-0.8750697468546969,-0.37101145385281564,0.32136840363720576,37.08584159780044,9.768381957627536,-21.757182482600832,tremor
268,4040196,1.676,-0.8746255037720189,-0.37118490427899453,0.3190577666447353,37.19707458362146,7.982437169115487,-21.802113027904696,tremor
269,4040200,1.68,-0.8739500019036389,-0.3713658051261205,0.3171329201673571,37.312040440534425,6.154913708484851,-21.85756110885535,tremor
270,4040205,1.685,-0.8730471278028246,-0.37155614564812517,0.3156063238811075,37.42739259195848,4.294239220010415,-21.921134850182295,tremor
271,4040210,1.69,-0.8719220365771481,-0.3717576220449595,0.3144878943418524,37.539696948725414,2.4093155234445844,-21.990353212142363,tremor
272,4040215,1.695,-0.8705810177088299,-0.37197164652836084,0.31378507434518554,37.64544629390931,0.5094544038139861,-22.06265962842505,tremor
273,4040220,1.7,-0.8690313520876468,-0.3721993630909235,0.3135029120673007,37.74107676682134,-1.3956965405143715,-22.135436439944648,tremor
274,4040247,1.727,-0.8672811629723802,-0.37244166951013374,0.31364414398996376,37.822986475753716,-3.2962367787090967,-22.206020122635046,tremor
275,4040252,1.732,-0.8653392640103091,-0.3726992448354808,0.3142092766636377,37.88755617214868,-5.18210278295615,-22.27171730657414,tremor
276,4040257,1.737,-0.8632150079075194,-0.37297258136503353,0.3151966636491193,37.93117183156343,-7.0431629681459125,-22.32982156682369,tremor
277,4040261,1.741,-0.8609181397437641,-0.3732620199264503,0.31660257535885156,37.950248908955686,-8.869315371926671,-22.377630929301162,tremor
278,4040266,1.746,-0.8584586591220477,-0.3735677871413221,0.31842126086142886,37.94125796673923,-10.650585801417636,-22.412465980261885,tremor
279,4040271,1.751,-0.8558466952340925,-0.373890033271875,0.320645001927911,37.90075131425941,-12.377224335496242,-22.43168840547637,tremor
280,4040276,1.756,-0.8530923984852224,-0.3742288692239983,0.3232641606467595,37.825390249628114,-14.039798333015115,-22.43271972891137,tremor
281,4040281,1.761,-0.8502058515957809,-0.374584401309912,0.32626722280091525,37.71197246364026,-15.629280392886587,-22.413059983917737,tremor
282,4040291,1.771,-0.8471970021561661,-0.3749567624584105,0.32964083987336,37.55745915473488,-17.137130002980197,-22.370306042460292,tremor
283,4040295,1.775,-0.8440756175545718,-0.3753461387002971,0.33336987300703413,37.35900141627911,-18.555367880304455,-22.302169355254048,tremor
284,4040300,1.78,-0.8408512621295562,-0.3757527899478352,0.3374374424627597,37.11396549456375,-19.876642237241654,-22.20649291792871,tremor
285,4040310,1.79,-0.8375332954344299,-0.37617706432208625,0.3418249860624678,36.819956577362845,-21.094286412331126,-22.081267368914062,tremor
286,4040315,1.795,-0.8341308897296723,-0.37661940554834433,0.34651232975433893,36.47484085269904,-22.20236749085489,-21.924646228534385,tremor
287,4040320,1.8,-0.830653064296558,-0.3770803532197944,0.3514777728024706,36.07676566353172,-23.195725720197206,-21.73496038281221,tremor
288,4040324,1.804,-0.8271087338950569,-0.37756053600196965,0.35669818923610247,35.62417766335292,-24.070004700466875,-21.51073197539829,tremor
289,4040329,1.809,-0.823506768632598,-0.3780606580960284,0.36214914617270805,35.11583894103315,-24.821672498322144,-21.250687881994335,tremor
290,4040334,1.814,-0.819856062595829,-0.3785814794844319,0.3678050385513188,34.55084112628203,-25.44803398437472,-20.953772903912927,tremor
291,4040339,1.819,-0.8161656087388631,-0.37912379064359936,0.3736392387741359,33.92861750816217,-25.947234824846145,-20.619162742011767,tremor
292,4040344,1.824,-0.8124445776371758,-0.37968838252611153,0.37962425884341316,33.24895319761473,-26.31825765938762,-20.24627671242874,tremor
293,4040369,1.849,-0.8087023977442721,-0.3802760126954811,0.3857319218697929,32.511993340178044,-26.560911061691826,-19.834790053024875,tremor
294,4040374,1.854,-0.8049488346989057,-0.3808873685479301,0.3919335393761772,31.71824933669673,-26.67581189933974,-19.38464555607573,tremor
295,4040379,1.859,-0.8011940670425246,-0.38152302858953235,0.39820009067309864,30.868602961096215,-26.664361675494273,-18.89606416341951,tremor
296,4040384,1.864,-0.7974487554922876,-0.38218342276595735,0.40450240076092936,29.964308185033847,-26.528717343721368,-18.369554090459676,tremor
297,4040389,1.869,-0.7937241027753685,-0.3828687928738177,0.41081131370071355,29.006990444335287,-26.271756949703928,-17.805918012590944,tremor
298,4040393,1.873,-0.7900319010460743,-0.38357915411571863,0.41709785911240704,27.998643025998785,-25.897040299365717,-17.20625784645601,tremor
299,4040398,1.878,-0.7863845641084781,-0.3843142588851542,0.4233334102946625,26.94162022618479,-25.408764717195805,-16.571976677462377,tremor
300,4040403,1.883,-0.782795142039552,-0.3850735638684589,0.4294898333035424,25.838626931870138,-24.81171586763398,-15.904777416207029,tremor
301,4040408,1.888,-0.7792773163143245,-0.38585620151655814,0.4355396270931274,24.692704311092843,-24.111213580534585,-15.206657808145366,tremor
302,4040413,1.893,-0.7758453741303374,-0.3866609568605513,0.4414560554507431,23.50721135753943,-23.313052656754728,-14.479901475378242,tremor
303,4040417,1.897,-0.7725141612665916,-0.38748625051825647,0.44721327191673166,22.285802123651994,-22.423438736952765,-13.727064741189542,tremor
304,4040422,1.902,-0.7692990134478397,-0.3883301285648771,0.45278643914230154,21.032398591750383,-21.44891949765255,-12.95095908151302,tremor
305,4040432,1.912,-0.7662156667808202,-0.3891902597261238,0.45815184419918514,19.751159273468883,-20.396311690878612,-12.154629165684797,tremor
306,4040437,1.917,-0.7632801483560262,-0.39006394010790274,0.46328701120954735,18.44644379046791,-19.27262485940592,-11.341326591215076,tremor
307,4040442,1.922,-0.7605086485468274,-0.39094810542043135,0.4681708123183882,17.122773866569837,-18.084982922966383,-10.514479578536005,tremor
308,4040447,1.927,-0.7579173768757391,-0.3918393504088559,0.4727835774974332,15.784791342034737,-16.840545212613417,-9.677659060166656,tremor
309,4040456,1.936,-0.7555224035540951,-0.39273395499041197,0.47710720297720827,14.437213991680311,-15.54642888768148,-8.83454175836563,tremor
310,4040461,1.941,-0.7533394889462908,-0.39362791643835776,0.4811252572977005,13.084790077263227,-14.209634948604178,-7.988870981147661,tremor
311,4040467,1.947,-0.7513839032812107,-0.39451698685675873,0.4848230831101124,11.732252678450447,-12.83698020154989,-7.1444159704100425,tremor
312,4040492,1.972,-0.7496702389541349,-0.3953967151628555,0.48818789203179985,10.384274913556853,-11.435037489156581,-6.304930707619835,tremor
313,4040502,1.982,-0.7482122177643833,-0.39626249283316195,0.49120884914970875,9.04542717057267,-10.010086251531918,-5.474113125431624,tremor
314,4040507,1.987,-0.7470224954709915,-0.3971096027629696,0.4938771432985465,7.720137412093521,-8.568075025279512,-4.655565687745967,tremor
315,4040512,1.992,-0.7461124661959806,-0.39793327071233137,0.49618603912526066,6.412655489670056,-7.114596853266365,-3.852758278476457,tremor
316,4040521,2.001,-0.7454920695271795,-0.39872871893366174,0.4981309072625501,5.127022212798733,-5.654877828598284,-3.068994270109602,tremor
317,4040526,2.006,-0.7451696036797085,-0.3994912216660118,0.499709229646529,3.8670436930195344,-4.193778232394671,-2.3073805237000964,tremor
318,4040536,2.016,-0.745151548702038,-0.4002161622132998,0.5009205780084348,2.636271257026186,-2.7358050467787782,-1.570801909993551,tremor
319,4040541,2.021,-0.7454424043360846,-0.40089909128041024,0.501766564689328,1.4379870134474921,-1.285134098214802,-0.8619007507951465,tremor
320,4040546,2.026,-0.7460445476145672,-0.4015357861154407,0.5022507660318161,0.27519496762509293,0.15436026140760065,-0.18306137548834314,tremor
321,4040551,2.031,-0.746958115467819,-0.40212230980686703,0.502378619606205,-0.8493826000468029,1.5790701980525799,0.4636002164716215,tremor
322,4040556,2.036,-0.7481809174223606,-0.40265506983534227,0.5021572973973132,-1.9333039496933704,2.9856164335206135,1.0762417902865238,tremor
323,4040565,2.045,-0.7497083828681864,-0.4031308747185068,0.5015955578229727,-2.974402514281606,4.3708094245474935,1.653295789728262,tremor
324,4040570,2.05,-0.751533546371621,-0.4035469873571404,0.5007035801088826,-3.9707781185641418,5.73161160947078,2.1934662709618737,tremor
325,4040575,2.055,-0.7536470731855008,-0.40390117353279426,0.49949278513812656,-4.920785666247075,7.065102366542819,2.6957225259665814,tremor
326,4040580,2.06,-0.7560373255687396,-0.4041917439504909,0.49797564743713385,-5.8230222344951015,8.368447007236979,3.159290149271234,tremor
327,4040585,2.065,-0.7586904689111146,-0.4044175882809119,0.496165503432764,-6.6763135037305945,9.638870784618572,3.5836403256678477,tremor
328,4040589,2.069,-0.7615906151103204,-0.4045781998358236,0.4940763614692439,-7.479700365756114,10.873638544025106,3.9684780711586387,tremor
329,4040616,2.096,-0.7647199992965487,-0.4046736897960642,0.49172271923983324,-8.23242639907287,12.070040292614108,4.313730044892117,tremor
330,4040621,2.101,-0.7680591849514944,-0.4047047902801841,0.4891193941799598,-8.93392669112539,13.225382624804052,4.619532380050789,tremor
331,4040631,2.111,-0.7715872918032873,-0.40467284596161235,0.486281371885627,-9.583818249349921,14.336985623510257,4.886218787996447,tremor
332,4040636,2.116,-0.7752822406315938,-0.4045797943743136,0.4832236766788408,-10.181892012046804,15.402184586321198,5.114309015362792,tremor
333,4040645,2.125,-0.7791210092475548,-0.4044281354540514,0.4799612670404786,-10.728106279609687,16.418335737504805,5.304497611099882,tremor
334,4040650,2.13,-0.7830798942989265,-0.40422089121823557,0.4765089569043545,-11.22258125579226,17.38282501059444,5.457642894776228,tremor
335,4040655,2.135,-0.7871347740372407,-0.40396155677841683,0.4728813619906624,-11.66559432034583,18.293079025977875,5.574755991838289,tremor
336,4040659,2.139,-0.7912613676571281,-0.403654044100262,0.46909286870020744,-12.057575639494923,19.14657751998363,5.656989796137397,tremor
337,4040664,2.144,-0.7954354872399472,-0.40330262007481027,0.4651576217736091,-12.3991037435927,19.940866670470704,5.7056277224471215,tremor
338,4040669,2.149,-0.799633278726092,-0.4029118405439446,0.4610895260282161,-12.690900745019265,20.67357297609291,5.722072116980815,tremor
339,4040674,2.154,-0.8038314487490246,-0.4024864819370335,0.4569022570283617,-12.933826922168853,21.34241756036127,5.70783220275179,tremor
340,4040679,2.159,-0.8080074746341094,-0.40203147213010787,0.452609275487428,-13.128874454398273,21.945230975724044,5.664511453691658,tremor
341,4040688,2.168,-0.8121397954258106,-0.40155182203900663,0.4482238404929645,-13.277160163354306,22.47996877008636,5.593794322830271,tremor
342,4040693,2.173,-0.8162079824604536,-0.40105255930948025,0.4437590172360031,-13.379917206446057,22.944728238814125,5.497432299806506,tremor
343,4040698,2.178,-0.8201928887167271,-0.4005386652785821,0.4392276757636004,-13.438485782606769,23.337766900906452,5.377229342021985,tremor
344,4040703,2.183,-0.8240767768863737,-0.40001501616542817,0.43464247831835096,-13.454303044205798,23.657523283245926,5.2350268088144,tremor
345,4040707,2.187,-0.8278434267266203,-0.3994863292231248,0.43001585404698495,-13.428892549194819,23.902640552504295,5.072688123641135,tremor
346,4040712,2.192,-0.8314782226988134,-0.39895711436797054,0.42535996122161374,-13.363853717973129,24.07199340062313,4.892083487781089,tremor
347,4040738,2.218,-0.8349682231015794,-0.39843163161601347,0.42068663858246774,-13.26085186307802,24.16471838393119,4.695075059495407,tremor
348,4040743,2.223,-0.838302211851585,-0.39791385451195693,0.4160073489046399,-13.121609415992122,24.180247658034947,4.483503077513889,tremor
349,4040748,2.228,-0.8414707337947723,-0.3974074396288672,0.41133311925785354,-12.947898955784996,24.118345754398494,4.259173421228454,tremor
350,4040753,2.233,-0.8444661140549679,-0.3969157021325676,0.4066744834253314,-12.741538523748345,23.97914871900758,4.02384703754314,tremor
351,4040758,2.238,-0.8472824615790259,-0.3964415973198781,0.40204143233485407,-12.504389490326107,23.763204590330698,3.7792315249900503,tremor
352,4040763,2.243,-0.84991565681847,-0.3959877079406847,0.39744337801973195,-12.238356967571894,23.471513852450556,3.5269749816450693,tremor
353,4040768,2.248,-0.8523633234346385,-0.39555623700090947,0.39288913562766964,-11.945392487911631,23.10556818645721,3.268662040626933,tremor
354,4040773,2.253,-0.8546247840127279,-0.3951490056297165,0.3883869264993547,-11.627498437807553,22.667385589979045,3.0058118691844222,tremor
355,4040778,2.258,-0.8567009999753575,-0.39476745549768166,0.3839444035464061,-11.286733560348841,22.159539774407442,2.739877807417995,tremor
356,4040782,2.262,-0.8585944961419646,-0.3944126552102577,0.3795686982608488,-10.925218727949177,21.58518171263576,2.472248268637674,tremor
357,4040787,2.267,-0.8603092706313197,-0.39408531008527364,0.37526648685178915,-10.545142133211954,20.948051314804225,2.204248506198897,tremor
358,4040792,2.272,-0.8618506910071675,-0.3937857747603637,0.37104407136688183,-10.148763047823067,20.252477452970165,1.937142860550867,tremor
359,4040797,2.277,-0.8632253776975988,-0.39351406816435996,0.3669074703259141,-9.738413350746459,19.50336491691771,1.6721371250381685,tremor
360,4040802,2.282,-0.8644410757787517,-0.39326989051610567,0.3628625124537734,-9.31649612264731,18.706167331231722,1.4103807001338677,tremor
361,4040806,2.286,-0.8655065162288553,-0.3930526421681264,0.3589149266019378,-8.88548073629546,17.8668455639157,1.152968234877151,tremor
362,4040811,2.291,-0.8664312677711955,-0.39286144426971653,0.3550704209080426,-8.447894032987751,16.99181167820578,0.9009404778435278,tremor
363,4040816,2.296,-0.8672255804807122,-0.3926951613615047,0.35133474464657954,-8.006307351953133,16.08785899981274,0.6552840827099858,tremor
364,4040821,2.301,-0.8679002224725219,-0.3925524261103929,0.34771372703319026,-7.56331936446979,15.162079380554136,0.4169301469546397,tremor
365,4040825,2.305,-0.868466311256675,-0.3924316664326612,0.34421328841106774,-7.121534852407547,14.221769233025677,0.18675131915089735,tremor
366,4040830,2.31,-0.8689351417487362,-0.3923311352219805,0.3408394207143984,-6.683539761404544,13.27432638749156,-0.03444260161444178,tremor
367,4040835,2.315,-0.8693180134609003,-0.3922489427925229,0.33759813580954257,-6.25187305278507,12.327140272436528,-0.24591053193821272,tremor
368,4040862,2.342,-0.8696260600227408,-0.3921830919675067,0.33449538219369995,-5.828996074337518,11.38747832183577,-0.44698725261757966,tremor
369,4040867,2.347,-0.8698700848132475,-0.3921315155036809,0.3315369325011148,-5.417260359273847,10.46237182517918,-0.637091507903225,tremor
370,4040872,2.352,-0.8700604069914168,-0.3920921152722953,0.3287282462069103,-5.018874923770242,9.558504603025803,-0.815734589656172,tremor
371,4040877,2.357,-0.8702067224192139,-0.3920628023626334,0.3260743136608252,-4.635874236921069,8.682107856731792,-0.9825288435554256,tremor
372,4040881,2.361,-0.8703179837441218,-0.3920415370811535,0.3235794889578091,-4.270088061107703,7.838864296227727,-1.1371954893282552,tremor
373,4040886,2.366,-0.8704023032320333,-0.39202636771354493,0.3212473200513921,-3.9231143052733453,7.03382424647299,-1.2795711534822676,tremor
374,4040891,2.371,-0.8704668809175722,-0.3920154668984644,0.3190803849084687,-3.5962959147886764,6.271335948474027,-1.4096125625300255,tremor
375,4040896,2.376,-0.8705179594247516,-0.39200716451466855,0.317080142405089,-3.2907026587322057,5.554991759566617,-1.5273989293352344,tremor
376,4040901,2.381,-0.8705608055589983,-0.3919999760883782,0.31524680610340866,-3.007118483478228,4.887591443902229,-1.6331316793158175,tremor
377,4040906,2.386,-0.8705997176091665,-0.39199262586770517,0.3135792480758274,-2.7460348922661626,4.271123235986898,-1.7271312999549961,tremor
378,4040910,2.39,-0.8706380563190846,-0.39198406387232315,0.31207493861637986,-2.5076505943189185,3.706762861813569,-1.8098312468502715,tremor
379,4040915,2.395,-0.8706782967470874,-0.3919734764001778,0.3107299260777662,-2.2918774530404087,3.194890216855655,-1.8817689908787822,tremor
380,4040920,2.4,-0.8707220977448864,-0.3919602896541596,0.3095388592791239,-2.0983525578559012,2.7351229320672457,-1.9435744316504078,tremor
381,4040925,2.405,-0.8707703855396437,-0.39194416633913115,0.30849505303331026,-1.9264560535305588,2.326365615518199,-1.9959560212740937,tremor
382,4040929,2.409,-0.8708234478600305,-0.3919249952746105,0.3075905954330751,-1.7753341883444778,1.9668731500137917,-2.0396850333006418,tremor
383,4040934,2.414,-0.87088103515992,-0.3919028742726846,0.30681649370074604,-1.643926892077148,1.6543260690255444,-2.075578474172643,tremor
384,4040939,2.419,-0.8709424657073327,-0.3918780867457014,0.3061628537283174,-1.5309990702177938,1.3859157351560591,-2.104481171628381,tremor
385,4040944,2.424,-0.871006731566748,-0.39185107273350633,0.30561908698964724,-1.4351747054134854,1.158436814643304,-2.1272475899974697,tremor
386,4040949,2.429,-0.8710726027617846,-0.39182239527242035,0.305174137359093,-1.3549727923650354,0.9683843834101941,-2.1447239204534547,tremor
387,4040953,2.433,-0.8711387271258293,-0.39179270326198135,0.3048167195679428,-1.2888440977564801,0.8120529180300144,-2.1577309799868134,tremor
388,4040984,2.464,-0.8712037235099349,-0.39176269221225063,0.30453556059127335,-1.2352077310775584,0.6856344191660493,-2.1670484302355995,tremor
389,4040989,2.469,-0.8712662661229167,-0.3917330644617344,0.3043196351781781,-1.1924865341941437,0.5853129847483636,-2.173400797504392,tremor
