sample,t_ms,t_s,ax,ay,az,gx,gy,gz,tremor
0,4083310,0.0,-0.45497570111817565,-0.2900681206845875,0.7787181259842051,0.21690094014176248,5.763304199661176,-4.510528547045189,tremor
1,4083315,0.005,-0.45502570396916336,-0.2900254611107171,0.7783926852262866,0.4235068678625192,6.042469722295696,-4.73371134387307,tremor
2,4083320,0.01,-0.4550527462935113,-0.2899885667545629,0.7779698588937686,0.6193669904124199,6.307041087038834,-4.9415971137416514,tremor
3,4083324,0.014,-0.4550265637389689,-0.2899714929138899,0.7774592078381376,0.8025894288240744,6.552449911982902,-5.132259705113348,tremor
4,4083329,0.019,-0.4549113442440958,-0.28999119865653467,0.7768938422686699,0.9712629737139258,6.77394741295789,-5.303771353485526,tremor
5,4083334,0.024,-0.45467287347180096,-0.2900633169856475,0.7763162038068618,1.1234693658129387,6.966636405282598,-5.4542114368681425,tremor
6,4083339,0.029,-0.4542818085160872,-0.2902001524494641,0.7757670831786186,1.2572961429898613,7.125506984482719,-5.581675071308361,tremor
7,4083343,0.033,-0.4537139407932651,-0.2904104838444453,0.7752807616827676,1.3708499687279867,7.245475797935053,-5.684281449177144,tremor
8,4083353,0.043,-0.4529491896404164,-0.29070015201265076,0.7748842402626442,1.4622703468402565,7.32142877500465,-5.760181822773683,tremor
9,4083358,0.048,-0.45197043077997084,-0.29107277236786616,0.7745982562919498,1.5297436167212741,7.348267138132553,-5.807567034841644,tremor
10,4083367,0.057,-0.45076259021523213,-0.2915303082828078,0.7744387092707393,1.5715171133006205,7.320956472318985,-5.824674495630284,tremor
11,4083372,0.062,-0.4493120696957025,-0.2920734596129628,0.7744179123613277,1.585913366369377,7.2345785867862755,-5.809794503432673,tremor
12,4083377,0.067,-0.4476064391350102,-0.29270190075419744,0.7745455182346495,1.5713442051345592,7.084385861901343,-5.761275802612968,tremor
13,4083382,0.072,-0.44563431094380085,-0.2934144165786874,0.7748291433562391,1.5263246257725684,6.8658577372626715,-5.677530270856786,tremor
14,4083386,0.076,-0.443385327349426,-0.29420897608461716,0.7752747632864027,1.449486272394319,6.574758961514531,-5.557036626978177,tremor
15,4083391,0.081,-0.4408502132341831,-0.2950827713675685,0.775886950062333,1.3395903750535183,6.207199187751127,-5.398343053253418,tremor
16,4083396,0.086,-0.43802086423814895,-0.2960322394962181,0.7766690070592797,1.1955399823188169,5.759693457678422,-5.200068632557174,tremor
17,4083401,0.091,-0.43489045158663703,-0.29705307794748714,0.777623040526654,1.0163913210765039,5.229223071939441,-4.960903510930105,tremor
18,4083431,0.121,-0.4314535324637687,-0.2981402598328831,0.778749994187039,0.8013641133506128,4.613296293147464,-4.679607711351347,tremor
19,4083436,0.126,-0.4277061591761184,-0.2992880524369618,0.7800496641843593,0.54985067981262,3.910008271638589,-4.355008545919845,tremor
20,4083441,0.131,-0.4236459829349547,-0.3004900409635032,0.7815207055341936,0.26142366390270444,3.1180995185437785,-3.9859966038780263,tremor
21,4083446,0.136,-0.41927234957122844,-0.30173915842310545,0.7831606372104426,-0.06415777862300642,2.2370121709743054,-3.571520334913934,tremor
22,4083450,0.14,-0.4145863853462387,-0.30302772203401185,0.7849658504025366,-0.4269434612542606,1.2669431968260554,-3.1105793023825115,tremor
23,4083455,0.145,-0.4095910715112047,-0.30434747618644437,0.7869316227957899,-0.8267894307710006,0.20889357535559883,-2.6022162478934856,tremor
24,4083460,0.15,-0.4042913065652245,-0.30568964184318886,0.7890521406262238,-1.2633570958625506,-0.9352876281218786,-2.045508183720869,tremor
25,4083465,0.155,-0.39869395535951657,-0.30704497215787,0.7913205295199641,-1.7361142707459742,-2.1628654927247135,-1.439556810021044,tremor
26,4083470,0.16,-0.39280788435243075,-0.30840381405323536,0.7937288946063861,-2.24433815088,-3.470189090301984,-0.7834786389008435,tremor
27,4083480,0.17,-0.38664398246713355,-0.30975617549506335,0.7962683700071136,-2.7871202032057365,-4.852670368535578,-0.07639529638500589,tremor
28,4083485,0.175,-0.3802151671610508,-0.311091798211206,0.7989291774978654,-3.3633729177104685,-6.304773572606638,0.6825754362002736,tremor
29,4083489,0.179,-0.3735363754930237,-0.31240023563162383,0.8017006938869233,-3.9718383310356353,-7.820016761419519,1.494327194926115,tremor
30,4083494,0.184,-0.36662454017340923,-0.31367093585679706,0.8045715264358932,-4.61109819686706,-9.390986966028024,2.3597705062521177,tremor
31,4083499,0.189,-0.3594985508000789,-0.31489332949094306,0.8075295954557925,-5.279585642381139,-11.009370441571146,3.279835410973609,tremor
32,4083504,0.194,-0.3521792007095048,-0.31605692219495846,0.8105622230378464,-5.975598115933263,-12.665999263216065,4.255470495784469,tremor
33,4083509,0.199,-0.34468912009191727,-0.3171513918137823,0.8136562267192821,-6.697311400458902,-14.350915209161716,5.287637639582785,tremor
34,4083513,0.203,-0.33705269621402395,-0.3181666899058202,0.8167980167385486,-7.442794442471425,-16.05345146413077,6.377301875311159,tremor
35,4083518,0.208,-0.3292959817408051,-0.31909314744032213,0.8199736954049439,-8.210024730371686,-17.762332169372723,7.525415902400944,tremor
36,4083523,0.213,-0.32144659222951927,-0.3199215843254378,0.8231691570019811,-8.99690394909601,-19.46578924532507,8.732898955746133,tremor
37,4083550,0.24,-0.31353359387241164,-0.3206434222804002,0.8263701865721468,-9.801273640687919,-21.15169523166135,10.000609938258979,tremor
38,4083555,0.245,-0.3055873824953278,-0.3212508003669564,0.8295625559055246,-10.620930610608186,-22.807710152140775,11.329314947154925,tremor
39,4083560,0.25,-0.2976395547080555,-0.32173669224553014,0.8327321150917492,-11.45364183486793,-24.42143967264549,12.719649558988538,tremor
40,4083565,0.255,-0.2897227720000474,-0.3220950239204608,0.8358648781098719,-12.297158641419117,-25.980601160557185,14.17207647338691,tremor
41,4083570,0.26,-0.2818706185319529,-0.3223207903928829,0.8389471011307189,-13.149229961892893,-27.473193744930388,15.686839339903198,tremor
42,4083575,0.265,-0.2741174534100433,-0.3224101692674977,0.8419653524808979,-14.007614481544339,-28.88766815233437,17.263913800319532,tremor
43,4083579,0.269,-0.2664982583299234,-0.32236062898834184,0.8449065735434546,-14.870091561561273,-30.213091953889005,18.90295696741052,tremor
44,4083589,0.279,-0.25904848159330085,-0.3221710290402248,0.8477581302227598,-15.734470871023294,-31.439305902426135,20.603256727317195,tremor
45,4083594,0.284,-0.25180387957872313,-0.32184170917849964,0.8505078549629738,-16.598600742760205,-32.557067265201006,22.363682389563944,tremor
46,4083599,0.289,-0.24480035671896727,-0.32137456457209107,0.8531440796704791,-17.46037534913973,-33.558176460774845,24.18263830645382,tremor
47,4083604,0.294,-0.23807380484229115,-0.32077310369328094,0.855655660245424,-18.317740866781456,-34.435583870669035,26.058022131178053,tremor
48,4083609,0.299,-0.2316599423349721,-0.3200424858827731,0.8580319937705992,-19.168700849859366,-35.18347438693523,27.987189372854914,tremor
49,4083613,0.303,-0.22559415298732138,-0.3191895357617512,0.8602630297287774,-20.011321052143618,-35.79732803486834,29.96692583256657,tremor
50,4083618,0.308,-0.21991132365081623,-0.3182227320379705,0.862339276908943,-20.843733927646756,-36.27395583180904,31.993429366752537,tremor
51,4083623,0.313,-0.21464567904711063,-0.31715216873554486,0.8642518078992348,-21.664143003244032,-36.6115108702922,34.062302225257575,tremor
52,4083628,0.318,-0.20983061133124928,-0.3159894874429696,0.8659922632271839,-22.470827261356437,-36.80947541652983,36.168554955097825,tremor
53,4083638,0.328,-0.20549850142796833,-0.3147477798004992,0.8675528572692341,-23.262145606054737,-36.86862556896418,38.30662255192831,tremor
54,4083643,0.333,-0.20168052884444201,-0.3134414601227082,0.8689263879823409,-24.036541422512308,-36.79097570422147,40.47039318236349,tremor
55,4083647,0.337,-0.19840646673630036,-0.31208610877020865,0.8701062522830024,-24.792547188924434,-36.57970552399937,42.65324939506012,tremor
56,4083674,0.364,-0.19570445957980465,-0.3106982876488354,0.8710864684954788,-25.52878907128827,-36.23907297610412,44.848121294980004,tremor
57,4083679,0.369,-0.1936007819406784,-0.30929533002660337,0.8718617067159413,-26.24399142768441,-35.774316624885635,47.04755069453732,tremor
58,4083684,0.374,-0.19211957847580127,-0.3078951077025733,0.8724273272345019,-26.936981162756066,-35.191551161019156,49.24376481873492,tremor
59,4083689,0.379,-0.19128258727532688,-0.30651577939360175,0.8727794264018908,-27.606691890862674,-34.497659647012895,51.42875778253574,tremor
60,4083694,0.384,-0.19110885069196265,-0.3051755249615106,0.8729148886148824,-28.25216787541892,-33.70018580282096,53.59437781595963,tremor
61,4083698,0.388,-0.1916144196653914,-0.303892270724164,0.8728314424968122,-28.87256770744458,-32.80722919622255,55.73241808939402,tremor
62,4083708,0.398,-0.1928120590552543,-0.30268341153719885,0.8725277189038573,-29.467167670499585,-31.82734567968749,57.83470896822914,tremor
63,4083713,0.403,-0.19471096253912137,-0.3015655355740822,0.8720033081054418,-30.03536471727898,-30.769454854380744,59.893209580336936,tremor
64,4083718,0.408,-0.19731648615822037,-0.3005541577566604,0.8712588133680341,-30.576678961696956,-29.642755765113744,61.90009669725111,tremor
65,4083723,0.413,-0.20062990959194965,-0.29966346759090734,0.8702958982096786,-31.090755576035548,-28.45665145082957,63.847849100180696,tremor
66,4083728,0.418,-0.20464823374779273,-0.29890609675139557,0.8691173247735494,-31.577365980467142,-27.22068240650658,65.72932581637508,tremor
67,4083732,0.422,-0.2093640223498699,-0.29829291116037343,0.8677269810674422,-32.036408222755696,-25.944468470370516,67.53783685961861,tremor
68,4083737,0.427,-0.21476529401268613,-0.2978328315667135,0.8661298951991013,-32.46790646624991,-24.637658158569977,69.26720537957723,tremor
69,4083742,0.432,-0.22083546991643274,-0.2975326857956688,0.8643322351695604,-32.87200952965543,-23.309884059022203,70.91182040859276,tremor
70,4083747,0.437,-0.22755338075827536,-0.297397094957651,0.862341293236265,-33.24898844738459,-21.970722597627887,72.46667968383541,tremor
71,4083752,0.442,-0.23489333521508798,-0.29742839500992907,0.860165454297575,-33.599233039725775,-20.629656322850263,73.92742231113597,tremor
72,4083756,0.446,-0.24282525076374714,-0.2976265941867189,0.8578141481586731,-33.92324749450631,-19.296036822744092,75.29035131772044,tremor
73,4083761,0.451,-0.2513148463865118,-0.2979893659693514,0.8552977859005741,-34.22164496676178,-17.979046485534642,76.55244640696081,tremor
74,4083766,0.456,-0.260323895440758,-0.2985120764705767,0.8526276808808682,-34.49514120452464,-16.687657530023756,77.71136747125,tremor
75,4083771,0.461,-0.26981053577721725,-0.2991878443620163,0.8498159551478075,-34.744547213446545,-15.43058705141269,78.7654496324967,tremor
76,4083799,0.489,-0.27972963302124676,-0.30000763078644943,0.8468754322595132,-34.97076098555146,-14.216247233812487,79.71369075872681,tremor
77,4083804,0.494,-0.29003319176213516,-0.30096035607802907,0.8438195176915797,-35.17475833786143,-13.052690352972393,80.55573254253291,tremor
78,4083809,0.499,-0.3006708082253961,-0.3020330395901945,0.8406620682274335,-35.357582925972984,-11.947548711412727,81.29183630407175,tremor
79,4083814,0.504,-0.31159015687606084,-0.30321095854565255,0.8374172519987878,-35.52033550055086,-10.907970190241413,81.92285467063421,tremor
80,4083818,0.508,-0.3227375023988617,-0.3044778216155876,0.8340994011995165,-35.664162451235825,-9.9405506373163,82.45020017271185,tremor
81,4083823,0.513,-0.33405822771442867,-0.30581595292050967,0.8307228599121633,-35.79024363798093,-9.05126480298976,82.8758116011069,tremor
82,4083828,0.518,-0.34549736819605126,-0.3072064823077689,0.8273018298990426,-35.899779461115735,-8.245397944727838,83.20211873071204,tremor
83,4083833,0.523,-0.3570001421097589,-0.30862953807285404,0.8238502175450152,-35.9939770854994,-7.527480518780118,83.43200577163549,tremor
84,4083838,0.528,-0.3685124675540443,-0.3100644387270569,0.8203814853366783,-36.07403572179376,-6.901228538366258,83.56877368246369,tremor
85,4083842,0.532,-0.3799814568344378,-0.31148988095102403,0.8169085112856337,-36.14113088335848,-6.369492191162706,83.61610128977338,tremor
86,4083847,0.537,-0.3913558802375978,-0.31288412149061257,0.8134434595340535,-36.196397579378285,-5.934215170905065,83.57800501407176,tremor
87,4083852,0.542,-0.40258659249785106,-0.31422515142405405,0.8099976650178913,-36.24091246891645,-5.596406891089886,83.45879691366106,tremor
88,4083857,0.547,-0.4136269167862109,-0.3154908619294069,0.8065815345210308,-36.275675080458484,-5.356129318387769,83.263040729907,tremor
89,4083862,0.552,-0.42443298270332724,-0.31665920137583375,0.8032044657600199,-36.301588290233354,-5.212499600656855,82.99550565070197,tremor
90,4083866,0.556,-0.43496401643163113,-0.31770832421411555,0.7998747853318178,-36.319438342148985,-5.163708993922297,82.66111759722922,tremor
91,4083885,0.575,-0.4451825828148488,-0.3186167327091634,0.7965997054836298,-36.32987477334443,-5.207057855347941,82.26490796976974,tremor
92,4083890,0.58,-0.45505478061552873,-0.31936341298982407,0.7933852987856211,-36.333390672329614,-5.3390057204830335,81.8119599467478,tremor
93,4083895,0.585,-0.464550393499912,-0.3199279671233971,0.7902364889857182,-36.33030373250071,-5.555234792426008,81.30735260556895,tremor
94,4083923,0.613,-0.4736430003777632,-0.3202907428814032,0.7871570556963644,-36.320738569177216,-5.850724613408543,80.7561033152146,tremor
95,4083928,0.618,-0.4823100495547654,-0.32043296251198927,0.7841496501894757,-36.304610753146356,-6.219835323241989,80.16310903074577,tremor
96,4083933,0.623,-0.4905329016927987,-0.32033685122320127,0.7812158195052511,-36.28161300094957,-6.656396759631754,79.53308728830997,tremor
97,4083938,0.628,-0.4982968467413548,-0.3199857653500974,0.7783560363193558,-36.25120397014012,-7.153800722002514,78.87051784187325,tremor
98,4083942,0.632,-0.5055910997222581,-0.3193643194896829,0.7755697325299209,-36.21260012860819,-7.705093974339304,78.17958598386372,tremor
99,4083947,0.637,-0.5124087795018563,-0.3184585113472846,0.7728553352515586,-36.16477116809559,-8.303069939468804,77.46412863798287,tremor
100,4083952,0.642,-0.5187468735403991,-0.3172558426723575,0.7702103047385981,-36.106439381787254,-8.94035745886001,76.72758429663338,tremor
101,4083957,0.647,-0.5246061902019851,-0.31574543444422415,0.7676311745935275,-36.03608331579139,-9.609505400582343,75.97294779747196,tremor
102,4083962,0.652,-0.5299912987066392,-0.3139181343547126,0.7651135953485054,-35.951945847392665,-10.303062266116953,75.20273079843305,tremor
103,4083966,0.656,-0.534910455387522,-0.3117666145836697,0.7626523830599454,-35.85204666178756,-11.013650265076743,74.41892862713702,tremor
104,4083971,0.661,-0.5393755137507883,-0.3092854578459951,0.7602415748778855,-35.73419891791489,-11.73403359270076,73.62299396226705,tremor
105,4083976,0.666,-0.5434018150580415,-0.30647122969375684,0.7578744936181477,-35.596029735151205,-12.457180856542035,72.81581756982433,tremor
106,4083981,0.671,-0.547008055844821,-0.3033225350905099,0.755543823174339,-35.43500401264971,-13.17632175344253,71.99771608890545,tremor
107,4083986,0.676,-0.5502161289818188,-0.2998400573579636,0.7532416961781823,-35.248451020701395,-13.884998192040257,71.16842666280037,tremor
108,4083991,0.681,-0.5530509355562637,-0.29602657775684604,0.7509597946894695,-35.03359317949809,-14.57711008808159,70.3271080590782,tremor
109,4083995,0.685,-0.555540165930158,-0.2918869742343048,0.7486894639263552,-34.78757645897376,-15.246956035163647,69.4723478240909,tremor
110,4084000,0.69,-0.5577140497102258,-0.28742819827262256,0.7464218382006407,-34.50750188200365,-15.889268986139067,68.60217497067207,tremor
111,4084005,0.695,-0.5596050758998475,-0.282659229317434,0.7441479773758904,-34.19045767614423,-16.499246987624094,67.71407769534427,tremor
112,4084015,0.705,-0.5612476860350815,-0.2775910069371135,0.7418590113914046,-33.8335516795973,-17.07257890565114,66.80502565444917,tremor
113,4084020,0.71,-0.5626779444737564,-0.2722363416331925,0.7395462897542608,-33.433943651087134,-17.60546497155457,65.87149638906222,tremor
114,4084046,0.736,-0.5639331910666711,-0.26660980602167544,0.737201532443181,-32.988877151939114,-18.094631865671975,64.90950556911426,tremor
115,4084050,0.74,-0.5650516820898513,-0.2607276088471846,0.7348169784271065,-32.49571066244238,-18.537341945740128,63.91464082055327,tremor
116,4084055,0.745,-0.5660722255133354,-0.2546074548697194,0.7323855279975937,-31.95194757874061,-18.931396130608064,62.88209899559695,tremor
117,4084060,0.75,-0.5670338164563432,-0.24826839398339273,0.7299008753453596,-31.355264736352275,-19.275129893106556,61.80672683248733,tremor
118,4084065,0.755,-0.5679752781250622,-0.24173066294759035,0.7273576282511548,-30.70353913978337,-19.56740182160578,60.683065017984994,tremor
119,4084070,0.76,-0.5689349127668635,-0.235015522870549,0.7247514123642117,-29.994872641396096,-19.807574284998704,59.50539571003179,tremor
120,4084075,0.765,-0.569950166309741,-0.22814509517567103,0.7220789582539948,-29.227614388581664,-19.995485874115325,58.26779359870869,tremor
121,4084080,0.77,-0.5710573094632271,-0.2211421983026105,0.7193381701901982,-28.400380927627232,-20.13141548598113,56.96418057662347,tremor
122,4084085,0.775,-0.5722911371831552,-0.21403018692471054,0.7165281763840813,-27.512073902609654,-20.216038161146045,55.588384048622586,tremor
123,4084090,0.78,-0.5736846875755438,-0.20683279504729693,0.7136493611674865,-26.56189531083931,-20.250373073363953,54.13419883127908,tremor
124,4084095,0.785,-0.5752689805551735,-0.1995739840076099,0.710703380252802,-25.549360271121206,-20.23572439739451,52.595452476081626,tremor
125,4084099,0.789,-0.5770727759023178,-0.19227779612822682,0.7076931607682627,-24.47430723247275,-20.173616135551526,50.96607370178678,tremor
126,4084104,0.794,-0.5791223497990654,-0.18496821457169535,0.7046228881634057,-23.33690551017199,-20.06572235568665,49.24016344943496,tremor
127,4084109,0.799,-0.5814412884971043,-0.17766902979069343,0.701497982305531,-22.137659997539714,-19.913794664738877,47.4120678911953,tremor
128,4084114,0.804,-0.5840502974890301,-0.17040371285376144,0.6983250651336262,-20.87741287928772,-19.719589084782005,45.476452550088425,tremor
129,4084119,0.809,-0.5869670244345686,-0.16319529584641113,0.6951119221134571,-19.557342175131755,-19.48479477592067,43.428376542846806,tremor
130,4084124,0.814,-0.5902058941333369,-0.15606625950336753,0.6918674594707067,-18.178956974851037,-19.210967223336326,41.26336585971079,tremor
131,4084129,0.819,-0.5937779540325986,-0.14903842822751714,0.6886016587975493,-16.74408928672886,-18.89946854137919,38.97748454895473,tremor
132,4084133,0.823,-0.5976907291026234,-0.14213287270462532,0.685325530160446,-15.254882503183044,-18.551417424637968,36.56740267424078,tremor
133,4084138,0.828,-0.601948085391524,-0.13536982043776524,0.6820510643070015,-13.713776578416141,-18.167650985231887,34.03045994692967,tremor
134,4084143,0.833,-0.6065501021734333,-0.12876857470290387,0.6787911839940004,-12.12349010021908,-17.74870025890334,31.36472399214215,tremor
135,4084171,0.861,-0.6114929533190419,-0.12234744265732393,0.6755596938478696,-10.486999512833478,-17.294780552598414,28.569042280813797,tremor
136,4084175,0.865,-0.6167687993407158,-0.11612367358614033,0.6723712275364544,-8.807515807523165,-16.80579707049934,25.643086849085194,tremor
137,4084180,0.87,-0.6223656924932571,-0.11011340848891608,0.6692411904128622,-7.0884590450113185,-16.281365445319704,22.587391033498303,tremor
138,4084190,0.88,-0.628267498334611,-0.10433164230186782,0.6661856952610313,-5.333431115255223,-15.720845996259415,19.403377581063545,tremor
139,4084195,0.885,-0.6344538382235535,-0.09879219994633374,0.6632214884284324,-3.5461871824157614,-15.123389824405544,16.09337765350046,tremor
140,4084200,0.89,-0.6409000582515164,-0.09350772707252057,0.6603658635705723,-1.7306063109409482,-14.48799431456387,12.660640436038742,tremor
141,4084205,0.895,-0.6475772309193073,-0.08848969587435387,0.657636560521758,0.10933818020232333,-13.813565280550593,9.109333274899273,tremor
142,4084210,0.9,-0.6544521963109732,-0.08374842576435869,0.6550516474680195,1.9696080438798709,-13.098982871392062,5.444532488584766,tremor
143,4084215,0.905,-0.66148764945581,-0.07929311809353158,0.6526293855958616,3.846128495296837,-12.343168417893942,1.6722052103530076,tremor
144,4084220,0.91,-0.6686422799348146,-0.07513190353891319,0.6503880766358879,5.734815054100428,-11.545149596960373,-2.20081718953291,tremor
145,4084224,0.914,-0.675870968575323,-0.07127190029776845,0.6483458950907164,7.631598264804749,-10.704121582393787,-6.166873391456933,tremor
146,4084229,0.919,-0.6831250443489294,-0.06771928083877914,0.6465207082983231,9.532445798912834,-9.819502200685847,-10.217513288515942,tremor
147,4084234,0.924,-0.6903526024626996,-0.06447934467014128,0.6449298887032506,11.433381551823517,-8.890979488040427,-14.343545105262008,tremor
148,4084239,0.929,-0.6974988822723354,-0.061556594387126115,0.6435901236648081,13.330501479324077,-7.918550425207493,-18.535087519099182,tremor
149,4084244,0.934,-0.7045067012325205,-0.058954812151288505,0.6425172287165791,15.219986057101584,-6.902549993081144,-22.781625837614598,tremor
150,4084249,0.939,-0.7113169388315461,-0.05667713372727702,0.6417259703350845,17.09810937773597,-5.843670038212421,-27.072071329809997,tremor
151,4084253,0.943,-0.7178690625304608,-0.054726117264183284,0.6412299039597321,18.96124501247688,-4.74296776570742,-31.394822883461515,tremor
152,4084258,0.948,-0.7241016863082602,-0.053103804165429674,0.6410412322629031,20.805868854072017,-3.6018639945509636,-35.73783025542019,tremor
153,4084263,0.953,-0.7299531516119462,-0.051811769657324515,0.6411706875628697,22.628559220620794,-2.422131625158961,-40.08865828630748,tremor
154,4084289,0.979,-0.7353621203592224,-0.050851161055742396,0.6416274408900086,24.42599454056352,-1.2058750861585203,-44.43455155632105,tremor
155,4084294,0.984,-0.7402681701021492,-0.05022272225226624,0.6424190386738685,26.19494895965228,0.04449815382925045,-48.7624990567912,tremor
156,4084308,0.998,-0.7446123824044147,-0.04992680359010609,0.6435513664781697,27.932286219457975,1.3263126142155541,-53.05929853525386,tremor
157,4084318,1.008,-0.7483379166938348,-0.04996335704498338,0.6450286378766252,29.634952163776095,2.6366646990454328,-57.31162023451531,tremor
158,4084323,1.013,-0.7513905630636856,-0.05033191740522054,0.6468534056110403,31.299966242751083,3.9724655841829115,-61.50606978991935,tremor
159,4084328,1.018,-0.7537192685034889,-0.05103157087506654,0.6490265916681219,32.924412406262384,5.330485119173414,-65.62925008481363,tremor
160,4084333,1.023,-0.755276631760452,-0.05206091312513045,0.6515475327876847,34.505429801790875,6.707394805085239,-69.66782190595082,tremor
161,4084338,1.028,-0.7560193625101018,-0.053417999233929495,0.6544140380397501,36.04020370755796,8.099808078730167,-73.60856329446902,tremor
162,4084342,1.032,-0.7559087008587781,-0.05510028819699935,0.6576224553512543,37.525957131067926,9.50431640346122,-77.43842754976748,tremor
163,4084347,1.037,-0.7549107935283109,-0.05710458474643516,0.6611677441308378,38.95994348314771,10.917519997114221,-81.14459990397201,tremor
164,4084352,1.042,-0.7529970234754757,-0.05942698115670384,0.6650435513790384,40.339440699461576,12.33605238594624,-84.71455293615927,tremor
165,4084357,1.047,-0.7501442902313195,-0.06206280154467706,0.6692422888623507,41.661747129144395,13.75659833745323,-88.13610083301,tremor
166,4084362,1.052,-0.7463352389263196,-0.06500655093225731,0.6737552090811936,42.92417944901173,15.175905079222092,-91.39745262224416,tremor
167,4084367,1.057,-0.7415584367786957,-0.06825187105320643,0.6785724779000322,44.12407279797373,16.590787042795732,-94.48726450411343,tremor
168,4084372,1.062,-0.7358084967183816,-0.07179150457075746,0.6836832418673623,45.25878326559227,17.998124668303824,-97.39469138360614,tremor
169,4084376,1.066,-0.7290861487344382,-0.0756172690424754,0.6890756884686009,46.32569281494694,19.394858055054264,-100.10943766441733,tremor
170,4084381,1.071,-0.7213982603992323,-0.07972004163168864,0.6947370978546832,47.32221667386804,20.777976437332057,-102.62180731020783,tremor
171,4084386,1.076,-0.7127578087704499,-0.0840897552247247,0.7006538849917769,48.245813188226194,22.144504602789826,-104.92275311426124,tremor
172,4084413,1.103,-0.7031838064408759,-0.08871540627214353,0.7068116316873762,49.09399609318231,23.491487458443725,-107.00392504916523,tremor
173,4084418,1.108,-0.6927011848487968,-0.09358507433388612,0.7131951085478486,49.864349120138385,24.81597399193728,-108.85771749813301,tremor
174,4084428,1.118,-0.6813406380591623,-0.09868595298419662,0.7197882875638777,50.55454281661988,26.11500187267949,-110.47731510693245,tremor
175,4084432,1.122,-0.6691384300998942,-0.10400439144458698,0.72657434662793,51.16235341304078,27.38558388014605,-111.85673694908577,tremor
176,4084437,1.127,-0.6561361686571567,-0.10952594608833612,0.7335356677879515,51.685683525579904,28.624697225427223,-112.99087866961739,tremor
177,4084442,1.132,-0.6423805475924157,-0.11523544081516114,0.740653831392873,52.12258444057775,29.829276646003258,-113.87555225697675,tremor
178,4084447,1.137,-0.6279230604290531,-0.12111703522966215,0.7479096084858267,52.47127968511578,30.99621191383087,-114.50752307852251,tremor
179,4084452,1.142,-0.6128196867186841,-0.12715429955727303,0.7552829538696597,52.73018955219711,32.12235012230888,-114.88454379697353,tremor
180,4084457,1.147,-0.5971305530503932,-0.1333302952752775,0.762753002231068,52.8979562181708,33.204502829352556,-115.00538476457534,tremor
181,4084466,1.156,-0.5809195703982116,-0.13962766050186687,0.7702980695878877,52.97346906548587,34.23945785045044,-114.86986047181993,tremor
182,4084472,1.162,-0.5642540494906599,-0.1460286992536085,0.7778956621402787,52.9558898057763,35.223995235943796,-114.47885161140854,tremor
183,4084476,1.166,-0.5472042959053542,-0.15251547373548935,0.785522494381223,52.84467698616526,36.15490675343301,-113.83432230796129,tremor
184,4084481,1.171,-0.5298431866190797,-0.15906989885776623,0.7931545180742122,52.63960945471831,37.029018053300405,-112.93933206138722,tremor
185,4084486,1.176,-0.5122457297688091,-0.1656738381765843,0.8007669634515491,52.34080835865501,37.84321263899188,-111.7980419579344,tremor
186,4084491,1.181,-0.4944886094098597,-0.17230920043338727,0.808334393733877,51.94875725129269,38.594456795651745,-110.41571471862848,tremor
187,4084496,1.186,-0.476649717118078,-0.17895803582890643,0.8158307738220081,51.46431989146737,39.27982474117548,-108.7987081814342,tremor
188,4084501,1.191,-0.4588076724054191,-0.1856026311209195,0.8232295537627999,50.88875533366675,39.89652343693139,-106.95446185285077,tremor
189,4084506,1.196,-0.4410413341334605,-0.19222560259188134,0.8305037673364544,50.22372992959294,40.44191671142783,-104.89147621827735,tremor
190,4084511,1.201,-0.42342930544234264,-0.19880998590362467,0.8376261458472336,49.471325892886085,40.913548585642516,-102.61928456902261,tremor
191,4084538,1.228,-0.40604943517724607,-0.20533932185096485,0.8445692469183077,48.634046118136546,41.30916591641622,-100.14841718669881,tremor
192,4084548,1.238,-0.38897831937827415,-0.21179773705070426,0.8513055977938426,47.7148149928389,41.62674065853643,-97.49035781878837,tremor
193,4084553,1.243,-0.3722908070364208,-0.21817001865977229,0.8578078523470833,46.71697499624455,41.86449213836532,-94.65749247123324,tremor
194,4084558,1.248,-0.35605951487785037,-0.22444168230428332,0.8640489607026525,45.64427894081757,42.02090968733268,-91.66305061949912,tremor
195,4084563,1.253,-0.34035435626971533,-0.2305990325134187,0.8700023501258204,44.50087777755008,42.09477579922532,-88.5210389908201,tremor
196,4084568,1.258,-0.3252420893469485,-0.23662921507678594,0.8756421156180508,43.291303953147846,42.08518970477973,-85.24616810533446,tremor
197,4084572,1.262,-0.31078588913784794,-0.24252026086821651,0.8809432184750721,42.02045037389427,41.99159097756466,-81.85377180007542,tremor
198,4084577,1.267,-0.2970449478836995,-0.2482611207925968,0.8858816908901093,40.693545097606055,41.813782554051755,-78.35972001149702,tremor
199,4084582,1.272,-0.2840741069992352,-0.2538416916103836,0.8904348445019641,39.31612194070144,41.55195239663837,-74.78032516525963,tremor
200,4084587,1.277,-0.2719235233051774,-0.25925283247726616,0.8945814805845845,37.89398725006213,41.20669296234132,-71.13224261623228,tremor
201,4084591,1.281,-0.2606383713737512,-0.2644863721085721,0.8983020993501215,36.43318314655303,40.77901766332029,-67.43236569422817,tremor
202,4084601,1.291,-0.25025858314198046,-0.2695351065473539,0.9015791055985829,34.93994759663342,40.27037361001644,-63.697716037832784,tremor
203,4084606,1.296,-0.24081862542652593,-0.27439278759225716,0.9043970077102422,33.42067170944201,39.68265009313022,-59.94533003444985,tremor
204,4084611,1.301,-0.2323473156564079,-0.2790541020391669,0.9067426067677172,31.881854689468312,39.01818245375253,-56.19214232233793,tremor
205,4084616,1.306,-0.22486767603854205,-0.28351464202253013,0.9086051724473102,30.330056901445996,38.27975117181801,-52.454867442465286,tremor
206,4084620,1.31,-0.21839682646613867,-0.2877708669172251,0.9099766022689875,28.77185152806436,37.470576137744416,-48.74988084924203,tremor
207,4084625,1.315,-0.21294591671807353,-0.29182005747987677,0.9108515608659159,27.2137753268963,36.59430614241222,-45.093100598255305,tremor
208,4084630,1.32,-0.20852009879788777,-0.2956602631593146,0.9112275961350537,25.662279024396806,35.65500362373908,-41.49987112744941,tremor
209,4084635,1.325,-0.2051185405334736,-0.2992902437716049,0.9111052294517652,24.123677924306875,34.65712465177854,-37.98485063716102,tremor
210,4084661,1.351,-0.20273448171913597,-0.3027094069940706,0.9104880175555764,22.604103355014516,33.60549403574664,-34.56190365244549,tremor
211,4084666,1.356,-0.20135533406317233,-0.305917743361597,0.9093825842140125,21.10945562865679,32.505275328629985,-31.244000409281956,tremor
212,4084676,1.366,-0.20096282595857148,-0.3089157606233863,0.9077986203086095,19.64535921680742,31.361935443311353,-28.043124723915117,tremor
213,4084680,1.37,-0.20153319260401512,-0.3117044194180588,0.9057488515147716,18.217120840905437,30.181203641046583,-24.970191954460915,tremor
214,4084685,1.375,-0.20303741129861197,-0.3142850722386139,0.9032489732256834,16.829691118691482,28.969024838063355,-22.03497852966122,tremor
215,4084690,1.38,-0.20544148090259803,-0.3166594075900177,0.9003175527857812,15.487630311439583,27.731507471208207,-19.246064309275074,tremor
216,4084695,1.385,-0.20870674360802902,-0.3188294011044101,0.8969758994636803,14.195078604581541,26.474866507857115,-16.610788779232443,tremor
217,4084699,1.389,-0.21279024638950084,-0.32079727518451984,0.8932479029324293,12.955731246794125,25.205362523832015,-14.135221797898748,tremor
218,4084704,1.394,-0.2176451388558792,-0.3225654685001674,0.8891598413592768,11.772818779487373,23.92923806956619,-11.824149314367356,tremor
219,4084709,1.399,-0.22322110371583706,-0.3241366163646202,0.8847401605538295,10.649092511381395,22.652652772643552,-9.681074183842878,tremor
220,4084714,1.404,-0.22946481569634072,-0.325513542663122,0.8800192259920613,9.58681532835346,21.381618762580494,-7.708231911957049,tremor
221,4084719,1.409,-0.23632042449301127,-0.3266992635920383,0.8750290499285052,8.58775787110888,20.121938040813284,-5.906620870181115,tremor
222,4084724,1.414,-0.2437300571527926,-0.3276970029945553,0.8698029962306831,7.653200055134155,18.87914336076342,-4.276046238741539,tremor
223,4084729,1.419,-0.2516343351534296,-0.32851021855498314,0.8643754660158468,6.783937841585678,17.658444046436927,-2.815176652181939,tremor
224,4084738,1.428,-0.259972901307314,-0.3291426375543565,0.8587815676351167,5.9802950889336195,16.46467798264523,-1.521612248342416,tremor
225,4084743,1.433,-0.2686849514349316,-0.32959830032153387,0.8530567750256178,5.242140221659285,15.30227077321334,-0.3919625615681617,tremor
226,4084748,1.438,-0.2777097654862036,-0.32988160897349605,0.8472365789245283,4.568907347537481,14.175202801932738,0.5780675297173236,tremor
227,4084753,1.443,-0.28698723241047075,-0.3299973785700308,0.8413561358927084,3.9596213481043647,13.086984660772364,1.3935857736549244,tremor
228,4084758,1.448,-0.2964583625828232,-0.32995088745291584,0.8354499205099268,3.412926371067371,12.040641146075487,2.0604165272208657,tremor
229,4084784,1.474,-0.30606578100881265,-0.3297479233273579,0.8295513864580887,2.9271170823130848,11.038703778694378,2.5850028974458823,tremor
230,4084789,1.479,-0.31575419391728005,-0.3293948215898271,0.8236926424749307,2.500171998851681,10.083211589036159,2.9743091724454236,tremor
231,4084794,1.484,-0.32547082084804996,-0.3288984925218274,0.8179041492870486,2.129788227116636,9.175719733465503,3.235725574197354,tremor
232,4084799,1.489,-0.335165784150495,-0.3282664342625219,0.8122144435432485,1.8134169719807924,8.31731538058422,3.37697716691308,tremor
233,4084804,1.494,-0.3447924481228302,-0.3275067289450591,0.8066498944012559,1.5482992517630563,7.508640216389175,3.4060384559681576,tremor
234,4084809,1.499,-0.35430770092133784,-0.32662802001470853,0.8012344977548468,1.33150133874663,6.749918843250306,3.331054837981751,tremor
235,4084813,1.503,-0.36367217379896355,-0.32563946950812733,0.7959897121602831,1.1599495292384436,6.040992266554714,3.160271653237124,tremor
236,4084818,1.508,-0.37285039406001486,-0.32455069492319305,0.790934339395418,1.0304639238375701,5.381355566578753,2.901971183604438,tremor
237,4084823,1.513,-0.3818108701871302,-0.3233716862104597,0.7860844513332579,0.9397909648041173,4.7701987465514755,2.5644175580325608,tremor
238,4084828,1.518,-0.39052610975590984,-0.32211270433538025,0.7814533635034163,0.8846345329896285,4.2064496402452045,2.1558091917173154,tremor
239,4084833,1.523,-0.39897257285927873,-0.32078416376049684,0.7770516544146745,0.861685451919943,3.688817663733728,1.684238108198085,tremor
240,4084838,1.528,-0.4071305656919565,-0.31939650204371983,0.7728872284782087,0.8676492819696126,3.2158371186003203,1.1576552854569815,tremor
241,4084843,1.533,-0.414984080591969,-0.31796004050643245,0.7689654192536853,0.8992723144527037,2.7859087144799455,0.5838410312648574,tremor
242,4084848,1.538,-0.4225205901245428,-0.3164848405555475,0.7652891287788249,0.9533656957118163,2.3973379966819834,-0.029620672759303565,tremor
243,4084852,1.542,-0.42973080367754035,-0.31498056070611097,0.7618589979656699,1.0268276269363046,2.0483694570330377,-0.6753649208359394,tremor
244,4084857,1.547,-0.43660839550171504,-0.3134563196044632,0.7586736024700261,1.1166635981296422,1.7372152826996667,-1.346266734996056,tremor
245,4084862,1.552,-0.443149713190442,-0.3119205703630237,0.7557296680663077,1.2200046251721715,1.462077957434744,-2.035460926751352,tremor
246,4084867,1.557,-0.4493534753016958,-0.31038099126932545,0.7530222993746915,1.334123467622965,1.2211662609899003,-2.736361735960023,tremor
247,4084872,1.562,-0.4552204662584134,-0.30884439742363706,0.7505452157655104,1.4564488127566886,1.012704596237111,-3.4426828432401217,tremor
248,4084877,1.567,-0.4607532359189636,-0.3073166771028286,0.7482909883769018,1.5845774206475303,0.83493598448133,-4.148458156748097,tremor
249,4084882,1.572,-0.4659558103879851,-0.30580275566265264,0.7462512723978089,1.7162842388113098,0.6861194765596685,-4.848063560486037,tremor
250,4084908,1.598,-0.47083341982961247,-0.30430658860496945,0.7444170290699846,1.8495305138564677,0.5645230969944821,-5.536239585238921,tremor
251,4084913,1.603,-0.4753922483126342,-0.30283118409747634,0.7427787322496947,1.9824699462942685,0.46841373599312464,-6.208114731031446,tremor
252,4084918,1.608,-0.47963921007070953,-0.301378653824047,0.7413265548769687,2.1134529398319897,0.39604559007622475,-6.85922894137964,tremor
253,4084923,1.613,-0.48358175594221714,-0.29995028968834264,0.7400505313945657,2.241028975245665,0.34564878882350714,-7.485556519720651,tremor
254,4084928,1.618,-0.4872277130563543,-0.2985466627266992,0.7389406931012509,2.3639470932830977,0.31541972292409637,-8.083527605040477,tremor
255,4084933,1.623,-0.4905851599499024,-0.2971677397040766,0.7379871746193751,2.481154421909441,0.3035143414086084,-8.650047202543467,tremor
256,4084938,1.628,-0.49366233817509525,-0.29581301230317936,0.7371802910395295,2.5917926572679617,0.30804536924550063,-9.182510707974856,tremor
257,4084942,1.632,-0.49646760009792323,-0.2944816335567331,0.7365105867657614,2.695192421356043,0.3270840553486252,-9.678814879286888,tremor
258,4084947,1.637,-0.4990093910495273,-0.2931725561741873,0.735968858503234,2.7908654734211047,0.3586667216658938,-10.137363300469705,tremor
259,4084952,1.642,-0.5012962623871093,-0.29188466762521165,0.7355461560940268,2.87849483556541,0.40080606241864625,-10.557065546249154,tremor
260,4084957,1.647,-0.5033369104782132,-0.2906169172149004,0.7352337659200836,2.9579229894841705,0.45150685111474786,-10.937329482207716,tremor
261,4084962,1.652,-0.5051402352836132,-0.2893684308807706,0.7350231822813477,3.0291383934468445,0.5087854627115151,-11.2780464060151,tremor
262,4084966,1.656,-0.5067154112081131,-0.28813861003125907,0.7349060724748148,3.092260641961282,0.5706924187070272,-11.57956903105871,tremor
263,4084971,1.661,-0.5080719623175188,-0.2869272114109952,0.7348742412279131,3.1475246356381,0.6353370190139219,-11.842682611099109,tremor
264,4084976,1.666,-0.5092198339495612,-0.2857344057086776,0.7349195996860919,3.1952641435244553,0.700913035405994,-12.068569782181033,tremor
265,4084981,1.671,-0.5101694532000745,-0.2845608134118192,0.7350341433567499,3.235895129465808,0.7657244034273716,-12.258769938882407,tremor
266,4084986,1.676,-0.5109317717196806,-0.28340751725085167,0.7352099423375951,3.269899186253644,0.8282098598513087,-12.415134154903702,tremor
267,4084991,1.681,-0.5115182856355284,-0.2822760514492608,0.7354391459020819,3.297807384461983,0.8869655286411633,-12.539776796914472,tremor
268,4084996,1.686,-0.5119410290959211,-0.2811683688838722,0.7357140021844305,3.320184802687806,0.940764556251178,-12.635025062572504,tremor
269,4085001,1.691,-0.512212539775562,-0.2800867881284119,0.7360268924042188,3.337615965724533,0.9885730316937653,-12.703367697912325,tremor
270,4085006,1.696,-0.5123457965272135,-0.2790339231654388,0.73637037788684,3.35069137902726,1.029561592095791,-12.747404118147431,tremor
271,4085031,1.721,-0.5123541310879424,-0.27801259926316746,0.7367372571517863,3.3599953133922154,1.0631123040008807,-12.76979507556373,tremor
272,4085036,1.726,-0.5122511172282344,-0.2770257590744982,0.7371206296256663,3.366094964157968,1.0888206153472182,-12.77321589741537,tremor
273,4085041,1.731,-0.5120504418704205,-0.2760763633670258,0.7375139621439972,3.3695310835330536,1.1064923781501863,-12.760313165264476,tremor
274,4085046,1.736,-0.5117657634293432,-0.27516729087942,0.7379111543568104,3.3708101595401097,1.116136128866886,-12.733665535500261,tremor
275,4085051,1.741,-0.5114105629301922,-0.2743012415990049,0.738306599422825,3.370398186435673,1.1179509682256596,-12.69574921998715,tremor
276,4085056,1.746,-0.5109979933909415,-0.27348064730010413,0.7386952368928276,3.368716036924698,1.1123105018183013,-12.648908466124563,tremor
277,4085061,1.751,-0.5105407326156641,-0.2727075925474763,0.739072595347756,3.366136406693283,1.0997433906888376,-12.59533120469053,tremor
278,4085066,1.756,-0.5100508440247641,-0.27198374863752633,0.7394348230793918,3.362982259976391,1.0809111208094733,-12.537029877034241,tremor
279,4085070,1.76,-0.5095396495193344,-0.27131032219152473,0.7397787058123567,3.359526665481361,1.056583633982132,-12.475827314671012,tremor
280,4085075,1.765,-0.509017617686365,-0.2706880193810084,0.740101671119346,3.355993879158166,1.0276134750820265,-12.413347427591304,tremor
281,4085080,1.77,-0.5084942699316437,-0.27011702609162125,0.7404017797505421,3.3525615069464934,0.9949091092058033,-12.351010365369865,tremor
282,4085085,1.775,-0.5079781064026792,-0.2695970037399594,0.7406777045720324,3.349363567926541,0.9594080543252959,-12.29003174934577,tremor
283,4085090,1.78,-0.507476552856159,-0.2691270999580655,0.7409286981871328,3.3464942756019695,0.9220504642176642,-12.231425534987679,tremor
284,4085095,1.785,-0.5069959289531591,-0.26870597295195586,0.7411545506052826,3.344012360125937,0.8837537824406969,-12.176010048678856,tremor
285,4085100,1.79,-0.5065414378491702,-0.26833182801857797,0.7413555385344358,3.341945764128479,0.8453890680716157,-12.124416747891923,tremor
286,4085104,1.794,-0.5061171764015938,-0.2680024644628264,0.7415323680138697,3.3402965565228606,0.807759564607686,-12.077101272749026,tremor
287,4085109,1.799,-0.505726164857531,-0.2677153309857521,0.7416861121837913,3.3390459201325413,0.7715820426156471,-12.034356385466229,tremor
288,4085114,1.804,-0.5053703945167849,-0.26746758751083516,0.7418181460136639,3.338159079157186,0.7374713929379098,-11.996326427976422,tremor
289,4085119,1.809,-0.5050508915893703,-0.2672561713721302,0.7419300797890405,3.337590041513526,0.7059288789205547,-11.963022963493628,tremor
290,4085124,1.814,-0.5047677952760838,-0.2670778658017715,0.742023693092308,3.337286039951929,0.6773343716922937,-11.934341301889077,tremor
291,4085129,1.819,-0.5045204479799591,-0.266929368719526,0.7421008709113309,3.3371915658146563,0.6519427918509804,-11.910077638794435,tremor
