sample,t_ms,t_s,ax,ay,az,gx,gy,gz,tremor
0,6976682,0.0,-0.506794593971845,-0.3589967902524792,-0.8180850566862882,1.4240359024200944,-1.314165190015002,1.2907908232136156,tremor
1,6976687,0.005,-0.5062659423292967,-0.3589962410907619,-0.8183714458790505,1.5507445538087397,-1.7519323785592624,1.6573951694621902,tremor
2,6976692,0.01,-0.5055716703152616,-0.3589925413111824,-0.8187601489577115,1.6785529297120814,-2.186317614454284,2.0220517038882617,tremor
3,6976697,0.015,-0.5047243207442893,-0.3589844261182396,-0.8192529829431864,1.8060803543265223,-2.613358960249429,2.381853521044728,tremor
4,6976702,0.02,-0.5037766465716703,-0.3589713770434749,-0.8198297618025616,1.9318296775190655,-3.0289144114107636,2.7337260477414285,tremor
5,6976732,0.05,-0.5027993450891025,-0.3589539273966864,-0.8204587364059057,2.054191140724926,-3.4286908224313315,3.074438648763004,tremor
6,6976736,0.054,-0.501863064059827,-0.3589335894384634,-0.8211059567916621,2.1714473608414324,-3.808276458688883,3.400617998642409,tremor
7,6976742,0.06,-0.5010299697666046,-0.3589126393384689,-0.8217401370252065,2.281779443452134,-4.163177128599748,3.7087632081839694,tremor
8,6976747,0.065,-0.5003519632797484,-0.35889391091242157,-0.8223340848586176,2.383274230080267,-4.488855817214415,3.995262678601285,tremor
9,6976751,0.069,-0.4998719381905657,-0.35888064611002035,-0.8228644057238242,2.4739326771967103,-4.7807757066011085,4.256412641372389,tremor
10,6976761,0.079,-0.4996258325111988,-0.35887639806107197,-0.8233106429993124,2.55167935639099,-5.034446429230325,4.488437327696792,tremor
11,6976766,0.084,-0.49964448241437825,-0.35888496864909974,-0.8236544140817672,2.6143730555220643,-5.24547335770354,4.687510696730235,tremor
12,6976771,0.089,-0.49995499070080557,-0.3589103646064795,-0.8238787354526012,2.659818449735117,-5.409609688014355,4.849779636056433,tremor
13,6976776,0.094,-0.5005816218926634,-0.3589567615616177,-0.8239675614796421,2.6857787986544195,-5.522811024764244,4.971388531291072,tremor
14,6976781,0.099,-0.5015463262148,-0.3590284700038934,-0.8239055024552895,2.6899896119279134,-5.581292125891453,5.0485050848599435,tremor
15,6976786,0.104,-0.5028689999247344,-0.35912990006134426,-0.823677676284096,2.670173210104791,-5.5815854117927,5.077347247357317,tremor
16,6976791,0.109,-0.5045675684544257,-0.35926552366849857,-0.8232696541528609,2.624054091848704,-5.5206007890819935,5.054211108332521,tremor
17,6976796,0.114,-0.5066579549531572,-0.35943983360802717,-0.8226674701786494,2.549375001770187,-5.3956862822853795,4.975499576156691,tremor
18,6976801,0.119,-0.5091539773191092,-0.3596572993827949,-0.8218576737398215,2.443913576308428,-5.204688907415791,4.837751658437691,tremor
19,6976805,0.123,-0.5120672027218945,-0.3599223201221595,-0.8208274098112042,2.305499429597057,-4.946015159433168,4.637672135845631,tremor
20,6976810,0.128,-0.5154067790528106,-0.36023917486251306,-0.8195645172656524,2.132031528771029,-4.618690420078075,4.372161404178088,tremor
21,6976815,0.133,-0.5191792564687717,-0.3606119706259678,-0.8180576382170867,1.9214956996189947,-4.222416521851375,4.038345242758122,tremor
22,6976825,0.143,-0.5233884081743605,-0.36104458878086787,-0.8162963335088627,1.6719820987544538,-3.7576266264779954,3.633604251988362,tremor
23,6976850,0.168,-0.5280350570439313,-0.36154063021538174,-0.8142712007474622,1.3817024867189762,-3.225536490520888,3.155602688628823,tremor
24,6976854,0.172,-0.5331169130931935,-0.36210335989467374,-0.8119739920987744,1.0490071362558833,-2.6281910951323115,2.602316413133438,tremor
25,6976860,0.178,-0.538628425819363,-0.3627356514033478,-0.809397729577862,0.672401209709601,-1.9685055110106309,1.9720596480394308,tremor
26,6976864,0.182,-0.5445606548190858,-0.3634399320974003,-0.806536815890328,0.2505604378375617,-1.2502987581676888,1.2635102294870755,tremor
27,6976869,0.187,-0.5509011617232417,-0.3642181295040457,-0.8033871391000461,-0.2176540707252154,-0.4783193137357046,0.47573301645967936,tremor
28,6976874,0.192,-0.5576339262644713,-0.3650716196149012,-0.7999461695511532,-0.7331820633163173,0.3417391672211598,-0.3917988933688675,tremor
29,6976879,0.197,-0.5647392891513492,-0.36600117772001745,-0.7962130475902596,-1.296751596410975,1.203233412336564,-1.3391855036073503,tremor
30,6976884,0.202,-0.5721939243145902,-0.3670069324284688,-0.7921886607352189,-1.908867884403825,2.0985788916120414,-2.366084182192454,tremor
31,6976894,0.212,-0.579970842979436,-0.3680883235160519,-0.787875709030645,-2.5698037190310474,3.0192724733577476,-3.47169721118673,tremor
32,6976898,0.216,-0.5880394318755331,-0.36924406423155237,-0.7832787574253751,-3.2795916316733407,3.9559307978916163,-4.654762972818706,tremor
33,6976903,0.221,-0.5963655276961801,-0.3704721086788993,-0.7784042741091676,-4.038017965592148,4.898345639920978,-5.913551093893439,tremor
34,6976908,0.226,-0.6049115296405833,-0.3717696248719962,-0.7732606538602383,-4.844619015398138,5.835557281301003,-7.245861828170751,tremor
35,6976913,0.231,-0.6136365514974012,-0.3731329740308662,-0.7678582255869361,-5.698679374033573,6.75594655091469,-8.649029898176051,tremor
36,6976918,0.236,-0.6224966142425908,-0.3745576966509787,-0.7622092434015664,-6.599232601154309,7.647345707648624,-10.11993294476083,tremor
37,6976923,0.241,-0.6314448795216423,-0.37603850583133697,-0.7563278607482755,-7.545064290098011,8.497167760112431,-11.65500464448905,tremor
38,6976928,0.246,-0.6404319236610527,-0.3775692882900848,-0.750230087326021,-8.534717563786156,9.292553149874225,-13.250252450777232,tremor
39,6976932,0.25,-0.649406051003795,-0.3791431134278672,-0.7439337288066333,-9.566500973696009,10.020531986581661,-14.901279794733998,tremor
40,6976942,0.26,-0.6583136443896119,-0.3807522507177249,-0.7374583096486971,-10.638498711194979,10.668199224621656,-16.603312447588127,tremor
41,6976947,0.265,-0.6670995495107421,-0.38238819560478765,-0.7308249796483002,-11.74858296710728,11.222899326305916,-18.35122860155545,tremor
42,6976973,0.291,-0.6757074886857151,-0.38404170398851356,-0.7240564052395688,-12.894428192568366,11.672416091857732,-20.13959207528345,tremor
43,6976977,0.295,-0.6840804983504672,-0.38570283523418947,-0.7171766469428846,-14.073526922037269,12.005162513070497,-21.962687905659852,tremor
44,6976982,0.3,-0.6921613833567477,-0.38736100351959035,-0.7102110247211717,-15.283206722907394,12.210364852092052,-23.814559474347604,tremor
45,6976987,0.305,-0.699893180139556,-0.3890050371700903,-0.7031859732919836,-16.520647748857044,12.278234829344878,-25.689046268170998,tremor
46,6976992,0.31,-0.7072196201404181,-0.3906232454771585,-0.6961288896022892,-17.782900314371116,12.20012394252412,-27.57982141069994,tremor
47,6977002,0.32,-0.7140855846926083,-0.3922034923400545,-0.6890679746735241,-19.066901892253586,11.968654526259437,-29.480428225845323,tremor
48,6977007,0.325,-0.7204375429689598,-0.39373327593022833,-0.6820320718656266,-20.36949297590539,11.577823112752952,-31.38431528100119,tremor
49,6977012,0.33,-0.7262239655949536,-0.39519981346657845,-0.6750505033059603,-21.68743135115242,11.023072882867305,-33.2848695812182,tremor
50,6977017,0.335,-0.7313957081369958,-0.39659013012330285,-0.668152905801501,-23.01740448960573,10.30133344115797,-35.175447824082305,tremor
51,6977022,0.34,-0.7359063608402152,-0.39789115108514717,-0.6613690670224222,-24.35603999517698,9.41102773593229,-37.04940585740659,tremor
52,6977036,0.354,-0.739712563594096,-0.39908979582571846,-0.6547287621420254,-25.699914281810464,8.352047585987435,-38.90012669209508,tremor
53,6977041,0.359,-0.742774287942762,-0.40017307381125683,-0.6482615904833242,-27.045559902241127,7.1257008678009335,-40.72104759741499,tremor
54,6977046,0.364,-0.745055090730992,-0.40112818100972697,-0.6419968111121556,-28.389472155592564,5.7346348475592555,-42.50568693236252,tremor
55,6977055,0.373,-0.74652234631924,-0.4019425967839655,-0.635963175799699,-29.728115752676477,4.182741292435664,-44.24767143133591,tremor
56,6977070,0.388,-0.7471474658509559,-0.40260418092789385,-0.630188757430421,-31.057932396457865,2.475049774242383,-45.940764655430705,tremor
57,6977101,0.419,-0.7469061125443275,-0.40310127072181046,-0.6247007718351738,-32.37535013254608,0.617615937192811,-47.57889723871466,tremor
58,6977106,0.424,-0.7457784212646542,-0.40342277789337544,-0.6195253912688895,-33.67679523360095,-1.3825886125121178,-49.15619940123877,tremor
59,6977111,0.429,-0.7437492287174334,-0.40355828524588355,-0.614687548399849,-34.95870719766058,-3.5177788043914413,-50.66703597224046,tremor
60,6977116,0.434,-0.7408083176789279,-0.4034981424581182,-0.6102107307415637,-36.217557173483705,-5.7794462491298715,-52.10604388610557,tremor
61,6977120,0.438,-0.7369506751107732,-0.40323356021297646,-0.6061167668480247,-37.44986980685377,-8.158434018483748,-53.46817180945926,tremor
62,6977130,0.448,-0.7321767601977757,-0.4027567014397749,-0.6024256071408269,-38.65224817032792,-10.644995019376008,-54.74872125779601,tremor
63,6977135,0.453,-0.7264927746522609,-0.4020607681195258,-0.5991551037569541,-39.82140112682268,-13.22883490382381,-55.943388282865456,tremor
64,6977140,0.458,-0.7199109243082904,-0.4011400818499318,-0.5963207951345267,-40.95417220372784,-15.899142260688256,-57.04830457226148,tremor
65,6977145,0.463,-0.7124496582858643,-0.39999015622789236,-0.593935702057808,-42.047568831977735,-18.644610313765213,-58.06007661732662,tremor
66,6977154,0.472,-0.7041338699870157,-0.39860775909733204,-0.5920101424692332,-43.09879064622941,-21.4534553884939,-58.97582149214272,tremor
67,6977159,0.477,-0.6949950429954115,-0.3969909628289361,-0.5905515724814646,-44.10525546070632,-24.313437946208932,-59.793197759325594,tremor
68,6977164,0.482,-0.6850713246773874,-0.39513918103265244,-0.5895644606849944,-45.064621542188675,-27.211892010244405,-60.51043008922649,tremor
69,6977169,0.487,-0.6744075110253608,-0.39305319043298736,-0.5890502020702287,-45.97480490518584,-30.13576833794813,-61.12632635436939,tremor
70,6977174,0.492,-0.6630549281277076,-0.39073513703811125,-0.5890070767111876,-46.833990553727936,-33.071695770209686,-61.64028623130528,tremor
71,6977179,0.497,-0.6510711986002504,-0.38818852618369876,-0.5894302568600426,-47.640636876864924,-36.006063898676466,-62.05230067894233,tremor
72,6977184,0.502,-0.6385198852838636,-0.3854181965103701,-0.5903118643673704,-48.393472749669236,-38.925128634821014,-62.36294203058851,tremor
73,6977188,0.506,-0.6254700093400589,-0.3824302784217992,-0.5916410784672651,-49.09148727470074,-41.815140539845565,-62.57334481029635,tremor
74,6977194,0.512,-0.6119954453614167,-0.3792321380542387,-0.5934042920378532,-49.73391249914451,-44.662493960083786,-62.68517774934472,tremor
75,6977222,0.54,-0.5981742020154005,-0.3758323082536392,-0.5955853125473524,-50.320199842123465,-47.45389318869193,-62.700607828490774,tremor
76,6977226,0.544,-0.5840876027214474,-0.3722404084852239,-0.5981656021110193,-50.849991344103536,-50.1765301543425,-62.62225749224314,tremor
77,6977231,0.549,-0.5698193863998344,-0.36846705596066537,-0.6011245495315012,-51.32308717120303,-52.81826670990708,-62.453156441045664,tremor
78,6977236,0.554,-0.555454752740226,-0.3645237705151691,-0.6044397660184999,-51.73941102662199,-55.367813692205516,-62.19668956258815,tremor
79,6977242,0.56,-0.5410793791151591,-0.36042287586088223,-0.6080873956046705,-52.098975209706815,-57.814898689932775,-61.85654259031185,tremor
80,6977246,0.564,-0.526778436977315,-0.35617739977039403,-0.6120424311330401,-52.40184702463938,-60.15041484451786,-61.43664699258284,tremor
81,6977251,0.569,-0.5126356344985946,-0.3518009755192065,-0.6162790270428936,-52.64811810088402,-62.366543851577035,-60.94112544249069,tremor
82,6977256,0.574,-0.4987323096988661,-0.3473077465668159,-0.620770800944079,-52.837877971037834,-64.45684747323959,-60.37423903266759,tremor
83,6977261,0.579,-0.48514659474943395,-0.3427122760116855,-0.6254911170599746,-52.971192977109666,-66.41632321734865,-59.740337201125456,tremor
84,6977266,0.584,-0.4719526678547318,-0.3380294618444835,-0.6304133459566265,-53.04809126025813,-68.24142132894079,-59.043811130714,tremor
85,6977271,0.589,-0.459220104413556,-0.33327445847573517,-0.6355110964793105,-53.068554248614525,-69.93002182660476,-58.289051180285846,tremor
86,6977276,0.594,-0.44701333430632795,-0.3284626044585927,-0.6407584174067796,-53.03251471063194,-71.48137195868516,-57.48040870263656,tremor
87,6977281,0.599,-0.43539120738332154,-0.32360935579541245,-0.6461299679271427,-52.939861106436034,-72.89598610720046,-56.62216240473608,tremor
88,6977285,0.603,-0.42440666474299615,-0.3187302237399451,-0.6516011575578802,-52.79044766580177,-74.17551178223701,-55.718489211747645,tremor
89,6977290,0.608,-0.4141065093621353,-0.3138407156188362,-0.657148257496437,-52.584109363249134,-75.32256687541815,-54.77343941079142,tremor
90,6977295,0.613,-0.40453126622062724,-0.3089562769318306,-0.6627484865207026,-52.32068075514268,-76.34055472634661,-53.79091567715485,tremor
91,6977300,0.618,-0.3957151193838276,-0.3040922328818744,-0.6683800753961716,-52.00001749000786,-77.23346474918941,-52.774655429230336,tremor
92,6977315,0.633,-0.38768591166659366,-0.29926372755823233,-0.6740223142469286,-51.62201919759041,-78.00566731274726,-51.72821582597917,tremor
93,6977341,0.659,-0.3804651915793884,-0.29448565925980663,-0.67965558749514,-51.1866524036258,-78.66171218687124,-50.654960626387634,tremor
94,6977351,0.669,-0.3740682923283548,-0.2897726108966865,-0.6852614007776653,-50.69397211618652,-79.20614001598676,-49.55804809973316,tremor
95,6977356,0.674,-0.36850442882392165,-0.2851387750099463,-0.6908224037464256,-50.14414080997678,-79.64331575099546,-48.44041923980342,tremor
96,6977366,0.684,-0.36377680103871923,-0.2805978736289486,-0.6963224119201827,-49.537443720621184,-79.97729162342316,-47.304785711519244,tremor
97,6977371,0.689,-0.3598826955701584,-0.27616307384843064,-0.7017464298641851,-48.87429965015609,-80.21170516426058,-46.15361722542106,tremor
98,6977376,0.694,-0.35681358157428267,-0.27184690057929634,-0.7070806770024962,-48.155266843619636,-80.3497152589158,-44.98912834554971,tremor
99,6977381,0.699,-0.35455520183075145,-0.2676611483718007,-0.7123126163598381,-47.38104387898517,-80.39397663914656,-43.81326503912254,tremor
100,6977385,0.703,-0.3530876640518694,-0.26361679452425885,-0.7174309855115377,-46.552465883072685,-80.34665079210043,-42.6276915403446,tremor
101,6977390,0.708,-0.3523855412672806,-0.25972391588593247,-0.722425828016453,-45.67049672174402,-80.20944915704099,-41.4337783109554,tremor
102,6977395,0.713,-0.3524179929598463,-0.25599161185395075,-0.72728852265165,-44.73621809495354,-79.98370276954209,-40.23259202807641,tremor
103,6977400,0.718,-0.3531489204658052,-0.2524279360627518,-0.7320118069037083,-43.7508166776362,-79.67045125748669,-39.02488860810453,tremor
104,6977405,0.723,-0.3545371709153738,-0.24903983917684044,-0.7365897904582003,-42.715570572077425,-79.27054331324968,-37.811110278883724,tremor
105,6977410,0.728,-0.35653680365210155,-0.2458331250241947,-0.7410179539402211,-41.631836371288415,-78.7847404507134,-36.591387640214926,tremor
106,6977415,0.733,-0.35909743163742786,-0.24281242204389045,-0.7452931279811712,-40.50103807778308,-78.21381597889736,-35.365547508321875,tremor
107,6977425,0.743,-0.362164647860389,-0.23998117165954003,-0.7494134479044013,-39.32465898199867,-77.55864165711986,-34.13312713229205,tremor
108,6977429,0.747,-0.3656805433134004,-0.23734163472241457,-0.7533782799991906,-38.10423738453762,-76.82025541175737,-32.89339511430465,tremor
109,6977434,0.752,-0.3695843188002751,-0.23489491659174033,-0.7571881165254447,-36.84136675454058,-75.99990476897163,-31.645379076749435,tremor
110,6977439,0.757,-0.3738129879011555,-0.23264101073945934,-0.7608444382658286,-35.537700565850535,-75.0990622660674,-30.38789981226988,tremor
111,6977466,0.784,-0.3783021630607196,-0.23057885999877564,-0.76434954557592,-34.19496166327833,-74.11941099294732,-29.119611340107156,tremor
112,6977471,0.789,-0.382986911278708,-0.22870643375552469,-0.767706361351067,-32.814955614334934,-73.06280047572345,-27.839045989333034,tremor
113,6977476,0.794,-0.38780266066879726,-0.2270208185753547,-0.7709182118822447,-31.39958714269081,-71.93117517730865,-26.544663358603913,tremor
114,6977481,0.799,-0.39268613473500086,-0.2255183190643562,-0.7739885938537894,-29.950878468919967,-70.72647976038832,-25.23490178830414,tremor
115,6977486,0.804,-0.3975762880829206,-0.22419456527148496,-0.7769209373892251,-28.4709882318505,-69.45054679470118,-23.908230840738913,tremor
116,6977490,0.808,-0.40241521569355637,-0.22304462270960276,-0.7797183758735144,-26.96222962295846,-68.10497375546207,-22.563203215761643,tremor
117,6977495,0.813,-0.4071490078283583,-0.22206310109352326,-0.7823835332610548,-25.427086406582593,-66.69099698524215,-21.198504519712355,tremor
118,6977505,0.823,-0.4117285239462981,-0.22124425813052775,-0.7849183388303388,-23.868225592536263,-65.20937080709417,-19.812999343570095,tremor
119,6977515,0.833,-0.4161100615054256,-0.22058209510764484,-0.7873238780161903,-22.288505658549475,-63.66026017161968,-18.405772189500237,tremor
120,6977520,0.838,-0.4202558990135547,-0.22007044155898758,-0.7896002861893288,-20.690979378388253,-62.04315504051218,-16.97616191994415,tremor
121,6977525,0.843,-0.4241346970255913,-0.21970302692356894,-0.7917466902137617,-19.078890491358536,-60.35681407426532,-15.523788600344576,tremor
122,6977544,0.862,-0.4277217458063877,-0.21947353777590134,-0.7937612004481995,-17.45566364820081,-58.599244051966835,-14.048571870753687,tremor
123,6977549,0.867,-0.43099905391769344,-0.21937565988828486,-0.7956409537049413,-15.824887290631144,-56.7677198329255,-12.55074030603933,tremor
124,6977554,0.872,-0.43395527783678334,-0.21940310503421367,-0.7973822056424865,-14.190289374869307,-54.85884765657986,-11.03083159215585,tremor
125,6977559,0.877,-0.4365854986298843,-0.2195496230480876,-0.7989804692131218,-12.555706140138664,-52.868672261011326,-9.489683738134838,tremor
126,6977564,0.882,-0.43889085744364714,-0.2198090002106882,-0.8004306941425238,-10.925044449295958,-50.79282578074096,-7.928417945031028,tremor
127,6977596,0.914,-0.44087806693086895,-0.22017504553501824,-0.8017274809777735,-9.302238576411243,-48.62671379204088,-6.348414150704529,tremor
128,6977601,0.919,-0.4425588204763472,-0.22064156698578108,-0.8028653219809346,-7.6912026599410845,-46.36573138834837,-4.751280640415834,tremor
129,6977611,0.929,-0.4439491249233417,-0.22120234006793754,-0.8038388600717543,-6.095780342271086,-44.00550004183864,-3.1388194124381656,tremor
130,6977615,0.933,-0.4450685849980808,-0.22185107153745465,-0.8046431561939149,-4.519693331244466,-41.542114534716006,-1.5129891548182346,tremor
131,6977620,0.938,-0.44593966842392924,-0.22258136118693692,-0.8052739549912801,-2.966490714288927,-38.97238861819787,0.12413231354582185,tremor
132,6977625,0.943,-0.44658697971815303,-0.22338666472041002,-0.8057279386216638,-1.4395008300479966,-36.294088249780806,1.7703844425296595,tremor
133,6977635,0.953,-0.4470365680927762,-0.2242602606559755,-0.8060029589517402,0.058212619463868284,-33.506142080905654,3.423557758336284,tremor
134,6977640,0.958,-0.44731529112056356,-0.22519522399619363,-0.8060982392675909,1.5238887227728364,-30.608820118687415,5.0814239612594,tremor
135,6977645,0.963,-0.4474502512794316,-0.22618440910092705,-0.8060145379630341,2.955100524227855,-27.60387303689471,6.7417615295176745,tremor
136,6977649,0.967,-0.44746831751267274,-0.22722044380279302,-0.8057542683630022,4.349778224619608,-24.49462639015783,8.402376375574946,tremor
137,6977654,0.972,-0.4473957388382742,-0.2282957363388193,-0.8053215708066208,5.706223752110565,-21.28602593413707,10.061117413835904,tremor
138,6977659,0.977,-0.44725785204429513,-0.22940249615239588,-0.8047223352415321,7.023116370193921,-17.984632303221012,11.71588718270534,tremor
139,6977664,0.982,-0.4470788807971659,-0.23053276906665335,-0.8039641747481907,8.299509327608048,-14.598565366828643,13.36464791410879,tremor
140,6977669,0.987,-0.44688181920161124,-0.23167848676228053,-0.8030563525037528,9.53481788625058,-11.137400604631537,15.005423657534648,tremor
141,6977673,0.991,-0.4466883890911942,-0.2328315299261402,-0.8020096665993441,10.728799375330308,-7.6120217559221155,16.636299242158472,tremor
142,6977678,0.996,-0.4465190571849434,-0.23398380388754106,-0.8008362987401819,11.881526203769226,-4.0344357660331776,18.255416996893093,tremor
143,6977683,1.001,-0.446393095796894,-0.23512732504210432,-0.7995496341008826,12.99335301225129,-0.4175576318424279,19.86097223997675,tremor
144,6977688,1.006,-0.44632866910542446,-0.23625431589325077,-0.7981640604233321,14.064879358615467,3.225025906068526,21.451208593057974,tremor
145,6977714,1.032,-0.44634292614151166,-0.23735730613092007,-0.7966947548112531,15.096909503577402,6.879303819960248,23.02441416724159,tremor
146,6977724,1.042,-0.44645208170054945,-0.23842923682934947,-0.795157466602701,16.090410990440233,10.531088721126158,24.578919606402476,tremor
147,6977729,1.047,-0.44667146741649133,-0.23946356460132673,-0.7935683042201617,17.0464737706442,14.16625445813541,26.11309884654524,tremor
148,6977734,1.052,-0.44701553739413386,-0.24045436242623372,-0.7919435330614685,17.966271584872825,17.77095322898687,27.62537324729784,tremor
149,6977739,1.057,-0.44749781615164375,-0.2413964139026821,-0.790299390382504,18.85102715018639,21.331803505152273,29.114219473652753,tremor
150,6977744,1.062,-0.44813078107294124,-0.24228529787264838,-0.7886519218296482,19.701982444202773,24.836042151300678,30.57818117584739,tremor
151,6977753,1.071,-0.4489256768042806,-0.24311746070604046,-0.7870168428951896,20.52037505462541,28.271636526499336,32.01588416911746,tremor
152,6977758,1.076,-0.44989226464921933,-0.2438902739914782,-0.785409427158537,21.307421207634302,31.627354811301004,33.426054487122386,tremor
153,6977763,1.081,-0.4510385156036356,-0.24460207591847966,-0.7838444217843049,22.064305720998835,34.89279515835099,34.80753839930459,tremor
154,6977768,1.086,-0.45237026082068443,-0.24525219522968864,-0.7823359894085927,22.792178762918628,38.058376402684885,36.15932326231807,tremor
155,6977773,1.091,-0.4538908176326303,-0.24584095724362234,-0.7808976742877515,23.492158951180095,41.115294917005855,37.48055792948186,tremor
156,6977778,1.096,-0.4556006124903157,-0.24636967207455712,-0.7795423894397654,24.165342011610562,44.05545371883618,38.77057137097029,tremor
157,6977783,1.101,-0.4574968241331525,-0.24684060578393213,-0.778282420507011,24.812813938325117,46.871371110250244,40.02888815696154,tremor
158,6977787,1.105,-0.45957307090797317,-0.24725693576625948,-0.7771294412423726,25.435667369076064,49.55607692992078,41.25523952267878,tremor
159,6977792,1.11,-0.4618191654364881,-0.24762269218298705,-0.776094534904277,26.035019719043063,52.10300488928573,42.449568865674806,tremor
160,6977797,1.115,-0.46422095786720313,-0.24794268769217084,-0.775188215480063,26.6120315195196,54.5058894357915,43.612030716653955,tremor
161,6977802,1.12,-0.4667602858519758,-0.24822243806293565,-0.7744204425841619,27.16792339279023,56.75867515405141,44.74298246628957,tremor
162,6977807,1.125,-0.4694150452991666,-0.24846807649510477,-0.7738006241425491,27.703990159642963,58.85544591831104,45.84296841150662,tremor
163,6977812,1.13,-0.47215939103538856,-0.24868626457075704,-0.773337601619672,28.221610713187196,60.79037988748873,46.91269599755956,tremor
164,6977839,1.157,-0.47496407093955356,-0.24888410273195208,-0.7730396135946478,28.722252493217315,62.55773502639391,47.95300447068292,tremor
165,6977844,1.162,-0.4777968911250317,-0.24906904299707244,-0.7729142349381889,29.207469652606353,64.15186818752547,48.96482650990019,tremor
166,6977849,1.167,-0.4806233036590909,-0.24924880629592738,-0.7729682906061078,29.678894314730936,65.56728895522508,49.949143754806784,tremor
167,6977853,1.171,-0.4834071025411802,-0.2494313063360105,-0.7732077450044476,30.138220668311114,66.79874751892912,50.906937458782984,tremor
168,6977858,1.176,-0.4861112086226981,-0.24962458134269128,-0.7736375698097612,30.58718201524625,67.8413539080889,51.83913574876244,tremor
169,6977863,1.181,-0.4886985200988447,-0.2498367343903511,-0.7742615948750424,31.02752125441964,68.69072409661311,52.746559154395015,tremor
170,6977873,1.191,-0.4911328022118927,-0.250075882406233,-0.7750823482974353,31.46095562783218,69.34314686543945,53.62986618435001,tremor
171,6977878,1.196,-0.49337958785366093,-0.2503501133239221,-0.7761008927972255,31.88913685775137,69.79576398411916,54.48950077851514,tremor
172,6977883,1.201,-0.4954070598236789,-0.2506674503210396,-0.7773166662179546,32.31360805086939,70.04675532358914,55.32564344965987,tremor
173,6977887,1.205,-0.497186885600712,-0.251035821622515,-0.7787273341844471,32.735758926168195,70.09552001576185,56.138167843474584,tremor
174,6977892,1.21,-0.4986949766363015,-0.25146303400765446,-0.7803286627550443,33.15678103154866,69.9428447513647,56.92660429379613,tremor
175,6977897,1.215,-0.49991214636110903,-0.2519567479392395,-0.7821144183174983,33.57762465183171,69.59105071349032,57.69011173985611,tremor
176,6977902,1.22,-0.5008246442343924,-0.2525244521404458,-0.7840763010762,33.9989590823271,69.04411141271015,58.427459118299,tremor
177,6977907,1.225,-0.5014245471441262,-0.2531734354780325,-0.7862039173445178,34.42113785147454,68.30773476298216,59.137017057488926,tremor
178,6977912,1.23,-0.501709994134032,-0.25391075416174447,-0.7884847945662062,34.84417032488967,67.38940407319973,59.81676039519665,tremor
179,6977916,1.234,-0.5016852556367953,-0.2547431925324614,-0.7909044416054619,35.2677009132073,66.29837418789589,60.46428171998904,tremor
180,6977921,1.239,-0.5013606339677505,-0.2556772160770414,-0.7934464554114773,35.6909968414626,65.04562074848262,61.07681580584235,tremor
181,6977926,1.244,-0.5007521976129743,-0.2567189157669671,-0.7960926737109437,36.11294512700897,63.64374240930579,61.651274472005134,tremor
182,6977931,1.249,-0.4998813576538246,-0.25787394336016034,-0.7988233719294118,36.53205906936703,62.10681776573803,62.184291060831725,tremor
183,6977936,1.254,-0.498774300316179,-0.25914743791767714,-0.8016175010996069,36.94649419373968,60.4502206670269,62.672273393221275,tremor
184,6977963,1.281,-0.4974612949076116,-0.2605439444523553,-0.8044529620889745,37.3540732242672,58.69039942803228,63.111463746371285,tremor
185,6977968,1.286,-0.49597590106144995,-0.26206732631804175,-0.8073069100916491,37.7523193099071,56.84462712737588,63.49800412219964,tremor
186,6977973,1.291,-0.4943541029139675,-0.2637206736192835,-0.8101560820480977,38.13849640983583,54.93073151907314,63.82800487272806,tremor
187,6977978,1.296,-0.49263340020323454,-0.2655062105047869,-0.812977138602637,38.509655495888914,52.966813882185996,64.09761466350987,tremor
188,6977983,1.301,-0.49085188698688526,-0.26742520463543495,-0.8157470115254715,38.86268506492713,50.97096627109535,64.30308980743636,tremor
189,6977988,1.306,-0.48904734769600894,-0.26947788234909636,-0.8184432473018987,39.194364371895496,48.96099616726635,64.4408611673811,tremor
190,6977992,1.31,-0.4872563978171069,-0.2716633530758681,-0.8210443378394916,39.50141778319676,46.95416663132411,64.50759706340679,tremor
191,6977997,1.315,-0.48551369298566116,-0.2739795464061393,-0.8235300299244266,39.780568703322565,44.9669588508614,64.50026089304339,tremor
192,6978002,1.32,-0.48385122602574804,-0.27642316490282065,-0.8258816061093064,40.02859164346902,43.014862566957156,64.41616246282967,tremor
193,6978007,1.325,-0.4822977267672331,-0.27898965530064845,-0.8280821310650253,40.24236117439374,41.11219831611305,64.25300232692155,tremor
194,6978012,1.33,-0.48087817455862697,-0.2816732001714763,-0.8301166589962554,40.41889672873809,39.271973815158944,64.00890872754901,tremor
195,6978022,1.34,-0.4796134284787641,-0.2844667314768706,-0.831972399412509,40.55540248169357,37.505775210488125,63.68246702392782,tremor
196,6978032,1.35,-0.4785199755185584,-0.28736196670104636,-0.833638840265513,40.64930183379684,35.82369238053694,63.272741766229124,tremor
197,6978036,1.354,-0.477609792643731,-0.29034946748384083,-0.8351078290994917,40.69826633008891,34.234276120838466,62.77929179521938,tremor
198,6978046,1.364,-0.4768903148903517,-0.2934187198865319,-0.8363736142906908,40.700239146939175,32.744523989347165,62.202178896339724,tremor
199,6978051,1.369,-0.4763644987551299,-0.2965582346626761,-0.8374328495522491,40.65345351934719,31.359890973529723,61.54197058893946,tremor
200,6978056,1.374,-0.47603096836415243,-0.29975566521892644,-0.8382845655590278,40.55644662426254,30.0843210106494,60.79973759195435,tremor
201,6978087,1.405,-0.475884231374495,-0.30299794038706684,-0.8389301127743924,40.40806945435272,28.92029569495241,59.97704640662864,tremor
202,6978092,1.41,-0.4759149522506614,-0.306271408736592,-0.8393730793760833,40.20749312141893,27.868897102036502,59.07594733672951,tremor
203,6978107,1.425,-0.47611027220413943,-0.3095619909795342,-0.8396191876834675,39.954211868258355,26.92988235830043,58.098958167159964,tremor
204,6978112,1.43,-0.47645416720001155,-0.31285533708018165,-0.8396761718354246,39.64804291321107,26.10176818056204,57.0490436714438,tremor
205,6978117,1.435,-0.4769278374196248,-0.3161369849624532,-0.83955363882479,39.289123161785255,25.381923976962856,55.92959112593667,tremor
206,6978136,1.454,-0.47751012292278683,-0.3193925181298657,-0.8392629145000157,38.87790281544476,24.766672225624017,54.744382061394944,tremor
207,6978140,1.458,-0.4781779407401923,-0.3226077199685521,-0.8388168758745745,38.41513597176751,24.25139481414809,53.49756055586606,tremor
208,6978145,1.463,-0.47890673831165637,-0.3257687229009129,-0.8382297710502108,37.901868404974614,23.830643936928347,52.19359844076512,tremor
209,6978150,1.468,-0.4796709573572009,-0.3288621508500363,-0.837517028219797,37.33942280249697,23.498256090278918,50.83725783587945,tremor
210,6978155,1.473,-0.48044450129218064,-0.33187525366039394,-0.8366950554988195,36.72938178766734,23.24746771330463,49.433551444212576,tremor
211,6978160,1.478,-0.4812011984784396,-0.3347960322237097,-0.8357810336654636,36.07356907689261,23.07103108545961,47.987701033939935,tremor
212,6978165,1.483,-0.4819152531229596,-0.33761335311660967,-0.8347927042021965,35.37402911124739,22.961329179113825,46.505094527976475,tremor
213,6978169,1.487,-0.4825616755695084,-0.34031705160437736,-0.8337481552768777,34.63300548015466,22.91048825157816,44.991242122498846,tremor
214,6978175,1.493,-0.48311668408307357,-0.3428980219330303,-0.8326656084443824,33.852918430253084,22.9104870337314,43.45173186662296,tremor
215,6978180,1.498,-0.4835580709595928,-0.34534829394129857,-0.8315632088703108,33.03634173550947,22.95326142916126,41.89218515332243,tremor
216,6978184,1.502,-0.4838655268283764,-0.3476610951818139,-0.8304588217714182,32.1859792025763,23.030803682893318,40.31821259191844,tremor
217,6978212,1.53,-0.4840209182530274,-0.34983089793817423,-0.8293698375441261,31.30464110168287,23.13525502373235,38.73537075027901,tremor
218,6978217,1.535,-0.48400851507222653,-0.3518534507444183,-0.8283129877411921,30.395220843957574,23.258990850717453,37.14912026390788,tremor
219,6978221,1.539,-0.48381516525680734,-0.3537257942386608,-0.8273041737034651,29.46067225585559,23.39469765587176,35.564785799392936,tremor
220,6978226,1.544,-0.4834304163240164,-0.355446261399559,-0.8263583093166289,28.503987806850077,23.53544108253611,33.98751832113792,tremor
221,6978236,1.554,-0.4828465835179134,-0.3570144624151313,-0.8254891790925709,27.528178109547735,23.67472480711999,32.422260042632914,tremor
222,6978241,1.559,-0.4820587660549982,-0.35843125461898645,-0.8247093125925108,26.536252931408665,23.806540253572894,30.87371236105538,tremor
223,6978250,1.568,-0.48106481378275373,-0.35969869810797106,-0.8240298761007695,25.531203849063772,23.925407438824426,29.346306998125012,tremor
224,6978255,1.573,-0.47986524762073857,-0.3608199978393324,-0.8234605823890281,24.515988559612502,24.026407453042523,27.844180517542277,tremor
225,6978260,1.578,-0.4784631381166519,-0.3617994332027195,-0.8230096193407888,23.49351675833156,24.10520717217235,26.371152365356632,tremor
226,6978265,1.583,-0.47686394727840836,-0.36264227627161744,-0.8226835980998206,22.4666374178626,24.15807677282146,24.930706577970156,tremor
227,6978270,1.588,-0.47507533945131014,-0.3633547001487085,-0.8224875212422381,21.438127273030073,24.18190048602276,23.525977309908566,tremor
228,6978275,1.593,-0.4731069673332709,-0.3639436790116799,-0.8224247712420041,20.41068033006981,24.174180828787108,22.159738335949164,tremor
229,6978280,1.598,-0.47097023923678305,-0.36441688161957686,-0.8224971192098157,19.386898270853468,24.1330363492445,20.834396668503516,tremor
230,6978284,1.602,-0.46867807343129564,-0.36478256013649774,-0.8227047535505627,18.369281695797262,24.057192768328548,19.551990393505672,tremor
231,6978289,1.607,-0.4662446448908055,-0.36504943615586927,-0.823046327825762,17.360222223506142,23.945967339195168,18.31419076237661,tremor
232,6978294,1.612,-0.4636851291212619,-0.3652265857591361,-0.8235190267485833,16.361995520963276,23.79924629945078,17.122308485020206,tremor
233,6978304,1.622,-0.4610154470671171,-0.365323325322197,-0.8241186489045362,15.376755360102003,23.61745546865783,15.977304056436802,tremor
234,6978308,1.626,-0.45825201452043474,-0.3653490996080071,-0.8248397045029923,14.406528777130346,23.401524331025396,14.879801829831237,tremor
235,6978335,1.653,-0.4554114990964696,-0.36531337348214177,-0.8256755262426184,13.45321235067354,23.152844301095666,13.830107437966806,tremor
236,6978339,1.657,-0.45251058777312625,-0.36522552839389494,-0.8266183912302978,12.518569526270456,22.873222228441215,12.828228079545646,tremor
237,6978349,1.667,-0.4495657681894002,-0.36509476460946627,-0.827659651828544,11.604228827803873,22.564830457042934,11.873895144566571,tremor
238,6978354,1.672,-0.446593127179904,-0.36493001008076975,-0.8287898733055392,10.711682751211908,22.23015482311645,10.96658865984321,tremor
239,6978359,1.677,-0.4436081701108699,-0.36473983677341054,-0.829998976201344,9.84228715798731,21.87194183001783,10.105563085542723,tremor
240,6978368,1.686,-0.4406256642388075,-0.3645323852292916,-0.8312763813849923,8.99726106756787,21.493145957427366,9.289874062525326,tremor
241,6978378,1.696,-0.4376595084495269,-0.36431529806640095,-0.8326111558531976,8.177686854860092,21.09687776745659,8.518405770418685,tremor
242,6978388,1.706,-0.434722630442117,-0.36409566299534096,-0.8339921574136505,7.38451095222845,20.68635326132816,7.789898587317997,tremor
243,6978392,1.71,-0.43182691092837777,-0.3638799657540177,-0.8354081765070401,6.618545202835419,20.264844862347076,7.102976736748291,tremor
244,6978402,1.72,-0.4289831330263492,-0.3636740531434865,-0.8368480735498264,5.8804690005304385,19.835634444250722,6.456175573091553,tremor
245,6978412,1.73,-0.4262009540263926,-0.3634831061173001,-0.8383009103148527,5.170832290726434,19.401968930948154,5.847968110055606,tremor
246,6978422,1.74,-0.4234888962794284,-0.3633116226627426,-0.8397560739941948,4.490059424631089,18.96701908475526,5.276790355833032,tremor
247,6978426,1.744,-0.42085435410944627,-0.3631634100319886,-0.8412033926939475,3.838453785429745,18.533842108591053,4.741064994859168,tremor
248,6978458,1.776,-0.41830361423411955,-0.36304158573401646,-0.842633241187335,3.216203058619843,18.1053485803645,4.239222954434017,tremor
249,6978468,1.786,-0.41584188793896715,-0.3629485865720474,-0.8440366358080768,2.623385003876443,17.684274026781242,3.7697224166057555,tremor
250,6978473,1.791,-0.41347335393320017,-0.3628861848976011,-0.8454053174255768,2.0599735928732206,17.273155185192568,3.3310648826068014,tremor
251,6978477,1.795,-0.4112012112305999,-0.3628555111586715,-0.8467318215436865,1.525845388753245,16.87431077152488,2.9218079699731043,tremor
252,6978482,1.8,-0.40902774147920096,-0.3628570817699532,-0.8480095347330279,1.0207860436771274,16.4898264220722,2.540574721232618,tremor
253,6978487,1.805,-0.40695437996256156,-0.3628908313528727,-0.8492327368429645,0.5444967779515931,16.12154341206429,2.186059323791467,tremor
254,6978492,1.81,-0.4049817941310908,-0.3629561484939181,-0.8503966287161583,0.09660068568597437,15.771050748006187,1.8570292753186,tremor
255,6978496,1.814,-0.4031099681075442,-0.3630519143446483,-0.8514973454094957,-0.32335130038747834,15.439680256360422,1.5523241681068474,tremor
256,6978501,1.819,-0.4013382912198465,-0.3631765436153233,-0.8525319551793241,-0.7158749490325146,15.12850433329768,1.2708514010916154,tremor
257,6978506,1.824,-0.39966564828392315,-0.3633280277680833,-0.8534984446981806,-1.0815479165107345,14.838336073570714,1.0115792519218154,tremor
258,6978511,1.829,-0.39809050910674276,-0.3635039804628618,-0.8543956911294803,-1.4210056770974542,14.569731560081577,0.7735278462595928,tremor
259,6978516,1.834,-0.3966110145171341,-0.3637016855163567,-0.8552234218030953,-1.7349382401684637,14.322994170351928,0.5557586403355826,tremor
260,6978521,1.839,-0.3952250561733594,-0.3639181477693475,-0.8559821623256058,-2.0240876325048323,14.098180843033395,0.3573630811181656,tremor
261,6978530,1.848,-0.3939303474626858,-0.36415014729224493,-0.8566731740490919,-2.289246061931361,13.895110346371933,0.17745112532379315,tremor
262,6978545,1.863,-0.3927244830303203,-0.36439429726990685,-0.8572983819420554,-2.5312546221156706,13.713373696358662,0.01514028498286462,tremor
263,6978581,1.899,-0.39160498489690915,-0.3646471056775501,-0.8578602940883924,-2.7510023494518347,13.55234697078117,-0.13045417660041714,tremor
264,6978586,1.904,-0.3905693337876245,-0.3649050404870811,-0.8583619143095931,-2.949425399739831,13.411206827716178,-0.26022735089646665,tremor
265,6978591,1.909,-0.3896149851970212,-0.3651645976566313,-0.858806649755124,-3.1275060757845665,13.288949026090759,-0.37509065389681734,tremor
266,6978596,1.914,-0.38873937076094467,-0.3654223706268659,-0.8591982156849286,-3.2862714144949803,13.184410138655437,-0.47597535776942956,tremor
267,6978601,1.919,-0.38793988654866196,-0.3656751195667182,-0.8595405399974372,-3.4267910429649375,13.096292454607806,-0.5638335330128627,tremor
268,6978611,1.929,-0.38721387079243147,-0.365919838249032,-0.8598376702678862,-3.550174040478666,13.023191828023844,-0.6396363984450455,tremor
269,6978620,1.938,-0.38655857426828183,-0.3661538162258094,-0.8600936861155062,-3.657564592634485,12.963627979816362,-0.7043702124214721,tremor
270,6978625,1.943,-0.38597112700409175,-0.366374693922008,-0.8603126195927179,-3.750136287223046,12.916076534241782,-0.7590299564469468,tremor
271,6978630,1.948,-0.3854485052005356,-0.36658050837790335,-0.8604983859676568,-3.829084973096899,12.879001885972189,-0.8046111582858915,tremor
272,6978644,1.962,-0.38498750219044064,-0.36676972763952775,-0.8606547267446093,-3.8956201796709085,12.850889864689373,-0.8421002729446566,tremor
273,6978654,1.972,-0.38458470693329766,-0.36694127220910916,-0.8607851660519482,-3.950955174203381,12.83027909830436,-0.8724640861249701,tremor
274,6978659,1.977,-0.3842364929737564,-0.3670945224922222,-0.860892980677751,-3.996295814471975,12.81578997439662,-0.8966386283769353,tremor
