sample,t_ms,t_s,ax,ay,az,gx,gy,gz,tremor
0,6938504,0.0,-0.26878150131750583,-0.4270632484480266,-0.9113995841794287,3.9542936644769306,-18.035564768173852,10.013735979283902,tremor
1,6938509,0.005,-0.2695928201130189,-0.42738337970432216,-0.9110368330879928,4.108729891203522,-19.50410525685497,10.235882269329505,tremor
2,6938519,0.015,-0.270776944760262,-0.42781925611324934,-0.910417245070591,4.233854329468106,-21.088311186422715,10.404170197925135,tremor
3,6938528,0.024,-0.272404779329921,-0.4283762904326766,-0.9094450198569026,4.325674143529261,-22.77869245272795,10.512289620500763,tremor
4,6938533,0.029,-0.2744914986345796,-0.42903741675234,-0.9080485285173104,4.380158177714173,-24.564185639757277,10.553921011411235,tremor
5,6938559,0.055,-0.2770150700988655,-0.42977444636027406,-0.9061836044428851,4.393269039757464,-26.432190577731383,10.522786179216835,tremor
6,6938564,0.06,-0.2799387687606158,-0.43055805840783534,-0.9038265004955285,4.360997422479779,-28.368628782905006,10.412702094761894,tremor
7,6938568,0.064,-0.2832255062602536,-0.4313628586210201,-0.9009656217869725,4.279398466627063,-30.35802459779582,10.217637521283208,tremor
8,6938573,0.069,-0.2868439751150508,-0.43216874169476216,-0.8975956170756825,4.144629933415163,-32.38360959184239,9.931772077775387,tremor
9,6938579,0.075,-0.290769787740964,-0.4329604247910569,-0.8937141629365482,3.952991917737498,-34.4274504774403,9.549557304562702,tremor
10,6938583,0.079,-0.29498436961862223,-0.43372639835511534,-0.8893206443448219,3.7009677922693722,-36.47060044603037,9.065779233730762,tremor
11,6938588,0.084,-0.2994732007032452,-0.43445788476350994,-0.8844158966218969,3.3852660296592596,-38.49327343767968,8.475621898671575,tremor
12,6938593,0.089,-0.3042241207478506,-0.4351480031249375,-0.8790024407275833,3.0028625051397966,-40.475040428881655,7.774731148376277,tremor
13,6938598,0.094,-0.30922593600249565,-0.4357911609757029,-0.8730848934960035,2.5510428354944747,-42.39504635917451,6.95927806432478,tremor
14,6938608,0.104,-0.31446735302507023,-0.43638263275849476,-0.8666703965140541,2.027444262673128,-44.232245820266776,6.026021212002424,tremor
15,6938613,0.109,-0.3199361913127467,-0.4369182748733837,-0.859768996502621,1.4300965419358742,-45.9656551071419,4.972366897294489,tremor
16,6938617,0.113,-0.3256188126406724,-0.4373943345343918,-0.852393953872164,0.7574612466027595,-47.574617689084654,3.796426542851931,tremor
17,6938622,0.118,-0.33149971303267783,-0.43780732069007416,-0.8445619753894633,0.008468857095115441,-49.03907961365932,2.4970702532648508,tremor
18,6938627,0.123,-0.3375612366116545,-0.4381539150282771,-0.8362933740571232,-0.8174470356215998,-50.339870823261485,1.0739756025740759,tremor
19,6938632,0.128,-0.34378338300529365,-0.4384309084734359,-0.8276121610212495,-1.7203191098420472,-51.45898785594392,-0.4723293442612952,tremor
20,6938637,0.133,-0.3501436897839164,-0.4386351537872456,-0.8185460738849587,-2.699619988842405,-52.37987293419458,-2.1404297697388928,tremor
21,6938642,0.138,-0.3566171785326914,-0.43876352840866784,-0.8091265447516186,-3.754240923937748,-53.08768403429295,-3.9279955809745264,tremor
22,6938647,0.143,-0.36317635807378745,-0.4388129040054479,-0.7993886103141794,-4.882476174886589,-53.56955019630891,-5.831761565183878,tremor
23,6938651,0.147,-0.369791281580804,-0.4387801207362535,-0.7893707655974211,-6.082013732517911,-53.8148061083491,-7.8475170956155536,tremor
24,6938656,0.152,-0.3764296563124323,-0.4386619652103167,-0.7791147626186107,-7.349932956659152,-53.81519990953164,-9.970106164129199,tremor
25,6938688,0.184,-0.383057005770091,-0.4384551517640903,-0.7686653552566618,-8.682709602219793,-53.5650682339974,-12.193438393690116,tremor
26,6938692,0.188,-0.3896368844884974,-0.43815630707514636,-0.7580699919868684,-10.07622857813733,-53.06147280232609,-14.510511532398919,tremor
27,6938697,0.193,-0.3961311455382823,-0.4377619583852269,-0.747378458823625,-11.525804631456907,-52.30429343256575,-16.913445740690175,tremor
28,6938702,0.198,-0.4025002602164879,-0.43726852576282516,-0.7366424757908261,-13.026210978012491,-51.296273285155856,-19.393529743067383,tremor
29,6938707,0.203,-0.4087036883435764,-0.4366723189354658,-0.7259152514616249,-14.57171571754261,-50.043013502914675,-21.941278625361267,tremor
30,6938712,0.208,-0.4147002960994773,-0.4359695392773688,-0.7152510014926045,-16.156125678064647,-48.55291606979875,-24.546502736849764,tremor
31,6938716,0.212,-0.4204488164698653,-0.4351562875456571,-0.7047044385089078,-17.772837134590358,-46.83707554178932,-27.19838683017451,tremor
32,6938721,0.217,-0.4259083452156395,-0.43422857790320757,-0.6943302420568287,-19.41489264423314,-44.90912217905494,-29.88557826045584,tremor
33,6938726,0.222,-0.4310388629195136,-0.4331823586352844,-0.6841825185239545,-21.075043036852186,-42.78502085593018,-32.59628277807836,tremor
34,6938731,0.227,-0.43580177121745367,-0.4320135397558264,-0.6743142618514766,-22.745813399463145,-40.48283188845156,-35.31836619273002,tremor
35,6938745,0.241,-0.44016042892457863,-0.430718027411462,-0.6647768264643188,-24.419571695151287,-38.02244153534101,-38.03945996684291,tremor
36,6938755,0.251,-0.4440806715921641,-0.4292917646375029,-0.6556194240662515,-26.088598470395315,-35.42527129868631,-40.74706862975407,tremor
37,6938765,0.261,-0.44753129635773065,-0.427730777624506,-0.6468886557271957,-27.745155952878527,-32.713976109195514,-43.428676817076855,tremor
38,6938770,0.266,-0.45048449318921685,-0.42603122626616596,-0.6386280899576097,-29.381554772279586,-29.912141813754182,-46.07185376813967,tremor
39,6938775,0.271,-0.4529162042732084,-0.42418945745619563,-0.63087789616908,-30.990216603449525,-27.043991927682736,-48.664353281869985,tremor
40,6938780,0.276,-0.4548063957455223,-0.4222020594686862,-0.62367454107438,-32.56373126324768,-24.134112362188457,-51.19420743128123,tremor
41,6938808,0.304,-0.45613923031000386,-0.4200659158558123,-0.6170505532779388,-34.09490717242636,-21.207200937720472,-53.64981273242085,tremor
42,6938812,0.308,-0.45690313527886484,-0.41777825764386217,-0.6110343587009722,-35.57681457033797,-18.287846174729403,-56.0200079085449,tremor
43,6938817,0.313,-0.4570907675837318,-0.4153367131594325,-0.6056501867615597,-37.00282137733527,-15.400337360553488,-58.29414284147238,tremor
44,6938822,0.318,-0.45669888446204693,-0.41273935547146406,-0.6009180445931963,-38.366622075948236,-12.568505460009257,-60.46213872402082,tremor
45,6938827,0.323,-0.45572813487604125,-0.409984748060633,-0.596853754219151,-39.662260384723666,-9.81559225365938,-62.514539795788686,tremor
46,6938832,0.328,-0.4541827915705171,-0.4070719898092415,-0.593469045617533,-40.88414681220516,-7.164143252577166,-64.44255734964135,tremor
47,6938837,0.333,-0.4520704466989459,-0.40400076067208757,-0.5907716970467528,-42.027072404610365,-4.635918484840644,-66.23810693749547,tremor
48,6938851,0.347,-0.4494016951180722,-0.400771369417106,-0.5887657128441633,-43.08622014222698,-2.2518141965427936,-67.89383987850869,tremor
49,6938861,0.357,-0.44618982888453557,-0.39738480461685316,-0.5874515281592623,-44.05717549116912,-0.031787909437232156,-69.4031702676969,tremor
50,6938871,0.367,-0.4424505643372383,-0.39384278964552255,-0.586826229775407,-44.93593756310019,2.005220772677919,-70.7602986759862,tremor
51,6938880,0.376,-0.43820181958422944,-0.3901478418207397,-0.586883782397729,-45.7189321561043,3.841380601600372,-71.9602336035686,tremor
52,6938885,0.381,-0.43346355545588616,-0.38630333507348114,-0.5876152506341495,-46.403027640556786,5.46007603335929,-72.99881149771551,tremor
53,6938890,0.386,-0.4282576873638066,-0.3823135647054953,-0.5890090083992163,-46.98555423912352,6.846035202611516,-73.8727158035517,tremor
54,6938895,0.391,-0.4226080694251881,-0.3781838119887161,-0.5910509295454197,-47.46432677303059,7.985479844397937,-74.57949512774668,tremor
55,6938900,0.396,-0.41654054607667945,-0.3739204056565452,-0.5937245560014339,-47.83767044724499,8.866295860809755,-75.11758020131998,tremor
56,6938905,0.401,-0.41008306053136384,-0.36953077679220386,-0.5970112423590592,-48.10444875111008,9.4782205572291,-75.48629895178068,tremor
57,6938931,0.427,-0.4032658040717722,-0.36502350327273797,-0.6008902784875588,-48.26409207501356,9.813040002081987,-75.68588864638166,tremor
58,6938936,0.432,-0.39612138556188475,-0.36040833980476283,-0.6053389941609328,-48.31662521278853,9.864787675853087,-75.7175037640771,tremor
59,6938941,0.437,-0.38868499704057635,-0.3556962297109265,-0.6103328516493042,-48.262691590123914,9.629933865099252,-75.58321803973334,tremor
60,6938951,0.447,-0.38099454927902665,-0.35089929500876993,-0.6158455335375328,-48.10357191384276,9.107554487200588,-75.28601906513828,tremor
61,6938955,0.451,-0.3730907511553858,-0.34603080196292346,-0.6218490335435949,-47.841195031893804,8.29946839136255,-74.8297939604649,tremor
62,6938960,0.456,-0.3650171087887124,-0.3411051001578368,-0.6283137578076227,-47.47813911535446,7.21033353203867,-74.21930491623874,tremor
63,6938965,0.461,-0.35681982445464316,-0.3361375341800171,-0.6352086431387758,-47.01762175679864,5.847694424628659,-73.46015378576166,tremor
64,6938975,0.471,-0.34854758104728795,-0.33114432815583467,-0.6425012972301033,-46.46347815570868,4.2219756813106715,-72.55873533252618,tremor
65,6938980,0.476,-0.3402512048025506,-0.32614244460187064,-0.6501581640613783,-45.82012717728408,2.346418997504708,-71.52217918205035,tremor
66,6938985,0.481,-0.33198320661465686,-0.3211494202442732,-0.6581447157587748,-45.09252567927954,0.23696356853654915,-70.35828097648131,tremor
67,6938989,0.485,-0.3237972099692828,-0.31618318257968037,-0.6664256701987592,-44.2861120603214,-2.0879275798599815,-69.07542366442304,tremor
68,6938994,0.49,-0.3157472807205826,-0.31126185191007005,-0.6749652317454087,-43.40674046305806,-4.607490588888104,-67.68249025637282,tremor
69,6938999,0.495,-0.30788718019174033,-0.3064035343238832,-0.6837273507908246,-42.46060745471236,-7.298926378820723,-66.18876971751908,tremor
70,6939004,0.5,-0.3002695680290877,-0.30162611156762553,-0.6926759963023559,-41.454173305056436,-10.137700587340975,-64.60385793783477,tremor
71,6939009,0.505,-0.29294518462774893,-0.2969470339252755,-0.7017754344246044,-40.39408018579783,-13.097868391638182,-62.93755590246048,tremor
72,6939014,0.51,-0.28596204460041746,-0.2923831220870876,-0.7109905053826295,-39.287069719291196,-16.15241407143527,-61.199767275922845,tremor
73,6939019,0.515,-0.2793646726208408,-0.2879503835548099,-0.7202868905227096,-38.139902300118074,-19.273594944192194,-59.4003976082518,tremor
74,6939023,0.519,-0.2731934110920885,-0.2836638484220554,-0.7296313613414975,-36.9592804946781,-22.43327956412541,-57.54925726942238,tremor
75,6939028,0.524,-0.2674838255974858,-0.27953742842152374,-0.7389920028214393,-35.751778590590945,-25.603270822248344,-55.65597002532886,tremor
76,6939055,0.551,-0.26226622917151593,-0.2755838019882499,-0.7483384043301101,-34.52378002499434,-28.755605786473208,-53.72988889499065,tremor
77,6939060,0.556,-0.25756534032684053,-0.27181432680758405,-0.7576418127550865,-33.281423983577575,-31.862825717479833,-51.78002059183288,tremor
78,6939065,0.561,-0.25340008285828597,-0.26823897998280716,-0.766875244390932,-32.03056195669211,-34.89821160920402,-49.814959470631365,tremor
79,6939069,0.565,-0.24978352822166996,-0.26486632468398535,-0.7760135542576276,-30.77672450152289,-37.835982743833156,-47.84283149551931,tremor
80,6939074,0.57,-0.24672297430926632,-0.2617035010418744,-0.7850334638322786,-29.52509793044302,-40.65145800480168,-45.87124833364473,tremor
81,6939079,0.575,-0.24422014816536988,-0.25875623820490623,-0.7939135504144504,-28.28051015972851,-43.32118191437783,-43.907271282869445,tremor
82,6939084,0.58,-0.24227151488641357,-0.2560288839101493,-0.8026342033342756,-27.047424530878978,-45.82301941944476,-41.95738437503975,tremor
83,6939104,0.6,-0.24086867079165403,-0.253524447626682,-0.8111775538093283,-25.82994006936053,-48.13622523806529,-40.02747566938602,tremor
84,6939108,0.604,-0.23999879604707797,-0.2512446532965679,-0.8195273863666447,-24.6317963849188,-50.24149499847926,-38.12282547791447,tremor
85,6939113,0.609,-0.23964514039520213,-0.24918999790234064,-0.8276690403101611,-23.456381269536998,-52.12100628612283,-36.24810007581314,tremor
86,6939118,0.614,-0.2397875156195764,-0.24735981250041092,-0.8355893096941313,-22.306739048116643,-53.758457856791885,-34.40734938628326,tremor
87,6939123,0.619,-0.24040276994190102,-0.24575232293799223,-0.8432763496563664,-21.18557790150564,-55.13911457221205,-32.60400721767219,tremor
88,6939132,0.628,-0.24146522266943207,-0.244364708170163,-0.8507195958200122,-20.095274696274014,-56.249864166780704,-30.840892861942187,tremor
89,6939137,0.633,-0.24294704190374658,-0.24319315486379975,-0.8579097018825477,-19.037876283316855,-57.07928997557845,-29.120213201837117,tremor
90,6939142,0.638,-0.24481855374088032,-0.2422329077699902,-0.8648384985854924,-18.015096732027995,-57.61776142889923,-27.4435648825799,tremor
91,6939147,0.643,-0.24704847786205905,-0.24147831612702536,-0.8714989751021266,-17.02831052215714,-57.85754156763869,-25.811936553453556,tremor
92,6939185,0.681,-0.24960409141888817,-0.24092287709016744,-0.8778852815909909,-16.078542297151333,-57.79290816931616,-24.225711646879446,tremor
93,6939200,0.696,-0.25245133021786614,-0.2405592778390944,-0.8839927493594222,-15.166454350365715,-57.42028248380746,-22.684672596157014,tremor
94,6939204,0.7,-0.2555548426984067,-0.24037943853742597,-0.8898179229616952,-14.292333492317281,-56.73835739793912,-21.18800773176981,tremor
95,6939210,0.706,-0.258878017104323,-0.2403745586341006,-0.8953585969155602,-13.456079232463976,-55.748215508342156,-19.73432226422619,tremor
96,6939215,0.711,-0.26238300470971415,-0.24053516903210112,-0.9006138488504145,-12.657195240830921,-54.45342734628617,-18.3216547220124,tremor
97,6939219,0.715,-0.26603076171135076,-0.24085119238693223,-0.9055840609286363,-11.894785859924639,-52.86012075692991,-16.947500000579158,tremor
98,6939224,0.72,-0.2697811298524898,-0.2413120132811066,-0.910270922222404,-11.167559102798569,-50.977013823051415,-15.608839867551202,tremor
99,6939229,0.725,-0.2735929717345087,-0.24190655933299188,-0.9146774061690434,-10.473837179074238,-48.81540540445994,-14.302181423309113,tremor
100,6939234,0.73,-0.2774243718058981,-0.24262339352140125,-0.9188077190405496,-9.811575180876542,-46.389119161653525,-13.023603666629914,tremor
101,6939239,0.735,-0.28123290872966733,-0.2434508172105803,-0.9226672173537697,-9.178388153502762,-43.71439877265334,-11.768811976428664,tremor
102,6939244,0.74,-0.2849759996028171,-0.24437698259879737,-0.9262622941620563,-8.57158638036643,-40.809753892329866,-10.533200002851007,tremor
103,6939248,0.744,-0.28861131160595166,-0.24539001263079474,-0.929600236085169,-7.988218335721647,-37.695758202804484,-9.311918173740187,tremor
104,6939253,0.749,-0.29209723228919926,-0.24647812584310527,-0.932689054657888,-7.425120411622144,-34.394802618621625,-8.099947773795806,tremor
105,6939258,0.754,-0.2953933859864858,-0.24762976317574623,-0.9355372970399126,-6.878972220915797,-30.930808301099876,-6.892179346975494,tremor
106,6939263,0.759,-0.2984611808838421,-0.24883371349985745,-0.938153842281966,-6.346356029459289,-27.328905570690893,-5.683494006758045,tremor
107,6939268,0.764,-0.30126436910628074,-0.25007923448728764,-0.9405476901544365,-5.8238186871424285,-23.615086060581334,-4.4688461119305725,tremor
108,6939273,0.769,-0.303769600867786,-0.2513561654874422,-0.9427277499988354,-5.307934312241355,-19.815836510730765,-3.243345677839251,tremor
109,6939300,0.796,-0.30594695326899785,-0.25265502927375333,-0.9447026371582774,-4.795365938384937,-15.957763443508808,-2.0023388455449855,tremor
110,6939305,0.801,-0.30777041472440875,-0.2539671198626988,-0.9464804842956054,-4.282924360802962,-12.067218563493698,-0.7414847240478435,tremor
111,6939310,0.806,-0.30921830722686916,-0.25528457407018396,-0.948068774337706,-3.7676225231730056,-8.169935021486147,0.5431730450439252,tremor
112,6939324,0.82,-0.31027363065489577,-0.2566004250260102,-0.9494742009140061,-3.2467239676160573,-4.290684583830436,1.8551415707210128,tremor
113,6939329,0.825,-0.31092431599760845,-0.2579086364860681,-0.9507025610211063,-2.717784110580431,-0.4529651933149343,3.197422282745026,tremor
114,6939334,0.83,-0.31116337755628665,-0.2592041174278309,-0.9517586833109376,-2.1786833719108807,3.3212725836588666,4.57246404351188,tremor
115,6939344,0.84,-0.3109889576861717,-0.2604827170467043,-0.9526463939638573,-1.6276514405903224,7.011853084681225,5.982126818105666,tremor
116,6939349,0.845,-0.3104042612804734,-0.2617412008482072,-0.9533685206711471,-1.0632821969474722,10.600551548173685,7.427656629449156,tremor
117,6939353,0.849,-0.3094173808220894,-0.2629772090226377,-0.9539269338905371,-0.4845390376501959,14.07121489376792,8.909672195784617,tremor
118,6939358,0.854,-0.3080410163283471,-0.26418919867908935,-0.9543226233005359,0.10924941636616045,17.40982551512873,10.428163298057449,tremor
119,6939363,0.859,-0.30629209781078104,-0.2653763718045724,-0.9545558062876759,0.7184029976003686,20.604508241088496,11.982500577184036,tremor
120,6939368,0.864,-0.3041913209075828,-0.26653859101461097,-0.9546260643617965,1.3429125569067861,23.645482488576462,13.571456133701364,tremor
121,6939373,0.869,-0.3017626090741984,-0.26767628529493664,-0.954532502604637,1.9824706458326473,26.52496337785163,15.193234007742864,tremor
122,6939378,0.874,-0.2990325180894875,-0.26879034802259577,-0.9542739266108231,2.636509286274153,29.23701715951507,16.845509365010177,tremor
123,6939382,0.878,-0.29602960059078615,-0.2698820296185843,-0.9538490308773226,3.304243563118014,31.77737767916732,18.525475011724698,tremor
124,6939387,0.883,-0.29278374981286837,-0.27095282723641434,-0.9532565922444021,3.9847195788602416,34.143231753310964,20.22989371333164,tremor
125,6939392,0.888,-0.2893255425801053,-0.2720043739371524,-0.952495661799405,4.676865157530835,36.332982229376476,21.955154699186483,tremor
126,6939397,0.893,-0.2856856017987968,-0.2730383298383672,-0.9515657486356481,5.379541582758088,38.34599814050817,23.69733269562783,tremor
127,6939424,0.92,-0.2818939981553662,-0.2740562777414383,-0.9504669890218909,6.091594603691545,40.18236173301718,25.45224783751496,tremor
128,6939428,0.924,-0.27797970941726924,-0.27505962572128506,-0.949200294894621,6.811902946555721,41.842622219136686,27.215524861187415,tremor
129,6939433,0.929,-0.27397015365477206,-0.2760495190804134,-0.9477674761557299,7.539422638838736,43.32756583059715,28.982650085370867,tremor
130,6939438,0.934,-0.2698908098851552,-0.27702676389856806,-0.9461713320675487,8.27322560012893,44.63801104234723,30.74902484991522,tremor
131,6939443,0.939,-0.2657649361848219,-0.27799176413390014,-0.9444157080964373,9.01253117875055,45.77463668391006,32.510014305035,tremor
132,6939453,0.949,-0.26161339140034684,-0.27894447385695836,-0.9425055158399626,9.756729596618229,46.73784914801132,34.260990709619755,tremor
133,6939458,0.954,-0.257454562448049,-0.27988436575040315,-0.9404467151203771,10.50539657741082,47.52769318163283,35.9973706831166,tremor
134,6939468,0.964,-0.25330439505214164,-0.28081041651941274,-0.9382462588584551,11.258298753690854,48.143808911889074,37.71464614363799,tremor
135,6939473,0.969,-0.24917652183103317,-0.2817211093650015,-0.9359120028681924,12.015389765265338,48.58543588129904,39.40840894442853,tremor
136,6939478,0.974,-0.24508247805939545,-0.28261445320418704,-0.933452584141707,12.776797266458217,48.851462992761995,41.07436948287038,tremor
137,6939482,0.978,-0.2410319923279353,-0.2834880178937229,-0.9308772724381283,13.542801347722296,48.9405214455806,42.70836979181191,tremor
138,6939487,0.983,-0.23703333676133218,-0.28433898432928373,-0.9281958009859863,14.313805142617257,48.85111602745215,44.306391824700015,tremor
139,6939507,1.003,-0.23309371945724763,-0.28516420794280495,-0.9254181828228418,15.090298632889121,48.581788545398936,45.86456180994256,tremor
140,6939512,1.008,-0.22921970037691672,-0.2859602938021512,-0.9225545197199264,15.872816882325813,48.1313057626112,47.37915167448654,tremor
141,6939517,1.013,-0.22541761108394248,-0.286723681230886,-0.9196148107736862,16.661894123747228,47.49886302625171,48.84657861837181,tremor
142,6939521,1.017,-0.22169395857913804,-0.2874507356185867,-0.9166087675962631,17.458015290826857,46.68429393348485,50.26340395455599,tremor
143,6939548,1.044,-0.2180557941114185,-0.2881378448921022,-0.91354564262529,18.26156672392769,45.68827599003296,51.626332304648066,tremor
144,6939553,1.049,-0.21451102930622606,-0.28878151797234697,-0.9104340764440754,19.072787876065675,44.512522323664044,52.93221215470654,tremor
145,6939558,1.054,-0.21106868425060824,-0.28937848245978864,-0.90728196920804,19.891725873018185,43.15995016730498,54.17803861836389,tremor
146,6939563,1.059,-0.2077390553059955,-0.2899257787934183,-0.9040963803507924,20.718194700075323,41.634818060251646,55.36095902439221,tremor
147,6939573,1.069,-0.20453379434564506,-0.29042084823507175,-0.9008834597137853,21.55174057512934,39.942825481548105,56.478281656861405,tremor
148,6939578,1.074,-0.20146589568036133,-0.2908616122576035,-0.8976484121199513,22.39161474288866,38.091170738635604,57.5274876626056,tremor
149,6939582,1.078,-0.19854959185042648,-0.2912465412621239,-0.8943954962109163,23.23675453568055,36.08856513622902,58.50624584282912,tremor
150,6939587,1.083,-0.1958001643421727,-0.2915747110060688,-0.8911280571147322,24.085773141087262,33.94520354420283,59.4124297926135,tremor
151,6939592,1.088,-0.19323367975549108,-0.2918458456708254,-0.8878485912403522,24.936958130078807,31.672693355286725,60.24413665690266,tremor
152,6939597,1.093,-0.19086666570594804,-0.29206034710512446,-0.8845588402464072,25.788278451057863,29.283945424024825,60.99970663572523,tremor
153,6939602,1.098,-0.18871574360087776,-0.29221931040971816,-0.8812599100488107,26.63739929485384,26.793031889695772,61.67774229220543,tremor
154,6939607,1.103,-0.18679723727723424,-0.2923245266374534,-0.8779524096590785,27.481703988186755,24.21501680166164,62.27712669061019,tremor
155,6939612,1.108,-0.18512677728368296,-0.292378473928538,-0.8746366037286941,28.31832188139261,21.565766191551734,62.7970394124467,tremor
156,6939621,1.117,-0.1837189203321999,-0.2923842988435478,-0.8713125719623394,29.144161060186693,18.86174469328806,63.236969558188186,tremor
157,6939626,1.122,-0.18258680218267448,-0.2923457899602391,-0.8679803681055925,29.95594462815315,16.119806022283953,63.59672493212843,tremor
158,6939631,1.127,-0.1817418400513897,-0.2922673459359189,-0.8646401710626939,30.750249274109713,13.35698459669925,63.87643672157825,tremor
159,6939636,1.132,-0.1811934976960634,-0.2921539401901789,-0.8612924209014365,31.52354485602136,10.5902953092767,64.07655911491437,tremor
160,6939640,1.136,-0.18094912282234882,-0.2920110841375496,-0.8579379330793254,32.27223379925111,7.836547938387164,64.19786345349459,tremor
161,6939645,1.141,-0.1810138626056208,-0.29184479052013007,-0.8545779851736215,32.99268921610069,5.112181944773705,64.24142667878886,tremor
162,6939673,1.169,-0.1813906591528881,-0.2916615378952949,-0.8512143716875601,33.681290797160194,2.4331264712273124,64.20861401723374,tremor
163,6939678,1.174,-0.18208032285426595,-0.2914682367721588,-0.8478494240853268,34.334457694503364,-0.18531072896927578,64.10105603912208,tremor
164,6939683,1.179,-0.18308167800341016,-0.291272197322529,-0.8444859950040601,34.94867780556817,-2.7285229540383695,63.920620428445716,tremor
165,6939688,1.184,-0.18439177201123624,-0.2910810980853713,-0.8411274074953545,35.520533067740246,-5.1826517153367755,63.669378998936665,tremor
166,6939693,1.189,-0.186006137145633,-0.29090295469530725,-0.8377773720336036,36.04672057699593,-7.534601810812496,63.34957068022474,tremor
167,6939697,1.193,-0.1879190920244566,-0.2907460874197507,-0.8344398757731329,36.5240695373577,-9.772026281598226,62.96356137482271,tremor
168,6939708,1.204,-0.1901240689788981,-0.29061908617626947,-0.8311190500478466,36.94955422342254,-11.883284776898211,62.51380175181653,tremor
169,6939712,1.208,-0.19261395276073176,-0.2905307716959078,-0.8278190233213873,37.32030329606341,-13.857380342526596,62.0027841941162,tremor
170,6939717,1.213,-0.19538141578659077,-0.29049015157503355,-0.8245437676608435,37.63360595870191,-15.683880998403573,61.43300024486985,tremor
171,6939722,1.218,-0.19841923513601575,-0.2905063701004705,-0.8212969472736316,37.88691558831684,-17.352833573313664,60.8068999933857,tremor
172,6939727,1.223,-0.20172057682731492,-0.29058865092845254,-0.8180817776789219,38.07785162884377,-18.85467801354067,60.12685489032703,tremor
173,6939732,1.228,-0.20527923349837826,-0.2907462319374672,-0.814900903679823,38.20420069262123,-20.18017070388033,59.39512547635646,tremor
174,6939736,1.232,-0.20908980256532847,-0.290988291848243,-0.8117563034995685,38.26391796232919,-21.320325199653833,58.61383543607724,tremor
175,6939741,1.237,-0.21314779330612732,-0.29132386850051,-0.8086492253078671,38.255130093888575,-22.266378145093274,57.78495323420219,tremor
176,6939746,1.242,-0.21744965323453197,-0.2917617689863194,-0.8055801609596973,38.17614085673986,-23.00978703036463,56.91028233844661,tremor
177,6939751,1.247,-0.22199270671473803,-0.2923104721574301,-0.8025488601588928,38.02544068004417,-23.54226481416374,55.99146067860128,tremor
178,6939761,1.257,-0.22677500212820395,-0.2929780243488361,-0.7995543864959971,37.8017210773469,-23.855854333797765,55.029969544219284,tremor
179,6939766,1.262,-0.23179506812652165,-0.29377192949921965,-0.7965952149413298,37.50389458481445,-23.943042895240097,54.027151610091856,tremor
180,6939798,1.294,-0.23705158462101286,-0.2946990352188348,-0.7936693684453597,37.1311203723746,-23.796914586693575,52.98423723595856,tremor
181,6939803,1.299,-0.24254298004198116,-0.2957654167764242,-0.7907745893644387,36.682835106944026,-23.411334893111086,51.9023776628244,tremor
182,6939808,1.304,-0.24826697255689686,-0.29697626145318323,-0.787908539575212,36.15878804213081,-22.781159455163994,50.78268328650886,tremor
183,6939818,1.314,-0.2542200784527784,-0.29833575620918557,-0.7850690214867626,35.55907878707932,-21.90245673660513,49.626264896824225,tremor
184,6939822,1.318,-0.26039711474844757,-0.2998469820544768,-0.7822542108378663,34.884195848779086,-20.77273321271862,48.43427566398545,tremor
185,6939827,1.323,-0.266790724675436,-0.3015118188296958,-0.7794628912829696,34.13505386400803,-19.391149461633155,47.207951717452346,tremor
186,6939832,1.328,-0.27339095387715184,-0.3033308642107793,-0.7766946803909042,33.313027413777036,-17.758716053471268,45.948649353256,tremor
187,6939837,1.333,-0.28018490232110194,-0.3053033706192615,-0.7739502368402528,32.41997941397835,-15.878459213507751,44.657877185256304,tremor
188,6939847,1.343,-0.2871564724422318,-0.3074272033376194,-0.7712314392996094,31.458282275474815,-13.755547746178234,43.33732189713686,tremor
189,6939852,1.348,-0.2942862284241959,-0.3096988225212614,-0.7685415286970112,30.43083030351767,-11.397374526971804,41.98886663407991,tremor
190,6939857,1.353,-0.301551375274984,-0.3121132910085067,-0.7658852072393446,29.34104214478407,-8.813587903420675,40.61460147560893,tremor
191,6939861,1.357,-0.3089258599379306,-0.3146643089124197,-0.7632686895377637,28.192852479542513,-6.016070520508425,39.21682583308994,tremor
192,6939866,1.362,-0.316380590506643,-0.31734427499372764,-0.760699703407859,26.990692583029258,-3.0188653244711703,37.79804299746321,tremor
193,6939871,1.367,-0.32388376398178303,-0.32014437382009975,-0.7581874402131017,25.7394598258819,0.1619492849209208,36.36094741126122,tremor
194,6939876,1.372,-0.3314012881092156,-0.32305468676445614,-0.7557424568754486,24.444476629801546,3.508431078800356,34.90840554617507,tremor
195,6939881,1.377,-0.3388972787962473,-0.32606432402678015,-0.7533765337633412,23.111439825602286,7.0009864105593245,33.44343152828957,tremor
196,6939886,1.382,-0.3463346115081831,-0.3291615741162689,-0.7511024944792926,21.746361762626783,10.618615763092869,31.969158863024624,tremor
197,6939891,1.387,-0.35367550296523925,-0.33233406663061005,-0.748933995032562,20.35550487908516,14.339183425714628,30.48880976568,tremor
198,6939917,1.413,-0.36088209841695507,-0.3355689437323471,-0.7468852909549202,18.94531175102157,18.139701298541834,29.00566369275861,tremor
199,6939922,1.418,-0.3679170397828762,-0.3388530354578915,-0.7449709915744536,17.522332873636046,21.996616274523177,27.52302667843988,tremor
200,6939927,1.423,-0.3747439910739554,-0.3421730339172968,-0.7432058108752188,16.093154551553877,25.886090702589385,26.044202988408298,tremor
201,6939932,1.428,-0.38132809985663974,-0.3455156615755239,-0.7416043241045787,14.664329233474094,29.78426623822021,24.57247039467134,tremor
202,6939936,1.432,-0.3876363771381031,-0.34886782916295045,-0.7401807385356413,13.242310403070176,33.667502933072456,23.11106005943092,tremor
203,6939941,1.437,-0.3936379827946106,-0.35221677932822615,-0.7389486855999059,11.83339377041548,37.51258748727414,21.663141631083565,tremor
204,6939946,1.442,-0.3993044092033595,-0.3555502128737965,-0.7379210400796989,10.443666062572168,41.296906893675576,20.231813747423818,tremor
205,6939951,1.447,-0.40460956166194645,-0.3588563952460644,-0.7371097703116575,9.07896223940988,44.99858602171907,18.82009974513543,tremor
206,6939956,1.452,-0.4095297401018691,-0.3621242418360975,-0.7365258215083637,7.744831488210724,48.59658989011532,17.43094801192485,tremor
207,6939961,1.457,-0.4140435321904162,-0.3653433815402142,-0.7361790324449113,6.446511894840042,52.07079337551051,16.067236102429767,tremor
208,6939966,1.462,-0.4181316328876785,-0.36850419889724034,-0.7360780839610878,5.188913265701172,55.40202282790244,14.731777482615191,tremor
209,6939970,1.466,-0.42177660964367286,-0.3715978559299635,-0.7362304760752582,3.976607198454666,58.572075453124974,13.427329579411783,tremor
210,6939975,1.471,-0.42496263547892593,-0.37461629554484527,-0.736642529066206,2.8138231848504653,61.563723329048955,12.156601701127201,tremor
211,6939980,1.476,-0.42767521401801417,-0.37755222896280954,-0.7373194027186925,1.7044492897141232,64.36070950821542,10.922261365615308,tremor
212,6939985,1.481,-0.42990092102350197,-0.3803991101465939,-0.7382651271015963,0.6520357985289272,66.94774380383906,9.726937630207123,tremor
213,6939990,1.486,-0.43162718607485134,-0.38315110054334767,-0.7394826378001521,-0.34019982899360124,69.3105055529123,8.573220160300824,tremor
214,6939995,1.491,-0.4328421358045099,-0.3858030276645344,-0.7409738084945828,-1.2693683164585527,71.4356599068544,7.463653000329408,tremor
215,6940000,1.496,-0.43353451665212367,-0.38835034107004124,-0.7427394741956522,-2.1329057103029285,73.3108930333679,6.4007223158396025,tremor
216,6940004,1.5,-0.433693710574075,-0.39078906920254664,-0.7447794393301574,-2.928573528099488,74.92497005109713,5.386837746934563,tremor
217,6940009,1.505,-0.4333098517219933,-0.39311578022657123,-0.7470924662143227,-3.654462808362695,76.267817610447,4.4243074343632935,tremor
218,6940014,1.51,-0.43237404597757084,-0.3953275495630087,-0.7496762412297968,-4.309002543161924,77.3306308529133,3.5153072316790097,tremor
219,6940041,1.537,-0.43087868862773465,-0.3974219361809963,-0.752527318155041,-4.8909725018007455,78.10600212451959,2.6618450814850947,tremor
220,6940045,1.541,-0.4288178686740094,-0.399396968936215,-0.7556410404774816,-5.39951994210473,78.58806644396513,1.8657219805423866,tremor
221,6940050,1.546,-0.4261878417251666,-0.40125114337223533,-0.7590114469089629,-5.834179200023742,78.77265662048048,1.128491326061254,tremor
222,6940055,1.551,-0.4229875477254085,-0.4029834284978217,-0.7626311664578831,-6.194892717801163,78.65745946058742,0.4514186397553642,tremor
223,6940060,1.556,-0.4192191455527363,-0.40459328219843016,-0.7664913109871322,-6.482031783724973,78.24216395347271,-0.16455634483445541,tremor
224,6940065,1.561,-0.4148885342156941,-0.4060806732056574,-0.7705813740387047,-6.696415144606405,77.52859264069367,-0.7188534481050194,tremor
225,6940070,1.566,-0.410005830111939,-0.4074461069833928,-0.7748891448251981,-6.839323706835677,76.52080830749166,-1.21128019547516,tremor
226,6940074,1.57,-0.40458577148725483,-0.40869065252218484,-0.7794006457716485,-6.912509732330467,75.22518942694504,-1.6420532435895798,tremor
227,6940079,1.575,-0.3986480246210023,-0.4098159668774557,-0.784100100968463,-6.918199224888718,73.65046927544185,-2.0118123272318913,tremor
228,6940084,1.58,-0.3922173710672229,-0.41082431434551425,-0.7889699414978836,-6.859086552954119,71.80773520775556,-2.321626303552467,tremor
229,6940089,1.585,-0.3853237611535345,-0.4117185774362424,-0.7939908519451293,-6.738320731835109,69.710386147639,-2.5729911639300695,tremor
230,6940094,1.59,-0.3780022254966889,-0.4125022572536123,-0.7991418606141859,-6.559483162507127,67.37404784525162,-2.767820135104686,tremor
231,6940099,1.595,-0.370292643122912,-0.4131794615031883,-0.8044004741393782,-6.326556973260665,64.81644681950928,-2.908426200550637,tremor
232,6940103,1.599,-0.3622393714633783,-0.4137548790660028,-0.8097428554086531,-6.043888421923131,62.05724510231212,-2.997497543471291,tremor
233,6940108,1.604,-0.35389074961833605,-0.4142337408571776,-0.8151440420716237,-5.716141085809545,59.11783891133658,-3.0380665479203373,tremor
234,6940113,1.609,-0.3452984914679156,-0.41462176746588647,-0.8205782014556268,-5.348243793043104,56.021125191649986,-3.0334730977461595,tremor
235,6940118,1.614,-0.33651698915356865,-0.41492510479248734,-0.8260189164935261,-4.945333430133003,52.79124058624489,-2.9873229873199487,tremor
236,6940122,1.618,-0.32760254999024857,-0.41515024951010293,-0.8314394962926548,-4.512693891914948,49.45327783087842,-2.9034423065178254,tremor
237,6940127,1.623,-0.3186125909658197,-0.4153039666466963,-0.8368133042451111,-4.055692515579827,46.03298483504106,-2.7858286889124955,tremor
238,6940132,1.628,-0.30960481472415274,-0.41539320188873924,-0.8421140960880671,-3.579715356374554,42.55645183142606,-2.638600320440425,tremor
239,6940137,1.633,-0.3006363894719512,-0.41542499133977345,-0.8473163600576997,-3.0901026181301026,39.04979198068773,-2.465943599600471,tremor
240,6940163,1.659,-0.2917631528114304,-0.4154063714280118,-0.852395651229603,-2.592085452824777,35.538820741129435,-2.2720603238764108,tremor
241,6940168,1.664,-0.2830388563577179,-0.4153442914595999,-0.8573289122931691,-2.0907252053544063,32.04873919041349,-2.061115256906816,tremor
242,6940173,1.669,-0.2745144645183077,-0.41524553098653955,-0.8620947733678899,-1.5908560293830374,28.603826349375343,-1.8371849144443113,tremor
243,6940178,1.674,-0.26623751743693663,-0.4151166237461233,-0.8666738240436492,-1.0970316688231094,25.22714542086948,-1.6042083983182747,tremor
244,6940183,1.679,-0.258251565238436,-0.41496378948744705,-0.8710488516125043,-0.6134771063337237,21.94026870909482,-1.3659411012923033,tremor
245,6940188,1.684,-0.2505956785647633,-0.41479287458041236,-0.875205040425687,-0.14404572199381863,18.763025798793286,-1.1259120883855436,tremor
246,6940192,1.688,-0.24330403895168143,-0.4146093019377106,-0.8791301284008225,0.3078174361156711,15.713279320470443,-0.8873859188227485,tremor
247,6940197,1.693,-0.2364056117138238,-0.4144180304874258,-0.8828145178589821,0.7391057107227388,12.806732291347998,-0.6533296026037833,tremor
248,6940202,1.698,-0.22992390350043385,-0.41422352421647407,-0.8862513390363411,1.1472737214879782,10.056770598455007,-0.42638529025086513,tremor
249,6940207,1.703,-0.2238768063761474,-0.4140297306565725,-0.8894364657496137,1.5302526527818918,7.4743436822479605,-0.2088491803494235,tremor
250,6940212,1.708,-0.2182765300033238,-0.4138400685908326,-0.89236848376648,1.886457616266424,5.06788589035408,-0.0026570035631186904,tremor
251,6940217,1.713,-0.21312962310425382,-0.4136574247015763,-0.8950486134196154,2.2147868831327253,2.843280306010648,0.19062369094743714,tremor
252,6940222,1.718,-0.20843708474342243,-0.4134841588380449,-0.8974805888933544,2.514612924569997,0.8038661189294338,0.3697943569955893,tremor
253,6940227,1.723,-0.20419456501719377,-0.41332211753741227,-0.8996704974022834,2.78576536228089,-1.0495101977554733,0.5340194292652882,tremor
254,6940231,1.727,-0.20039265344418128,-0.41317265536926656,-0.9016265821742371,3.028506109093617,-2.718400504253276,0.6828136459601305,tremor
255,6940236,1.732,-0.19701725172719986,-0.4130366635834348,-0.9033590137529516,3.243497166809166,-4.206618912717791,0.8160230451143068,tremor
256,6940241,1.737,-0.1940500256494743,-0.4129146054207495,-0.9048796346559522,3.431761737639079,-5.520066448743254,0.9338001035220318,tremor
257,6940246,1.742,-0.19146892873930257,-0.41280655729932436,-0.906201682868331,3.594639490405508,-6.666519833525018,1.036573625735141,tremor
258,6940251,1.747,-0.1892487880741993,-0.4127122549244648,-0.9073395000274544,3.7337369969616523,-7.655388687383085,1.1250141271814853,tremor
259,6940256,1.752,-0.18736194029780395,-0.4126311432032327,-0.9083082304580979,3.8508745124061736,-8.497446349637338,1.1999955889293124,tremor
260,6940260,1.756,-0.18577890369461056,-0.41256242869322146,-0.9091235174489064,3.948030409701947,-9.20454036047856,1.262554587783178,tremor
261,6940291,1.787,-0.18446907010879918,-0.41250513319847665,-0.909801203311705,4.0272846908999975,-9.789289437604472,1.3138479170500381,tremor
262,6940301,1.797,-0.18340139871271754,-0.41245814706173084,-0.9103570398193052,4.0907630775345005,-10.264774466665315,1.3551099009255558,tremor
