sample,t_ms,t_s,ax,ay,az,gx,gy,gz,tremor
0,4919064,0.0,-0.06888200050308287,-0.26012303301727835,0.8885243184073801,-0.3954046239602821,0.8025991890170048,10.05220405726137,tremor
1,4919069,0.005,-0.07010256862368051,-0.25974729589296364,0.8885431063842599,-0.22653917512238247,1.5280223650253384,10.350002126841424,tremor
2,4919074,0.01,-0.0718731850856803,-0.25923476977829674,0.8885657175204926,-0.068978353761349,2.2171228042531843,10.561544079981573,tremor
3,4919079,0.015,-0.07429117974154907,-0.2585781899733322,0.8885906581602805,0.07648858071840212,2.8692043847609034,10.67806485192946,tremor
4,4919083,0.019,-0.0773685019361429,-0.25779644603094454,0.8886153028469953,0.2091573212658284,3.4839984847069356,10.690893900394055,tremor
5,4919088,0.024,-0.08106107873076022,-0.2569213767507453,0.8886368784719142,0.3284170739618738,4.061677458168707,10.591525908963414,tremor
6,4919093,0.029,-0.08530336895545101,-0.25598610434702007,0.8886530580707379,0.4337585186455396,4.602864566449101,10.371694076660415,tremor
7,4919098,0.034,-0.09003001428840961,-0.25501910139881795,0.8886621186432497,0.524781070918813,5.10864015802777,10.023445487547493,tremor
8,4919107,0.043,-0.09518494638449268,-0.25404256728284547,0.8886628639259793,0.6011993480839296,5.580543881906201,9.53921799797426,tremor
9,4919112,0.048,-0.10072295415079736,-0.2530729420813868,0.8886544743581615,0.6628487433301711,6.0205727094379355,8.911918024222567,tremor
10,4919117,0.053,-0.10660794575915854,-0.25212210433623244,0.8886363643232318,0.7096900163937891,6.431174529847867,8.134998561351763,tremor
11,4919127,0.063,-0.11281031345445225,-0.2511985620118806,0.8886080721650362,0.7418128155067569,6.815237075479133,7.2025367162514655,tremor
12,4919136,0.072,-0.11930446169849364,-0.2503084036425734,0.8885691838315659,0.7594380539333148,7.176071925034917,6.109309995251782,tremor
13,4919161,0.097,-0.1260668358544576,-0.2494559844403703,0.8885192833297744,0.7629190735426106,7.517393328326164,4.8508705502694305,tremor
14,4919166,0.102,-0.13307447328259503,-0.24864439375351507,0.8884579225878706,0.7527415372623961,7.843291599384043,3.4236165589240253,tremor
15,4919171,0.107,-0.14030399140709582,-0.24787576250856166,0.888384604867027,0.7295220027248868,8.158200845910795,1.8248598948193364,tremor
16,4919181,0.117,-0.14773090958048768,-0.24715146090121037,0.8882987776146157,0.6940051424626101,8.466860852474476,0.05288923503190282,tremor
17,4919186,0.122,-0.15532921554982698,-0.246472223951627,0.8881998320488066,0.6470595927377255,8.774273017127232,-1.8929722471351988,tremor
18,4919190,0.126,-0.16307110837164138,-0.24583823129626092,0.8880871077543293,0.5896724333375807,9.0856503523252,-4.012315444753483,tremor
19,4919195,0.131,-0.17092686876992486,-0.2452491590667817,0.8879599012325523,0.5229423231191571,9.4063616937498,-6.303600953619305,tremor
20,4919200,0.136,-0.17886482284625774,-0.24470421570028575,0.8878174777777573,0.44807133899735097,9.741870408746594,-8.764122567235278,tremor
21,4919205,0.141,-0.18685137585062858,-0.2442021694460497,0.8876590863159234,0.3663555880895372,10.09766805401916,-11.389979370903804,tremor
22,4919210,0.146,-0.19485110022914104,-0.24374137261582102,0.8874839769879428,0.2791746834055569,10.47920359293503,-14.176057120841154,tremor
23,4919215,0.151,-0.20282686725263047,-0.243319785825344,0.8872914213138922,0.18798019322264406,10.891808938739898,-17.11601952989251,tremor
24,4919220,0.156,-0.2107400149168768,-0.2429350042800679,0.8870807347606914,0.09428319374180961,11.340621734799305,-20.202310007336717,tremor
25,4919225,0.161,-0.2185505470256694,-0.2425842873542017,0.8868513014745841,-0.0003589260559959794,11.830506411805736,-23.42616431594165,tremor
26,4919229,0.165,-0.22621735979943186,-0.2422645921586639,0.8866026008520554,-0.0943562399930703,12.36597467020697,-26.777634513771037,tremor
27,4919234,0.17,-0.23369849324989342,-0.24197261139920984,0.8863342355206101,-0.186100457536761,12.951106619201381,-30.245624439513477,tremor
28,4919239,0.175,-0.240951405092868,-0.24170481553362164,0.8860459601910198,-0.27397929991575243,13.589473856868654,-33.817936876269236,tremor
29,4919244,0.18,-0.24793326524281134,-0.24145749901071922,0.8857377107302994,-0.35639088231142096,14.284065795764315,-37.48133238815068,tremor
30,4919249,0.185,-0.25460126900900654,-0.24122683019281452,0.8854096326956115,-0.43175791178092676,15.037220523654288,-41.22159966603476,tremor
31,4919258,0.194,-0.2609129670301897,-0.24100890441523382,0.8850621084712107,-0.4985415292765699,15.850561442700846,-45.02363704352638,tremor
32,4919284,0.22,-0.2668266097588217,-0.24079979951638425,0.8846957820750365,-0.5552546542258461,16.72494085704313,-48.87154465307226,tremor
33,4919288,0.224,-0.27230150394281005,-0.24059563307925652,0.8843115806679075,-0.6004747272678439,17.66039158239475,-52.74872649099078,tremor
34,4919293,0.229,-0.2772983780569245,-0.2403926205632173,0.883910731834935,-0.6328557830745013,18.656087535810833,-56.638001463316805,tremor
35,4919298,0.234,-0.2817797530325334,-0.2401871334762871,0.8834947758453036,-0.6511398133243347,19.710314135137942,-60.52172231190837,tremor
36,4919303,0.239,-0.28571031397448887,-0.23997575674175176,0.8830655723456694,-0.6541673974625662,20.8204492031683,-64.38190118597043,tremor
37,4919308,0.244,-0.2890572779086983,-0.23975534444313687,0.8826253012871227,-0.6408875888698645,21.982954936290767,-68.20034052747047,tremor
38,4919318,0.254,-0.2917907520448529,-0.23952307318052818,0.8821764582842319,-0.6103670508379502,23.19338136384823,-71.95876787133497,tremor
39,4919322,0.258,-0.2938840766281917,-0.23927649233235634,0.8817218450052314,-0.5617984424107656,24.446381594532667,-75.6389731166279,tremor
40,4919327,0.263,-0.29531414624443636,-0.23901357058549896,0.8812645555420611,-0.4945080581031711,25.735739021782603,-79.22294680117115,tremor
41,4919332,0.268,-0.29606170347495664,-0.23873273816934037,0.8808079599584124,-0.4079627261564388,27.054406539719412,-82.69301790819739,tremor
42,4919337,0.273,-0.2961115990968554,-0.23843292430248178,0.8803556863262183,-0.30177596636387016,28.39455769783187,-86.03198974771816,tremor
43,4919342,0.278,-0.29545301357579234,-0.23811358942949284,0.8799116025215181,-0.17571340077401967,29.747649586756115,-89.22327248499752,tremor
44,4919351,0.287,-0.2940796353673839,-0.23777475188406746,0.8794797988682425,-0.029697399741891457,31.104497091719374,-92.25101093162003,tremor
45,4919356,0.292,-0.2919897924655278,-0.2374170086583446,0.8790645724182667,0.13618906675856327,32.45535797271361,-95.10020626917245,tremor
46,4919361,0.297,-0.2891865346444169,-0.23704154998005303,0.8786704132732923,0.3216994153734944,33.79002803426435,-97.75683043975079,tremor
47,4919371,0.307,-0.28567766486497126,-0.23665016739455894,0.8783019929316028,0.5264213272854673,35.09794543752954,-100.20793200961548,tremor
48,4919380,0.316,-0.28147571928889875,-0.23624525501613988,0.8779641542293186,0.7497755804783602,36.368302987974026,-102.44173239079838,tremor
49,4919407,0.343,-0.2765978962061754,-0.23582980355660751,0.877661902094247,0.9910159042263882,37.59016700914554,-104.44771139054028,tremor
50,4919412,0.348,-0.27106593489305675,-0.23540738667407105,0.8774003940934116,1.249229925790319,38.752601201108234,-106.21668115468711,tremor
51,4919417,0.353,-0.26490594597004063,-0.23498213913547322,0.877184929671918,1.523341278242106,39.84479370820469,-107.74084768750575,tremor
52,4919421,0.357,-0.2581481952602077,-0.23455872628506466,0.8770209370570442,1.812112932898389,40.85618551748651,-109.01385927460929,tremor
53,4919426,0.362,-0.25082684352682433,-0.23414230438207198,0.8769139570033293,2.1141518086994724,41.776598291807304,-110.0308413072608,tremor
54,4919431,0.367,-0.24297964486087964,-0.23373847152053898,0.8768696228234175,2.427914694007316,42.5963597972924,-110.78841719501186,tremor
55,4919436,0.372,-0.23464760693323924,-0.23335320905965867,0.8768936364271888,2.7517154950397895,43.30642518722766,-111.28471524567793,tremor
56,4919441,0.377,-0.22587461683189697,-0.23299281375129188,0.8769917403354042,3.083733801603708,43.898492533881104,-111.51936157607533,tremor
57,4919446,0.382,-0.21670703676065317,-0.2326638210294262,0.8771696858186503,3.4220247375966366,44.3651111478565,-111.4934592869709,tremor
58,4919451,0.387,-0.20719327445604419,-0.23237292020335928,0.8774331974272043,3.7645300436677513,44.699781386040804,-111.2095542882623,tremor
59,4919456,0.392,-0.19738333374988742,-0.23212686255475815,0.8777879342229875,4.1090903241856696,44.89704481687541,-110.67158829610193,tremor
60,4919466,0.402,-0.18732835122364117,-0.23193236356371122,0.8782394480099991,4.453458380234495,44.9525637769445,-109.88483964577284,tremor
61,4919471,0.407,-0.17708012532104614,-0.23179600066880834,0.8787931388004528,4.795313543576051,44.86318950804698,-108.85585267644218,tremor
62,4919476,0.412,-0.16669064456034025,-0.23172410809365324,0.8794542076718954,5.132276922224601,44.62701820306042,-107.59235654933491,tremor
63,4919485,0.421,-0.1562116215794627,-0.23172267034527522,0.8802276070907511,5.4619274655945995,44.24343440730039,-106.10317446137464,tremor
64,4919490,0.426,-0.14569403964143396,-0.2317972160138176,0.8811179887240127,5.781818754809275,43.71314131708468,-104.39812431401306,tremor
65,4919495,0.431,-0.1351877179360007,-0.2319527134896003,0.8821296487520498,6.089496419954402,43.03817759113621,-102.48791199461844,tremor
66,4919505,0.441,-0.12474090157791368,-0.23219347017979253,0.8832664707429629,6.382516079775113,42.221920352235266,-100.38401852838011,tremor
67,4919545,0.481,-0.11439988167806134,-0.2325230367698892,0.8845318662535895,6.6584616911934935,41.26907411896033,-98.09858246352012,tremor
68,4919560,0.496,-0.10420865030507917,-0.23294411804938706,0.885928713470645,6.914964188001665,40.185645480388175,-95.64427895766633,tremor
69,4919564,0.5,-0.09420859458540215,-0.2334584918158149,0.8874592943674767,7.149720281260597,38.978903411704536,-93.03419712413026,tremor
70,4919569,0.505,-0.08443823357729079,-0.23406693739004078,0.8891252309908981,7.360511286120423,37.65732522099073,-90.28171724934592,tremor
71,4919574,0.51,-0.07493300082429165,-0.23476917531626962,0.8909274215876217,7.545221826106546,36.23052821605358,-87.40038948580411,tremor
72,4919589,0.525,-0.065725074581045,-0.23556381987514302,0.892865977340271,7.701858243659124,34.70918729510005,-84.4038155561088,tremor
73,4919594,0.53,-0.056843256604403834,-0.2364483460950669,0.8949401605384532,7.828566518425575,33.104938812654744,-81.30553488990428,tremor
74,4919599,0.535,-0.04831289918039262,-0.2374190729833131,0.8971483250878649,7.923649471084613,31.43027126421394,-78.11891647729342,tremor
75,4919604,0.54,-0.04015587882438316,-0.2384711646814837,0.8994878603689995,7.985583018789996,29.69840357159682,-74.85705757357209,tremor
76,4919608,0.544,-0.03239061397139299,-0.23959865114209825,0.9019551395858765,8.013031252266046,27.923152030004143,-71.53269023749846,tremor
77,4919613,0.549,-0.02503212306809246,-0.24079446969406978,0.9045454738686668,8.004860121890047,26.118787287752046,-68.1580965339034,tremor
78,4919618,0.554,-0.01809211885369054,-0.2420505284973728,0.9072530734804484,7.960149545506327,24.299883057659834,-64.74503308504521,tremor
79,4919623,0.559,-0.011579134304815802,-0.24335779237468907,0.9100710174981951,7.878203779438154,22.481158588830382,-61.30466551458042,tremor
80,4919628,0.564,-0.005498675724083763,-0.2447063908509514,0.9129912332693901,7.758559922950573,20.677317241347797,-57.847513191585485,tremor
81,4919655,0.591,0.00014660124902099708,-0.24608574743902273,0.9160044867762711,7.600994453248335,18.902883787166058,-54.38340454695132,tremor
82,4919665,0.601,0.005356696390961137,-0.24748472830457105,0.9191003847732307,7.405527712337511,17.172043286554626,-50.921443096814755,tremor
83,4919674,0.61,0.01013405343138972,-0.24889180747745387,0.9222673892294432,7.172426290124444,15.498484523838258,-47.46998416110962,tremor
84,4919684,0.62,0.014483334747068026,-0.2502952448392405,0.9254928442692792,6.902203272979853,13.895250981977348,-44.03662210348262,tremor
85,4919689,0.625,0.01841118409206206,-0.25168327231513754,0.9287630155298705,6.595616355651035,12.374602168684568,-40.62818774247062,tremor
86,4919694,0.63,0.021925978982142744,-0.25304428312414556,0.9320631416974378,6.25366384437525,10.947887798652056,-37.250755402645424,tremor
87,4919703,0.639,0.025037574320298135,-0.254367018640214,0.9353774979488018,5.877578603327539,9.625436933780925,-33.90965889953546,tremor
88,4919708,0.644,0.027757039010004834,-0.2556407473943236,0.9386894710868113,5.468820008777078,8.416463722056651,-30.60951559050683,tremor
89,4919713,0.649,0.030096387613526832,-0.2568554309860377,0.9419816462816611,5.029063975552283,7.328990869193673,-27.35425748153709,tremor
90,4919718,0.654,0.032068309548382384,-0.2580018721516536,0.9452359054785179,4.560191115515481,6.369791426264306,-24.147168266512473,tremor
91,4919723,0.659,0.033685898857014104,-0.2590718409316691,0.948433537673488,4.0642730870296795,5.544348882696696,-20.99092510278565,tremor
92,4919728,0.664,0.034962388205417465,-0.26005817576302437,0.9515553613655051,3.5435572048158703,4.856834926868701,-17.887643903592974,tremor
93,4919733,0.669,0.03591089142244972,-0.26095485735310225,0.954581859533197,3.0004494037549616,4.310103596399925,-14.838926960147225,tremor
94,4919747,0.683,0.036544159521943696,-0.2617570543303148,0.9574933274346562,2.4374956869637123,3.9056999194007522,-11.845911796178521,tremor
95,4919779,0.715,0.03687435567155426,-0.2624611408655738,0.960270033352223,1.8573622341004068,3.6438805957159626,-8.909320304480836,tremor
96,4919789,0.725,0.03691285486264061,-0.2630646876642694,0.9628923920668842,1.2628143936361227,3.5236438674529915,-6.029507410291658,tremor
97,4919793,0.729,0.03667007392842765,-0.26356642885778403,0.9653411503173197,0.6566948227744352,3.5427656126986156,-3.2065087264228582,tremor
98,4919798,0.734,0.036155336900683704,-0.26396620826975103,0.9675975827810349,0.04190106027258741,3.6978389966390774,-0.4400868714153196,tremor
99,4919808,0.744,0.03537677944535657,-0.26426490919429535,0.9696436962660832,-0.5786371849612539,3.9843157483719347,2.2702237196932114,tremor
100,4919813,0.749,0.03434129438261079,-0.26446437214809787,0.971462438914429,-1.201980770155284,4.396548150405493,4.925073561297225,tremor
101,4919818,0.754,0.03305451827985984,-0.26456730505099435,0.9730379103874448,-1.825203656175457,4.927831897676553,7.525256472210163,tremor
102,4919823,0.759,0.031520857022547255,-0.2645771899938388,0.9743555683113159,-2.4454150605317175,5.570450910215412,10.071669503713464,tremor
103,4919833,0.769,0.029743546294810394,-0.2644981902240015,0.9754024257717441,-3.059781074280859,6.315725868212541,12.565274418569189,tremor
104,4919837,0.773,0.027724741177351988,-0.26433506028078296,0.9761672344165719,-3.665545620588747,7.1540686541873235,15.007060716903451,tremor
105,4919842,0.778,0.02546562770972309,-0.2640930614152868,0.9766406477906017,-4.260050660216658,8.075045035838532,17.398010252644827,tremor
106,4919847,0.783,0.022966548385578774,-0.2637778836071818,0.9768153599112573,-4.84075557780071,9.067447805201503,19.73906356542486,tremor
107,4919852,0.788,0.020227133256099598,-0.26339557471498243,0.9766862147972311,-5.4052557124434895,10.119382212166352,22.03108816221714,tremor
108,4919857,0.793,0.01724642866664385,-0.26295247662101107,0.9762502836571539,-5.951300022858659,11.218364923987057,24.27484910496184,tremor
109,4919862,0.798,0.014023016644840089,-0.2624551676890978,0.9755069076771444,-6.476807894296825,12.351436955985925,26.47098237612774,tremor
110,4919866,0.802,0.010555119551674888,-0.2619104104553679,0.9744577057422116,-6.979885094843367,13.505290104888825,28.619971587893865,tremor
111,4919871,0.807,0.006840686729364473,-0.26132510321928587,0.9731065479040992,-7.458838869275933,14.66640542655965,30.722128659935002,tremor
112,4919902,0.838,0.0028774624254009782,-0.26070623408284377,0.9714594968751417,-7.912192122338475,15.821201288298242,32.777579104391016,tremor
113,4919907,0.843,-0.0013369629429387784,-0.2600608359859665,0.9695247211749947,-8.338696597439618,16.956187571170794,34.78625251364345,tremor
114,4919911,0.847,-0.005805113430046241,-0.25939594139706273,0.9673123846482699,-8.73734490983729,18.058121839417694,36.74787873719869,tremor
115,4919916,0.852,-0.010529593243333841,-0.2587185355415046,0.9648345177568078,-9.107381251042181,19.11416291041338,38.66199005457183,tremor
116,4919931,0.867,-0.015513049513824467,-0.2580355073930152,0.9621048762256349,-9.448310544036975,20.112017357662637,40.527929412821315,tremor
117,4919936,0.872,-0.020758124343551846,-0.2573535981029303,0.9591387922834653,-9.759905794153342,21.04007501892036,42.34486452833436,tremor
118,4919946,0.882,-0.026267389562723613,-0.25667934705941764,0.9559530229824084,-10.042213347809872,21.887530423624494,44.111807387216054,tremor
119,4919950,0.886,-0.03204325967879728,-0.2560190362840697,0.9525655990489847,-10.295555747013037,22.644488058656822,45.827638446140334,tremor
120,4919955,0.891,-0.038087880997364876,-0.25537863430844543,0.9489956765537986,-10.520531861722679,23.30205044183151,47.491134654137255,tremor
121,4919960,0.896,-0.04440299750694603,-0.25476374096572185,0.9452633925199059,-10.718014003044376,23.852388962015873,49.1010002941203,tremor
122,4919965,0.901,-0.05098979657535827,-0.2541795346536498,0.9413897245270118,-10.889141769510049,24.288798287930078,50.65589958128258,tremor
123,4919970,0.906,-0.05784873962019994,-0.253630723580766,0.9373963534875323,-11.035312451110437,24.60573579631102,52.15448994663519,tremor
124,4919975,0.911,-0.06497938458616437,-0.2531215023303673,0.9333055281201137,-11.158167902031908,24.79884790993276,53.595454966312,tremor
125,4919980,0.916,-0.07238020823388061,-0.25265551481153553,0.9291399292527213,-11.259577885495998,24.86498547230275,54.97753596033539,tremor
126,4919984,0.92,-0.08004843689054365,-0.25223582436197595,0.9249225319572447,-11.34161999005145,24.80221033438391,56.299561373094456,tremor
127,4919989,0.925,-0.08797989442167321,-0.2518648914680873,0.9206764636365922,-11.406556317931841,24.60979520992436,57.560473162100756,tremor
128,4919994,0.93,-0.09616887576515121,-0.2515445593096543,0.9164248565220156,-11.456807255321376,24.288218588618673,58.75934956484553,tremor
129,4919999,0.935,-0.10460805344794644,-0.2512760471454145,0.9121906935517323,-11.49492275152624,23.839156092693962,59.8954237879487,tremor
130,4920026,0.962,-0.1132884231155776,-0.2510599514449402,0.907996647247145,-11.52355165418059,23.265469131854676,60.968098364529574,tremor
131,4920031,0.967,-0.12219929228874549,-0.2508962546389741,0.903864911931743,-11.545409757947034,22.571191075495637,61.97695513929609,tremor
132,4920036,0.972,-0.13132831439767687,-0.25078434137833977,0.8998170303922399,-11.563247301668516,21.761510475564183,62.92176103604578,tremor
133,4920041,0.977,-0.14066156776446664,-0.2507230222113165,0.8958737167946993,-11.57981666798958,20.842750230093465,63.80246990495258,tremor
134,4920046,0.982,-0.15018367678753294,-0.25071056455725793,0.8920546782816375,-11.597840990644446,19.82234106876665,64.61922082216392,tremor
135,4920051,0.987,-0.15987797032413043,-0.2507447307400408,0.8883784381592897,-11.619984273220403,18.70878742294135,65.37233323692149,tremor
136,4920056,0.992,-0.16972667034323055,-0.25082282265343053,0.8848621639360862,-11.64882349477522,17.51162362979066,66.0622993604147,tremor
137,4920060,0.996,-0.1797111024788746,-0.2509417323912994,0.8815215037031626,-11.686823039601002,16.241358514346622,66.68977418506826,tremor
138,4920065,1.001,-0.18981191926013471,-0.25109799792717413,0.8783704344595633,-11.73631164764707,14.909406691344705,67.25556351639341,tremor
139,4920075,1.011,-0.2000093265813353,-0.251287862706212,0.8754211259732274,-11.799461943005712,13.528005421341016,67.76061038727539,tremor
140,4920080,1.016,-0.21028330440453233,-0.25150733784755896,0.872683823619878,-11.87827246808959,12.110116520562382,68.20598020195924,tremor
141,4920090,1.026,-0.22061381371428052,-0.25175226556557795,0.8701667533357857,-11.974552043453688,10.669313620532947,68.59284492342354,tremor
142,4920094,1.03,-0.2309809832978338,-0.2520183824128669,0.8678760513390869,-12.089906202867676,9.219655937223681,68.9224665778949,tremor
143,4920099,1.035,-0.24136527188509882,-0.2523013810221362,0.8658157206162342,-12.22572543061149,7.775550556904855,69.1961803121516,tremor
144,4920104,1.04,-0.2517476033868841,-0.2525969691625177,0.8639876153633845,-12.38317495250128,6.3516059939995,69.41537721123733,tremor
145,4920114,1.05,-0.26210947522375805,-0.2529009251077454,0.8623914536745549,-12.563185894031626,4.962480366518509,69.58148707144224,tremor
146,4920118,1.054,-0.2724330418514288,-0.2532091485197475,0.8610248578530292,-12.766447706584234,3.6227279408617217,69.69596132796711,tremor
147,4920123,1.059,-0.2827011773914838,-0.2535177062689415,0.8598834208671973,-12.993401868352198,2.346648009629229,69.76025636030346,tremor
148,4920150,1.086,-0.2928975226172025,-0.25382287283600236,0.8589607967501454,-13.244236986284239,1.148140071387656,69.77581744338822,tremor
149,4920155,1.091,-0.30300652229666425,-0.25412116516563843,0.8582488122151205,-13.518885549314302,0.040569062682158104,69.7440636763312,tremor
150,4920160,1.096,-0.31301345897107397,-0.25440937206261355,0.8577375964669086,-13.81702268559309,-0.9633560731521429,69.66637428771531,tremor
151,4920165,1.101,-0.3229044886107139,-0.25468457841520953,0.8574157261444408,-14.13806731957588,-1.8516879289681782,69.5440767617225,tremor
152,4920169,1.105,-0.3326666822911607,-0.2549441846756083,0.8572703825084863,-14.481186083673753,-2.613328718879273,69.37843723115338,tremor
153,4920174,1.11,-0.3422880762141522,-0.255185922097257,0.8572875183271066,-14.845300221644404,-3.2381004819300157,69.17065353557588,tremor
154,4920189,1.125,-0.3517577302788451,-0.2554078642141037,0.857452032322306,-15.229095559053711,-3.71679817025972,68.92185125220959,tremor
155,4920194,1.13,-0.3610657932329514,-0.2556084349476021,0.8577479494335669,-15.631035443478556,-4.041227501197301,68.63308288464134,tremor
156,4920199,1.135,-0.3702035704450119,-0.2557864135624441,0.8581586054526084,-16.04937639722911,-4.204230372012526,68.30533024968577,tremor
157,4920204,1.14,-0.37916358877511375,-0.25594093649495775,0.8586668347383596,-16.482186092296207,-4.199701237600435,67.93950994383283,tremor
158,4920208,1.144,-0.3879396520648653,-0.25607149589110056,0.8592551597131884,-16.927363157698462,-4.022598044962575,67.53648160695226,tremor
159,4920213,1.149,-0.396526880499216,-0.2561779345510029,0.8599059806863106,-17.382658265675435,-3.6689510928025117,67.09705854423572,tremor
160,4920218,1.154,-0.40492172749344185,-0.25626043690706324,0.8606017642898752,-17.845695916149346,-3.135872605602282,66.62202013075935,tremor
161,4920223,1.159,-0.4131219687553109,-0.25631951567133004,0.8613252285028223,-18.313996347696033,-2.4215689835551903,66.11212531710778,tremor
162,4920228,1.164,-0.42112665967638635,-0.2563559938732443,0.8620595219360528,-18.784997043288296,-1.5253567224012574,65.56812648585797,tremor
163,4920233,1.169,-0.4289360591210015,-0.25637098216086984,0.8627883948150363,-19.256073363976082,-0.4476819893498752,64.99078288021806,tremor
164,4920238,1.174,-0.43655151989482555,-0.2563658514424759,0.8634963589685488,-19.724557930021824,0.8098571246100541,64.38087283729503,tremor
165,4920243,1.179,-0.4439753485545602,-0.25634220118399376,0.8641688341476101,-20.18775847663795,2.244487511644002,63.739204108122976,tremor
166,4920247,1.183,-0.4512106396146059,-0.2563018239363786,0.8647922781763541,-20.642974039059514,3.852239636225383,63.06662163639295,tremor
167,4920275,1.211,-0.45826109144668686,-0.25624666693341436,0.8653542987826658,-21.087509463018176,5.627930795553513,62.364012301381386,tremor
168,4920280,1.216,-0.46513081304755033,-0.25617879186316767,0.8658437454601585,-21.518688378421434,7.565156232448878,61.63230630568397,tremor
169,4920285,1.221,-0.4718241320831313,-0.2561003341546667,0.8662507803381798,-21.93386489304856,9.656291138719663,60.87247508886749,tremor
170,4920289,1.225,-0.4783454148673305,-0.25601346329962643,0.8665669277172751,-22.330434330569993,11.892506060552513,60.08552584555644,tremor
171,4920299,1.235,-0.4846989079674068,-0.25592034580299977,0.866785102582727,-22.705843335473535,14.26379733996899,59.272492893445055,tremor
172,4920304,1.24,-0.49088860899491427,-0.2558231122913792,0.8668996189694202,-23.05759960364938,16.759033141623988,58.43442625956063,tremor
173,4920314,1.25,-0.49691817118058434,-0.25572383009286154,0.8669061794784764,-23.38328139743501,19.366014518115872,57.57237793110866,tremor
174,4920319,1.255,-0.5027908430255275,-0.2556244822472447,0.866801847530299,-23.68054689660825,22.071550028277994,56.687386255392944,tremor
175,4920323,1.259,-0.50850944114336,-0.2555269534433586,0.866585004092737,-23.94714334383618,24.861541758859435,55.7804589791643,tremor
176,4920328,1.264,-0.514076351741753,-0.2554330228606983,0.8662552906776839,-24.18091587633418,27.721080277638833,54.8525554008092,tremor
177,4920333,1.269,-0.5194935542929865,-0.25534436337457356,0.8658135403939468,-24.379815897503647,30.634546068796453,53.90456807782513,tremor
178,4920338,1.274,-0.5247626599311658,-0.25526254612421356,0.8652616988118572,-24.541908829940237,33.58571530581273,52.93730449291634,tremor
179,4920342,1.278,-0.5298849569943507,-0.2551890490864476,0.8646027363545284,-24.66538110060104,36.557868306391114,51.95146903877171,tremor
180,4920347,1.283,-0.534861456825044,-0.2551252680726503,0.8638405538903142,-24.74854623825245,39.53389959939025,50.9476456383314,tremor
181,4920357,1.293,-0.5396929343125987,-0.2550725284857033,0.8629798831669295,-24.78985001225424,42.496429147563184,49.926281278987176,tremor
182,4920362,1.298,-0.5443799595190331,-0.2550320962346821,0.8620261837059081,-24.78787460917505,45.42791484895036,48.887670710743095,tremor
183,4920367,1.303,-0.5489229188496006,-0.25500518639699626,0.8609855377722605,-24.741341924943935,48.310766905670405,47.83194254536391,tremor
184,4920372,1.308,-0.5533220263540679,-0.2549929685252857,0.8598645450537389,-24.64911613518672,51.12746490902583,46.75904700231363,tremor
185,4920400,1.336,-0.5575773276025154,-0.25499656789866043,0.8586702187309231,-24.510205781058897,53.86067846753056,45.66874558263728,tremor
186,4920410,1.346,-0.5616886999011139,-0.2550170624814778,0.8574098846884367,-24.32376565598488,56.49339186622229,44.56060300991975,tremor
187,4920415,1.351,-0.5656558531430985,-0.25505547582081284,0.8560910856813685,-24.08909878234902,59.009032605740224,43.43398183709684,tremor
188,4920424,1.36,-0.5694783351453797,-0.25511276650625875,0.8547214922734901,-23.805658714184208,61.39160280280988,42.288040143642384,tremor
189,4920429,1.365,-0.573155543917682,-0.2551898150580306,0.8533088222415449,-23.47305230053733,63.62581149847877,41.121732709846654,tremor
190,4920434,1.37,-0.5766867472422539,-0.2552874091711653,0.8518607698585459,-23.091042925100517,65.69720513152616,39.93381595151693,tremor
191,4920439,1.375,-0.5800711076981853,-0.25540622815143094,0.8503849460426969,-22.65955413358479,67.59229297308455,38.72285675397722,tremor
192,4920444,1.38,-0.5833077093428858,-0.2555468271931587,0.848888829836885,-22.178673486605497,69.29866425821983,37.48724518998991,tremor
193,4920448,1.384,-0.5863955810161073,-0.2557096219342747,0.8473797311276506,-21.648656431586872,70.80509405791202,36.225210965173815,tremor
194,4920453,1.389,-0.589333710821625,-0.2558948735278833,0.8458647639786152,-21.069929966177597,72.10163552310593,34.93484331932523,tremor
195,4920458,1.394,-0.5921210467817125,-0.25610267432263734,0.8443508294879183,-20.44309586366058,73.17969690647219,33.61411402808232,tremor
196,4920463,1.399,-0.594756479871968,-0.2563329341599466,0.8428446067178919,-19.76893324789465,74.03210264032408,32.26090309630196,tremor
197,4920478,1.414,-0.5972388074924718,-0.2565853672778018,0.8413525500137075,-19.04840034532414,74.65313863832164,30.873026707955834,tremor
198,4920482,1.418,-0.5995666777164135,-0.2568594798546355,0.8398808909448612,-18.282635307545128,75.03858280739531,29.448266993915283,tremor
199,4920492,1.428,-0.6017385170854309,-0.2571545583250198,0.8384356431847534,-17.472956084301504,75.18572240034487,27.984403202717512,tremor
200,4920497,1.433,-0.6037524468929336,-0.25746965874364464,0.8370226089004578,-16.62085941611619,75.093360187717,26.47924392056467,tremor
201,4920533,1.469,-0.6056061943771716,-0.2578035976526153,0.8356473856502878,-15.728019083967238,74.76181137969034,24.93066009000042,tremor
202,4920539,1.475,-0.6072970057026277,-0.25815494509411135,0.8343153733321925,-14.796283579202301,74.19289276592322,23.336618705422104,tremor
203,4920543,1.479,-0.6088215669477615,-0.25852202055562895,0.8330317812814956,-13.827673329561035,73.38990477322051,21.69521717368879,tremor
204,4920548,1.484,-0.6101759377349683,-0.2589028926691361,0.8318016360290956,-12.824377542753055,72.35760629616966,20.004718366168444,tremor
205,4920553,1.489,-0.6113555000439144,-0.25929538335565805,0.8306297903761372,-11.788750631048087,71.1021814863701,18.26358633157389,tremor
206,4920558,1.494,-0.612354922602354,-0.2596970768153057,0.8295209342950167,-10.723308089138472,69.63119734452938,16.470522513176718,tremor
207,4920563,1.499,-0.6131681394260645,-0.2601053333686407,0.8284796078091125,-9.63072163448132,67.95355096625411,14.624502168051446,tremor
208,4920568,1.504,-0.6137883398334361,-0.2605173077416139,0.8275102155541831,-8.513813390819996,66.0794055911918,12.724810554381271,tremor
209,4920573,1.509,-0.6142079667296477,-0.2609299710271427,0.8266170422853362,-7.375548899242343,64.02011512375121,10.77107834908562,tremor
210,4920582,1.518,-0.6144187201769266,-0.2613401353018998,0.8258042682352186,-6.219028773215688,61.78813745844366,8.763315686245729,tremor
211,4920587,1.523,-0.6144115641759464,-0.26174447975287973,0.8250759829975787,-5.047478871907427,59.396937674065484,6.701944169308825,tremor
212,4920592,1.528,-0.6141767360194471,-0.26213957718164604,0.8244361965355096,-3.864238947309936,56.86088286563116,4.587826209447382,tremor
213,4920602,1.538,-0.6137037593092503,-0.26252191989739293,0.8238888460126095,-2.6727498203785833,54.195130959814406,2.422291082068408,tremor
214,4920607,1.543,-0.6129814634686248,-0.26288794426232115,0.8234377974170979,-1.4765392488271116,51.41551621784222,0.20715717525048616,tremor
215,4920612,1.548,-0.6119980140183897,-0.26323405348001816,0.8230868413649349,-0.2792067463381058,48.538434203444744,-2.0552499747427437,tremor
216,4920616,1.552,-0.6107409586991587,-0.26355663857516226,0.8228396829714635,0.9155923216116052,45.58072874316465,-4.362084113165238,tremor
217,4920621,1.557,-0.6091972944568843,-0.26385209785443636,0.8226999262020827,2.104163022496939,42.55958282549703,-6.709969244556235,tremor
218,4920657,1.593,-0.6073535592460029,-0.26411685542286495,0.8226710535833842,3.2827872144691193,39.492414512658854,-9.094995075443197,tremor
219,4920662,1.598,-0.6051959506155479,-0.26434737952284004,0.8227564025126841,4.447739751510772,36.39677787245786,-11.512716703916258,tremor
220,4920667,1.603,-0.6027104704213724,-0.26454020153669133,0.8229591395773886,5.595304423898045,33.29026785715768,-13.958158269277547,tremor
221,4920671,1.607,-0.5998830922461424,-0.26469193643064387,0.8232822342230071,6.721789643513629,30.19042720152417,-16.425820303159018,tremor
222,4920676,1.612,-0.5966999457541535,-0.26479930522560613,0.8237284327688337,7.823543989443002,27.11465297499625,-18.90969064888075,tremor
223,4920686,1.622,-0.5931475106458759,-0.26485915979656566,0.8243002332150723,8.89697180289443,24.08010044761765,-21.403258997673593,tremor
224,4920691,1.627,-0.5892128122462831,-0.26486850998449435,0.8249998606271421,9.938549054033919,21.10358234078719,-23.899535271554615,tremor
225,4920696,1.632,-0.5848836110286013,-0.2648245527081149,0.8258292422563326,10.944839694657377,18.201462224947285,-26.391072221096085,tremor
226,4920701,1.637,-0.5801485794320607,-0.26472470252880886,0.8267899810823235,11.912512663180058,15.389541692655447,-28.86999268391642,tremor
227,4920706,1.642,-0.5749974610234668,-0.2645666229730896,0.8278833262265092,12.83835963155485,12.682941871670332,-31.32802196509103,tremor
228,4920715,1.651,-0.569421209175118,-0.2643482578577193,0.8291101387177146,13.719313488937631,10.095980752369346,-33.75652576085752,tremor
229,4920720,1.656,-0.5634121047434002,-0.26406786188234227,0.8304708513792062,14.552467454047013,7.642048609885501,-36.14655395933815,tremor
230,4920725,1.661,-0.5569638544677832,-0.2637240298349353,0.8319654221060238,15.335094605714692,5.3334844355914,-38.48889051927987,tremor
231,4920730,1.666,-0.5500716737004244,-0.263315723874306,0.8335932804599805,16.064667528161806,3.1814566908320976,-40.77410945140079,tremor
232,4920735,1.671,-0.5427323583852318,-0.2628422984866,0.8353532682632654,16.738877693459653,1.1958518211680065,-42.99263671464581,tremor
233,4920740,1.676,-0.534944351764992,-0.26230352283464087,0.8372435756519301,17.35565415616962,-0.6148261667711238,-45.13481760815179,tremor
234,4920744,1.68,-0.5267078110250984,-0.2616996003111985,0.8392616747900823,17.91318111895504,-2.2435421151783537,-47.19098900847958,tremor
235,4920772,1.708,-0.5180246779889511,-0.261031185159663,0.8414042540840355,18.409913943788894,-3.684799674578962,-49.15155558659526,tremor
236,4920777,1.713,-0.5088987561757122,-0.2602993960316853,0.8436671562187115,18.84459322671206,-4.9346929989332216,-51.007068953961564,tremor
237,4920787,1.723,-0.4993357942717696,-0.2595058263059947,0.8460453236099938,19.21625661418628,-5.990939035005246,-52.74830854965419,tremor
238,4920792,1.728,-0.48934357374786963,-0.2586525508990406,0.8485327548703578,19.524248102462344,-6.852889921450824,-54.3663630107645,tremor
239,4920796,1.732,-0.47893199640162987,-0.25774212917802614,0.8511224755896754,19.768224619708665,-7.521525603590639,-55.85271077661014,tremor
240,4920806,1.742,-0.46811316632295347,-0.25677760348002715,0.8538065261583492,19.9481597450366,-7.999427275873047,-57.19929875468415,tremor
241,4920811,1.747,-0.456901460266273,-0.25576249269007645,0.8565759685741923,20.06434447496378,-8.290732690434329,-58.39861799998243,tremor
242,4920820,1.756,-0.4453135805959819,-0.25470078036447585,0.8594209132696057,20.11738500969913,-8.401074719538821,-59.44377550286807,tremor
243,4920825,1.761,-0.43336858568356146,-0.25359689700794824,0.8623305660655244,20.108197597437734,-8.33750481723861,-60.32856132218225,tremor
244,4920830,1.766,-0.4210878936804864,-0.2524556963072882,0.8652932944884429,20.03800053990113,-8.108403164880636,-61.04751042888997,tremor
245,4920835,1.771,-0.40849525678725324,-0.25128242535732453,0.8682967119448454,19.908303520753066,-7.723377286777771,-61.59595874087963,tremor
246,4920839,1.775,-0.3956167043459864,-0.25008268915004495,0.8713277776769218,19.72089446504964,-7.193150791631323,-61.970092934221476,tremor
247,4920844,1.78,-0.3824804542178436,-0.24886240980391683,0.8743729100394387,19.47782416962389,-6.529443665616845,-62.16699370889505,tremor
248,4920849,1.785,-0.36911679293122696,-0.2476277811691991,0.8774181104308117,19.181388961149477,-5.744845265095172,-62.18467226370837,tremor
249,4920854,1.79,-0.35555792599617775,-0.24638521954927128,0.8804490951575525,18.8341116427433,-4.8526808836201685,-62.02209979385905,tremor
250,4920859,1.795,-0.34183780057833546,-0.24514131132885283,0.8834514325784886,18.43872098499229,-3.86687254564536,-61.6792298664933,tremor
251,4920864,1.8,-0.3279919034144067,-0.2439027583040525,0.8864106830277928,17.998130007806008,-2.801794544969418,-61.157013556860186,tremor
252,4920869,1.805,-0.3140570374237197,-0.24267632147618035,0.8893125392171016,17.51541329065989,-1.6721242265533418,-60.4574072416037,tremor
253,4920906,1.842,-0.3000710809105598,-0.2414687640114079,0.8921429650325698,16.993783545517378,-0.49268862433378857,-59.58337294689994,tremor
254,4920911,1.847,-0.286072733527455,-0.24028679398879874,0.8948883308462557,16.436567691716874,0.7216921757308312,-58.5388711387107,tremor
255,4920921,1.857,-0.2721012532214467,-0.23913700746050195,0.8975355436413112,15.847182683269757,1.9563636886346154,-57.32884582502659,tremor
256,4920926,1.862,-0.2581961881402064,-0.2380258322260728,0.900072170415437,15.229111348819048,3.1969959628001097,-55.959201825510725,tremor
257,4920930,1.866,-0.24439710690427258,-0.23695947258020272,0.902486553500997,14.585878503845942,4.429740569944309,-54.43677406522131,tremor
258,4920940,1.876,-0.2307433298289416,-0.23594385514812707,0.9047679166488769,13.92102757845354,5.641383024662064,-52.76928877602701,tremor
259,4920950,1.886,-0.21727366276271104,-0.23498457580764492,0.9069064609789869,13.23809797318891,6.819487739916076,-50.96531654518563,tremor
260,4920955,1.891,-0.20402613437175054,-0.2340868476441023,0.9088934501943321,12.540603315108514,7.952532520010709,-49.03421723350237,tremor
261,4920959,1.895,-0.19103773707877228,-0.2332554499190368,0.9107212847589401,11.832010743669484,9.030029650904705,-46.98607689244999,tremor
262,4920964,1.9,-0.1783441715464714,-0.23249467816486188,0.912383565011927,11.115721318242459,10.04263086030733,-44.83163693754479,tremor
263,4920979,1.915,-0.16597959461300005,-0.23180829573999848,0.9138751433892202,10.395051611521339,10.982213766164081,-42.58221598035983,tremor
264,4920988,1.924,-0.15397637091976651,-0.231199487464883,0.9151921660183516,9.673216537318588,11.841947884654703,-40.24962487941034,tremor
265,4920993,1.929,-0.14236482905864167,-0.2306708162649777,0.916332103921586,8.953313454080176,12.616338809463276,-37.84607573535571,tremor
266,4921020,1.956,-0.13117302381796078,-0.23022418401655123,0.9172937739072657,8.238307581301052,13.301249795477796,-35.384085720688354,tremor
267,4921025,1.961,-0.12042650692203981,-0.22986079797157388,0.9180773489724056,7.531018760128982,13.8939006658092,-32.8763767873236,tremor
268,4921030,1.966,-0.11014810943103398,-0.22958114419601425,0.9186843577380642,6.83410958001464,14.392844665527404,-30.33577242324976,tremor
269,4921035,1.971,-0.10035773959876598,-0.22938496938515113,0.9191176721759509,6.15007488086969,14.797924540008792,-27.775092717386393,tremor
270,4921040,1.976,-0.09107220040571784,-0.22927127223785967,0.9193814827388999,5.481232626317798,15.11020965896499,-25.20704903297868,tremor
271,4921044,1.98,-0.08230503116872413,-0.22923830531029868,0.919481260020075,4.829716130241227,15.331916410517314,-22.644139589353234,tremor
272,4921049,1.985,-0.07406637759432126,-0.2292835879619104,0.9194237022318343,4.197467608440255,15.466314355506151,-20.09854722183128,tremor
273,4921054,1.99,-0.06636289442053414,-0.229403930681973,0.9192166680838387,3.5862330222774754,15.51762077662751,-17.582040540400403,tremor
274,4921059,1.995,-0.05919768440842083,-0.22959547076388206,0.918869095011436,2.9975581832146476,15.490886297021445,-15.105879645023451,tremor
275,4921063,1.999,-0.052570276916438896,-0.22985371899025675,0.9183909031195873,2.432786096226944,15.391874193170068,-12.680727481874074,tremor
276,4921068,2.004,-0.04647664862795807,-0.23017361671235806,0.917792885627716,1.8930555343259774,15.226935900745147,-10.316567841498046,tremor
277,4921073,2.009,-0.040909288215197306,-0.23054960245513792,0.9170865869956372,1.3793008520594157,15.002885024028071,-8.022630907160375,tremor
278,4921078,2.014,-0.03585730582685424,-0.23097568695464213,0.9162841702564554,0.8922530584117809,14.726871927237395,-5.807327159591287,tremor
279,4921083,2.019,-0.031306587304075935,-0.2314455353367031,0.9153982753635885,0.4324421757258973,14.406260729662934,-3.6781903339894035,tremor
280,4921088,2.024,-0.027239991988314564,-0.23195255497467465,0.9144418705687928,0.00020091002556794565,14.048510266714779,-1.6418300090147542,tremor
281,4921093,2.029,-0.02363759191754017,-0.2324899874204478,0.913428098986861,-0.4043303498649753,13.661060334687006,0.2961057102560185,tremor
282,4921098,2.034,-0.02047694915157042,-0.23305100268989615,0.91237012257792,-0.7811972004842306,13.251224323415146,2.1309570682496255,tremor
283,4921103,2.039,-0.017733426966165037,-0.2336287941059729,0.9112809658027308,-1.1306235733537986,12.82608916969776,3.859068855551549,tremor
284,4921112,2.048,-0.01538052975581287,-0.23421667186641681,0.9101733611969184,-1.4530028026451098,12.39242344375284,5.477795791670953,tremor
285,4921143,2.079,-0.01339026573040435,-0.2348081535155691,0.9090595990856785,-1.748887473795044,11.956594314856295,6.985497060063507,tremor
286,4921148,2.084,-0.011733525917231119,-0.23539704956743887,0.9079513836394445,-2.018978144408419,11.524494124270348,8.381520063562121,tremor
287,4921153,2.089,-0.010380472615088995,-0.23597754265317555,0.9068596974648013,-2.2641110552735815,11.101477298705857,9.666173575633962,tremor
288,4921158,2.094,-0.009300930305299746,-0.23654425874728277,0.9057946769313052,-2.485244968425643,10.692308324450615,10.840690577496453,tremor
289,4921163,2.099,-0.0084647720909736,-0.23709232925075927,0.9047655004362062,-2.6834472773983413,10.301121434852123,11.907181191090428,tremor
290,4921168,2.104,-0.007842294967042805,-0.23761744295625292,0.9037802917793221,-2.859879533162077,9.931392532771222,12.86857623819204,tremor
291,4921172,2.108,-0.00740457756441237,-0.23811588716988427,0.9028460407346673,-3.0157825222866936,9.585923688291157,13.728562072356036,tremor
292,4921177,2.113,-0.0071238144171836245,-0.23858457750106937,0.9019685427456152,-3.152461026271215,9.26684033751922,14.491507441711123,tremor
293,4921182,2.118,-0.0069736212467860804,-0.23902107604654232,0.901152359425535,-3.2712683855966795,8.975601072661755,15.162383247164781,tremor
294,4921187,2.123,-0.006929306232674428,-0.2394235978849305,0.9004008012121004,-3.3735909900900363,8.713019665640394,15.74667616201038,tremor
295,4921192,2.128,-0.006968102749775778,-0.23979100596546735,0.8997159331034004,-3.4608328190146,8.479298716330481,16.25029717420434,tremor
296,4921197,2.133,-0.007069359609788942,-0.2401227946240262,0.8990986039062115,-3.534400159800901,8.274074071534178,16.67948620118774,tremor
297,4921201,2.137,-0.007214685463369813,-0.2404190620991392,0.8985484988655332,-3.595686642887134,8.096468931091897,17.04071401016948,tremor
298,4921206,2.142,-0.007388044721720353,-0.2406804725582744,0.898064214938861,-3.646058740806547,7.945156349896593,17.340582756553722,tremor
299,4921211,2.147,-0.007575803155339101,-0.24090820828787066,0.897643357351303,-3.686841891355286,7.8184286620917,17.58572653134514,tremor
