sample,t_ms,t_s,ax,ay,az,gx,gy,gz,tremor
0,4910748,0.0,-0.08197673036097383,-0.26935383709809707,0.8778151183745802,0.7203794848981138,4.82392385733507,5.110710495315138,tremor
1,4910760,0.012,-0.08824754547445196,-0.2697492125974104,0.8783473720226459,0.11487383681204354,8.04359719340173,1.5408032071909663,tremor
2,4910771,0.023,-0.09665137330027707,-0.2703553065391969,0.8791068384450863,-0.4710657110793635,11.113382525626692,-2.0424658972231637,tremor
3,4910793,0.045,-0.10719851132875985,-0.27120475704567637,0.8801173592219487,-1.0253711240585563,14.10509626412541,-5.637983153897092,tremor
4,4910804,0.056,-0.11944973858851383,-0.272284807125088,0.8813587736443924,-1.5367450893956776,17.090064067684335,-9.243212179179116,tremor
5,4910837,0.089,-0.13276564017019285,-0.27354635066853183,0.8827847335348723,-1.9949530912163032,20.134616858842705,-12.853306733699336,tremor
6,4910848,0.1,-0.14651580641035525,-0.27492042291413193,0.8843422061977237,-2.391069798586195,23.29578080184938,-16.460507956681052,tremor
7,4910859,0.111,-0.16017930070382919,-0.27633141834085756,0.8859833936610937,-2.7176737357275123,26.617415829535975,-20.053885182872943,tremor
8,4910870,0.122,-0.1733670262906076,-0.2777049050395638,0.887670512128966,-2.968990386134429,30.12711655877161,-23.619443675918188,tremor
9,4910882,0.134,-0.18580755469000984,-0.278971416776036,0.8893763381823174,-3.1409884426619574,33.834204121768835,-27.140585877149856,tremor
10,4910926,0.178,-0.1973230346581882,-0.28006805920629885,0.8910829102815143,-3.2314337079283395,37.72906256613994,-30.598876789147408,tremor
11,4910958,0.21,-0.2078071003615926,-0.2809391780185765,0.8927796913528951,-3.239898698953971,41.78388559452993,-33.975030780199,tremor
12,4910969,0.221,-0.21720814833144225,-0.2815367127223799,0.8944616988374694,-3.167716396687824,45.95462633292867,-37.2500122432739,tremor
13,4910981,0.233,-0.22551755297970763,-0.28182046666903093,0.8961276799703027,-3.0178618452993344,50.18368441795403,-40.4061343482854,tremor
14,4910992,0.244,-0.2327611489813804,-0.2817583498568301,0.8977782536215645,-2.794752679309882,54.40275918747966,-43.428051855807354,tremor
15,4911003,0.255,-0.23899225617047298,-0.281326624190201,0.8994139558288917,-2.5039783883453857,58.53542605062377,-46.30356965839014,tremor
16,4911014,0.266,-0.2442849907171206,-0.2805102252325526,0.9010332295748087,-2.1519898891138567,62.49930959159387,-49.02421771559159,tremor
17,4911025,0.277,-0.24872727366676187,-0.27930328256604287,0.9026305155295172,-1.7457966816405872,66.20809149122586,-51.58556702751441,tremor
18,4911037,0.289,-0.25241361917370064,-0.2777099645315021,0.9041946722596934,-1.2927228959689958,69.57385313101926,-53.987276446194805,tremor
19,4911048,0.3,-0.2554383008315487,-0.2757457117304172,0.9057079533997289,-0.8002630618983578,72.51030253425135,-56.23286632376422,tremor
20,4911082,0.334,-0.25788972079031025,-0.27343880302053364,0.9071456984633582,-0.2760532609723888,74.93722235516437,-58.32921572131735,tremor
21,4911093,0.345,-0.25984666872330936,-0.2708320439315598,0.9084767811677613,0.27206107008401886,76.78602955822741,-60.28578244692012,tremor
22,4911104,0.356,-0.2613766955872865,-0.26798422274199696,0.9096647454854742,0.8359098788319423,78.00579608020976,-62.11355927436256,tremor
23,4911115,0.367,-0.2625362132838541,-0.264970896938153,0.910669484753825,1.4068970142045243,78.56866701776137,-63.82381295623715,tremor
24,4911126,0.378,-0.26337141575933326,-0.26188409839712956,0.911449303228276,1.975963419606052,78.47353110266302,-65.42670352016445,tremor
25,4911138,0.39,-0.2639189175315074,-0.2588306908049122,0.9119632301573098,2.5336421561213043,77.74710663780934,-66.92993519356737,tremor
26,4911149,0.401,-0.2642052179335828,-0.25592933958216474,0.9121734949012413,3.0702064433511276,76.44219040742296,-68.33762484214161,tremor
27,4911160,0.412,-0.26424466820159703,-0.2533062897355186,0.912048078184192,3.5758895486699567,74.63345971772276,-69.64956968593518,tremor
28,4911171,0.423,-0.2640363558813502,-0.25109031647752356,0.9115632157970457,4.041140184239995,72.4117003969558,-70.86104333058236,tremor
29,4911204,0.456,-0.2635609554346934,-0.24940727412062239,0.910705668204486,4.456873395672688,69.8775151922738,-71.96314970599798,tremor
30,4911215,0.467,-0.26277885595633466,-0.24837462224860477,0.9094745257876103,4.814686537621753,67.13541810278647,-72.94363771306085,tremor
31,4911226,0.478,-0.26163062030769924,-0.24809619525093554,0.9078823354115417,5.107028829726148,64.28882593485449,-73.78796656230708,tremor
32,4911249,0.501,-0.26004013573197465,-0.24865736417534612,0.9059554218288186,5.327332956254604,61.435996752804556,-74.48036255437047,tremor
33,4911260,0.512,-0.2579199872670363,-0.250120677337143,0.9037334069087802,5.470129537261946,58.666643004512075,-75.00464775653415,tremor
34,4911271,0.523,-0.2551779990396441,-0.2525220874665017,0.9012680394127691,5.531164076641687,56.058899661046944,-75.34472961943784,tremor
35,4911282,0.534,-0.2517237889675418,-0.25586796145379825,0.8986214831858449,5.507521374706903,53.67653750810459,-75.48476713269947,tremor
36,4911294,0.546,-0.24747455048400666,-0.2601331646917618,0.8958641648998211,5.397742816076861,51.566618040252706,-75.40912475666516,tremor
37,4911338,0.59,-0.2423598522010798,-0.2652605401971893,0.893072203010075,5.201910144880795,49.757984191790655,-75.10226360347309,tremor
38,4911349,0.601,-0.2363256920178574,-0.2711620112384953,0.8903243978946863,4.921673575551443,48.260943592185924,-74.54870009089464,tremor
39,4911360,0.612,-0.2293381302516804,-0.2777213319913611,0.8876987997316872,4.560219783427421,47.068246033862984,-73.73310922339876,tremor
40,4911372,0.624,-0.22138656922909122,-0.28479826543710746,0.8852689711810737,4.122194573959382,46.15712120092981,-72.64059720111005,tremor
41,4911383,0.635,-0.21248636160838058,-0.2922337801790471,0.8831001759715705,3.613603315555157,45.49189110805456,-71.25713788583695,tremor
42,4911394,0.646,-0.20268017654152456,-0.2998557963626767,0.8812458041021636,3.041705469736006,45.02661075133921,-69.57015676789872,tremor
43,4911406,0.658,-0.19203757856669038,-0.30748507975950906,0.8797443657082854,2.4149036241455994,44.707337137689535,-67.56923950508609,tremor
44,4911417,0.669,-0.18065256908256902,-0.31494103064014595,0.8786173453490449,1.742611898940496,44.473918250910444,-65.24692949521172,tremor
45,4911451,0.703,-0.16863928823314284,-0.322047263783238,0.8778681147696309,1.0350805775430487,44.261511269450814,-62.599556650101555,tremor
46,4911462,0.714,-0.15612651795384638,-0.32863696065304043,0.8774819761123935,0.30315632031674034,44.0022499063931,-59.62800777676811,tremor
47,4911473,0.725,-0.14325190354755934,-0.3345579642698708,0.8774272869747307,-0.4420303680570517,43.627489770490364,-56.338315197885485,tremor
48,4911484,0.736,-0.1301567960396886,-0.339677499511387,0.8776575464027262,-1.1894403244482539,43.070857102921316,-52.74192276009249,tremor
49,4911496,0.748,-0.1169822870737412,-0.34388628968209917,0.8781143140769435,-1.9285341220278314,42.27199044189079,-48.85550979798507,tremor
50,4911507,0.759,-0.10386648557227272,-0.3471017652313963,0.878730865118214,-2.649670042125758,41.180531576850456,-44.70032382189627,tremor
51,4911518,0.77,-0.09094259531274745,-0.3492700677008656,0.8794364938369054,-3.3444453468142714,39.759718937683445,-40.301075492473615,tremor
52,4911529,0.781,-0.07833710454446602,-0.3503666576299311,0.8801613285866814,-4.005945648365536,37.98893454769486,-35.68454973526806,tremor
53,4911541,0.793,-0.0661674906583335,-0.3503955210823694,0.8808414032096225,-4.6288857546241795,35.864753608955915,-30.878153239861874,tremor
54,4911573,0.825,-0.054539234673072264,-0.34938718478239095,0.8814235803329706,-5.20964130594816,33.4003769180883,-25.90863698763952,tremor
55,4911584,0.836,-0.04354248248022068,-0.3473959242140404,0.8818697892400117,-5.746178843037648,30.623679355957982,-20.80120089711596,tremor
56,4911595,0.847,-0.0332491714261356,-0.34449661916350843,0.8821599850227927,-6.237895510388859,27.574361886240272,-15.579108747442154,tremor
57,4911606,0.858,-0.023711650520514122,-0.34078165093320706,0.8822933095550912,-6.68538387507049,24.300768572373958,-10.263826338819877,tremor
58,4911618,0.87,-0.014963633369053245,-0.33635806930984335,0.8822871608297352,-7.090144401985426,20.85682618966661,-4.87557165407917,tremor
59,4911629,0.881,-0.0070237671372839145,-0.33134504637857104,0.8821742218876721,-7.454274619323832,17.29936346717621,0.5659281475000593,tremor
60,4911640,0.892,9.862928816644408e-05,-0.3258714470357815,0.8819978768492428,-7.780164165934418,13.685869344024884,6.0407086556930985,tremor
61,4911651,0.903,0.006396740656380971,-0.32007323612556104,0.8818067417126201,-8.070216684737662,10.072613847837928,11.528063626580376,tremor
62,4911662,0.914,0.011859738925853246,-0.3140904394211701,0.8816491743330739,-8.32660774525602,6.512994939827482,17.006365689767303,tremor
63,4911695,0.947,0.0164678588987336,-0.30806348395568256,0.8815685621343745,-8.551079913692986,3.0559851313441686,22.453204801888155,tremor
64,4911706,0.958,0.020189880146300822,-0.30212893554659515,0.8815999355985251,-8.74477404722936,-0.25537826219188275,27.845742780042556,tremor
65,4911717,0.969,0.022983187059678816,-0.29641486792815214,0.8817680914993532,-8.908096645405486,-3.3854125719521964,33.1611258329432,tremor
66,4911728,0.98,0.024795979798647717,-0.2910362618733526,0.8820870397306602,-9.040624587328319,-6.306981330962743,38.376793649368764,tremor
67,4911739,0.991,0.02557081208749283,-0.2860908877061195,0.8825603224821829,-9.141053221614,-9.002281080683751,43.470575877942686,tremor
68,4911751,1.003,0.025248503674399174,-0.2816560656387394,0.883181669351528,-9.207203104931368,-11.463069900601882,48.42055567116726,tremor
69,4911762,1.014,0.023771605220676253,-0.27778656563892595,0.8839355599691244,-9.23610946683383,-13.690254125719147,53.20476982458665,tremor
70,4911773,1.025,0.021086918549070723,-0.2745137545628816,0.8847975158967416,-9.224216936050691,-15.692843739205687,57.80087089820281,tremor
71,4911784,1.036,0.017146991873034798,-0.2718459623769142,0.8857342371763649,-9.167684909415232,-17.486387920137894,62.185878946766294,tremor
72,4911816,1.068,0.01191088997175994,-0.2697699432384645,0.8867039207671755,-9.062781851976393,-19.09109584195238,66.33610241474015,tremor
73,4911828,1.08,0.005344771217083233,-0.2682532595932372,0.8876571587357283,-8.906322452007105,-20.529912570997343,70.22723388635423,tremor
74,4911839,1.091,-0.0025771646868382615,-0.2672474120480576,0.8885386900920695,-8.69608864896445,-21.826823957451694,73.83456014692173,tremor
75,4911850,1.102,-0.011870942263063873,-0.26669154980368803,0.8892900291814492,-8.431173757552257,-23.005583822538725,77.133193375836,tremor
76,4911862,1.114,-0.02254013938603769,-0.2665165917849093,0.8898527238495598,-8.112194737571528,-24.088906606181524,80.09823957858862,tremor
77,4911873,1.125,-0.03457244682952139,-0.26664954719001827,0.8901718083807592,-7.741332177663927,-25.098007267222837,82.7048634135636,tremor
78,4911884,1.136,-0.04793592161097326,-0.26701775675933287,0.8901989601997291,-7.3221855181761315,-26.0522626351832,84.92827001721811,tremor
79,4911895,1.147,-0.06257559075901542,-0.26755271844879186,0.889894946355717,-6.859472094942615,-26.96875010212933,86.74368870712922,tremor
80,4911906,1.158,-0.07841107061891286,-0.26819315182648046,0.8892311275304572,-6.358640471199134,-27.861492454694435,88.12649334624156,tremor
81,4911939,1.191,-0.09533565591327352,-0.2688870143048502,0.8881900295640144,-5.825491887971513,-28.740381598040805,89.05260898169703,tremor
82,4911951,1.203,-0.1132169565797943,-0.26959230468549533,0.8867652338865554,-5.265896208170991,-29.609931696222578,89.49931772187679,tremor
83,4911973,1.225,-0.13189875911426252,-0.27027665566829623,0.8849609994710642,-4.685653434708272,-30.46816849173727,89.44649003579974,tremor
84,4911984,1.236,-0.151203526817284,-0.27091590110028185,0.8827920363139388,-4.09050210068495,-31.30602897601416,88.87815529773549,tremor
85,4911996,1.248,-0.17093493131818388,-0.2714919700912933,0.8802836834758677,-3.486227701917004,-32.107574144324154,87.78422582476976,tremor
86,4912007,1.259,-0.19088002143932611,-0.2719905611798894,0.8774724652721051,-2.878793575938261,-32.85111624615657,86.1621361385235,tremor
87,4912018,1.27,-0.2108109977181693,-0.2723990475760107,0.8744067239700966,-2.2744139761698405,-33.51110862446851,84.01816875166432,tremor
88,4912029,1.281,-0.23048694389193083,-0.27270496087683205,0.8711468648716808,-1.6795143795208933,-34.0604436588692,81.36830120407465,tremor
89,4912062,1.314,-0.24965612619949576,-0.27289523895307694,0.8677647562920844,-1.100566026140451,-34.47272079501211,78.23850273156864,tremor
90,4912073,1.325,-0.2680594841602909,-0.2729562581757508,0.8643419984586614,-0.5438234967261695,-34.72409287382034,74.66450405491695,tremor
91,4912084,1.336,-0.2854356741113183,-0.2728745348774324,0.8609670529637259,-0.0150209917404844,-34.79444390513226,70.69113201240768,tremor
92,4912096,1.348,-0.3015276040314365,-0.2726378864644004,0.8577315093402701,0.48091068960978367,-34.667846477336596,66.37132280338099,tremor
93,4912107,1.359,-0.3160900133215425,-0.27223679412243496,0.8547259557738089,0.9400544642117749,-34.33244027244636,61.7649059628481,tremor
94,4912118,1.37,-0.32889745348412214,-0.27166571668723194,0.8520359597182184,1.3596123271760316,-33.780014323396806,56.937209425366476,tremor
95,4912129,1.381,-0.33975204027950673,-0.27092417059672225,0.8497385586561594,1.7378987532315948,-33.00562090753066,51.957500189522925,tremor
96,4912185,1.437,-0.3484905101569537,-0.2700174894657057,0.847899464827182,2.074240323709529,-32.007477214267375,46.8972600651446,tremor
97,4912197,1.449,-0.354990333156893,-0.26895726455597646,0.8465709723791576,2.3688165320515977,-30.78724665993079,41.82830707575827,tremor
98,4912219,1.471,-0.35917481502774035,-0.26776150883555194,0.8457903976182553,2.622480241649915,-29.35060758765611,36.820807350159775,tremor
99,4912230,1.482,-0.3610171706793447,-0.26645457677814993,0.8455788472905945,2.8365899298466557,-27.707894798811722,31.941265123736038,tremor
100,4912241,1.493,-0.3605434395353021,-0.26506682895202854,0.8459402115831101,3.0128757403638122,-25.874575192101606,27.250608260002693,tremor
101,4912253,1.505,-0.3578339279991309,-0.26363398280293054,0.8468604587724308,3.153349495129698,-23.87137120131687,22.80248975246016,tremor
102,4912264,1.516,-0.35302275616679446,-0.2621960660683615,0.8483074644957922,3.2602555689022013,-21.723934420971077,18.64190492941746,tremor
103,4912275,1.527,-0.34629514528795563,-0.2607959074108349,0.8502316609203859,3.3360488604835865,-19.46207225315115,14.804192957298369,tremor
104,4912306,1.558,-0.33788227973426316,-0.2594771635581712,0.85256772253571,3.3833831277090747,-17.11862894093578,11.314460976935605,tremor
105,4912317,1.569,-0.32805381524489274,-0.2582819743815196,0.8552373514102755,3.4050978847729327,-14.72819789564468,8.187443253368425,tremor
106,4912328,1.58,-0.31710830805631474,-0.25724842479897303,0.8581530425666224,3.404199566792599,-12.325866668313562,5.427784533775248,tremor
107,4912340,1.592,-0.30536199647493856,-0.2564080484654201,0.8612225515655322,3.3838370940904436,-9.946153818259146,3.0307145616549636,tremor
108,4912351,1.603,-0.2931365085048325,-0.25578362361354173,0.8643536831635262,3.3472718611056105,-7.622203614855465,0.9830596989613384,tremor
109,4912362,1.614,-0.2807462140429911,-0.255387491956777,0.8674589809005628,3.297839867507654,-5.385200929010395,-0.7354798435194356,tremor
110,4912373,1.625,-0.2684860619293121,-0.25522058752902693,0.87045991646106,3.238901927949881,-3.2638957801741313,-2.1508700302609367,tremor
111,4912395,1.647,-0.2566207856894138,-0.25527230082173435,0.8732902431488623,3.1737779147547185,-1.284105850368731,-3.2931871910412225,tremor
112,4912406,1.658,-0.24537627963130618,-0.2555212284226955,0.8758982775713196,3.105663177278639,0.5319036827534972,-4.195050535887148,tremor
113,4912439,1.691,-0.23493372839070578,-0.2559367738472601,0.8782479939811333,3.0375295100280897,2.166193257698326,-4.890119366326796,tremor
