sample,t_ms,t_s,ax,ay,az,gx,gy,gz,tremor
0,4922343,0.0,-0.14674392569627018,-0.24408755693749865,0.8575659614481348,1.5529331731782454,-50.9059120737572,5.029144304618321,tremor
1,4922369,0.026,-0.1503968693184138,-0.24406944031861316,0.8579062311436408,1.6215836638943892,-42.607583632512586,4.412955083663654,tremor
2,4922374,0.031,-0.15533454485745363,-0.24404879025689402,0.8583614933990197,1.7070460824493527,-34.70953303042856,3.7773381925728824,tremor
3,4922379,0.036,-0.1616008511420126,-0.24402759117265319,0.8589316683621686,1.8090403628249885,-27.242721097787545,3.121818818377545,tremor
4,4922383,0.04,-0.1689893354447363,-0.24400869386042573,0.8595927090359097,1.92715758113027,-20.23505978717961,2.445893318372328,tremor
5,4922388,0.045,-0.1771766678237715,-0.24399473913470723,0.8603097998883452,2.0608606666935305,-13.71116872795127,1.7490344138128588,tremor
6,4922398,0.055,-0.18583625712875734,-0.24398759813641108,0.8610483439976843,2.209486418952175,-7.692163171831692,1.030697130741238,tremor
7,4922402,0.059,-0.19469380272673428,-0.24398829038005546,0.8617792510543472,2.3722488889131537,-2.1954762463501796,0.2903254087625468,tremor
8,4922408,0.065,-0.20354062649008461,-0.2439971288060619,0.8624801588355697,2.548244170535134,2.7652817383027264,-0.4726407024909269,tremor
9,4922412,0.069,-0.21222672023613195,-0.24401391548436488,0.8631347365451145,2.736456624618581,7.180424415927888,-1.258757336421749,tremor
10,4922417,0.074,-0.22064774457754868,-0.24403811076868961,0.8637314394433998,2.9357665280639766,11.0442487344064,-2.068568663746142,tremor
11,4922427,0.084,-0.22873254704453885,-0.2440689572447325,0.8642623345803861,3.144959109780901,14.355050815837808,-2.9025983750992324,tremor
12,4922432,0.089,-0.2364332951548346,-0.24410556334641417,0.8647221874312999,3.362734907121044,17.115097120573655,-3.761340859267177,tremor
13,4922436,0.093,-0.24371834511459886,-0.24414695716036564,0.8651078127553743,3.5877213583874656,19.33055044168355,-4.645252151803981,tremor
14,4922441,0.098,-0.2505673193453982,-0.244192119949214,0.865417634047399,3.8184855394344335,21.0113511273139,-5.554740743651773,tremor
15,4922446,0.103,-0.2569677822692582,-0.24424000641540702,0.8656513902417915,4.053547952284865,22.171054956215865,-6.490158359673947,tremor
16,4922456,0.113,-0.26291300722989813,-0.24428955646885708,0.865809939733615,4.291397272992432,22.82663025057235,-7.451790839958105,tremor
17,4922465,0.122,-0.2684004633584717,-0.2443397016310747,0.8658951256852335,4.53050595414193,22.998218053052884,-8.439849280076075,tremor
18,4922492,0.149,-0.27343076794528803,-0.2443893681283839,0.8659096782444331,4.7693465437371,22.708860453988382,-9.454461608169415,tremor
19,4922497,0.154,-0.2780069370445102,-0.2444374780321562,0.865857137856448,5.006408520143529,21.984203318796176,-10.495664792660584,tremor
20,4922502,0.159,-0.28213382796875164,-0.24448294936096016,0.865741789729195,5.24021535804982,20.852180562707552,-11.56339787635059,tremor
21,4922507,0.164,-0.28581770834344716,-0.24452469578759706,0.8655686033917912,5.469341455270008,19.342687563646226,-12.657496010602827,tremor
22,4922512,0.169,-0.2890659132096942,-0.24456162644859716,0.865343173783646,5.692428492150217,17.48725120493136,-13.77768561211375,tremor
23,4922517,0.174,-0.29188656866118984,-0.2445926463000161,0.8650716618883543,5.908200780210341,15.318703456622107,-14.923580688972601,tremor
24,4922521,0.178,-0.29428837081484893,-0.2446166574626506,0.8647607339054804,6.115479183929555,12.870864478312166,-16.094680294030887,tremor
25,4922526,0.183,-0.2962804147233912,-0.24463256201107236,0.864417498547083,6.313193260442743,10.178240081437913,-17.290366974529732,tremor
26,4922531,0.188,-0.29787207061936005,-0.24463926664689947,0.8640494423908286,6.500391347233714,7.275737103721743,-18.509906006627865,tremor
27,4922541,0.198,-0.29907290564026745,-0.24463568962917231,0.8636643634035532,6.676248430328781,4.198398875372161,-19.752445138043868,tremor
28,4922546,0.203,-0.29989264863501824,-0.24462077019821812,0.8632703028223327,6.840071737543125,0.9811615527262415,-21.01701451811884,tremor
29,4922551,0.208,-0.3003411943239603,-0.24459348052374597,0.862875475579893,6.991304113020472,-2.3413692577559315,-22.302526482921056,tremor
30,4922555,0.212,-0.3004286413967942,-0.24455283994769378,0.8624881994132811,7.129525328606093,-5.735123355280988,-23.607774895612575,tremor
31,4922560,0.217,-0.30016535741648925,-0.2444979310045779,0.8621168227226225,7.254451564854659,-9.16675497969877,-24.931433822536786,tremor
32,4922565,0.222,-0.2995620619088966,-0.24442791642241318,0.8617696511774686,7.36593334648064,-12.60381932470626,-26.272055441064385,tremor
33,4922570,0.227,-0.2986299179493135,-0.24434205607543946,0.8614548730315438,7.463952246130801,-16.01494007084711,-27.6280672038179,tremor
34,4922575,0.232,-0.2973806220556146,-0.24423972271446895,0.8611804831277032,7.548616679815718,-19.36997135515955,-28.997768405686,tremor
35,4922580,0.237,-0.2958264823664625,-0.24412041527200146,0.8609542056672385,7.620157107931954,-22.64015710090554,-30.379326405419334,tremor
36,4922585,0.242,-0.29398047597305893,-0.2439837686429675,0.8607834159841579,7.678920925770406,-25.7982897838489,-31.770772841939024,tremor
37,4922589,0.246,-0.29185627787938456,-0.24382955907694498,0.860675061801517,7.725367275331558,-28.818869552584655,-33.170000259140735,tremor
38,4922616,0.273,-0.2894682563360497,-0.24365770466792375,0.8606355847415881,7.760061937711508,-31.67826322548988,-34.574759612001664,tremor
39,4922621,0.278,-0.2868314321123246,-0.24346826086171292,0.8606708431899087,7.783672377569757,-34.354861186274555,-35.9826591665815,tremor
40,4922626,0.283,-0.28396140241916884,-0.2432614113672162,0.8607860379298163,7.796962917905872,-36.82922880301768,-37.39116531739126,tremor
41,4922636,0.293,-0.2808742333293213,-0.2430374552867903,0.8609856422057757,7.800789938801894,-39.08424795459305,-38.7976058164683,tremor
42,4922646,0.303,-0.2775863272687428,-0.24279679160717668,0.8612733379818681,7.796096932849017,-41.105243736511426,-40.19917583520819,tremor
43,4922651,0.308,-0.2741142741622649,-0.24253990237954626,0.8616519601093864,7.7839092213678,-42.88009143943367,-41.592947169816014,tremor
44,4922655,0.312,-0.2704746959199716,-0.24226733596210717,0.8621234499163588,7.765328138265371,-44.39929933772023,-42.97588076643076,tremor
45,4922660,0.317,-0.26668409408197113,-0.241979691617762,0.8626888194183379,7.741524514389056,-45.65606357568609,-44.34484259183483,tremor
46,4922665,0.322,-0.262758709642665,-0.24167760657502904,0.863348126968663,7.713731335159567,-46.646292403847745,-45.696622716851515,tremor
47,4922670,0.327,-0.2587144025067972,-0.2413617463972609,0.8641004647610501,7.683235492130457,-47.36859810894315,-47.02795732092711,tremor
48,4922675,0.332,-0.2545665559152134,-0.2410327991875385,0.8649439582041858,7.651368602854865,-47.82425611499432,-48.33555318071319,tremor
49,4922680,0.337,-0.2503300087596095,-0.24069147380768707,0.8658757768338013,7.619496931584993,-48.01713183769675,-49.616114087163325,tremor
50,4922684,0.341,-0.24601901620472202,-0.24033850193223683,0.8668921561301209,7.589010501660404,-47.953576895228224,-50.8663685573924,tremor
51,4922689,0.346,-0.2416472366508971,-0.2399746434159469,0.8679884293788604,7.561311541188422,-47.642297166848934,-52.08309817617206,tremor
52,4922694,0.351,-0.23722774097839433,-0.2396006941536981,0.8691590685601315,7.537802437659854,-47.09419590208219,-53.26316591532334,tremor
53,4922699,0.356,-0.23277303837777163,-0.23921749538254736,0.8703977331787096,7.519873388137706,-46.32219557948122,-54.40354382626423,tremor
54,4922704,0.361,-0.22829511201893743,-0.2388259432439902,0.8716973259674543,7.508889919346395,-45.34104246578927,-55.50133956573315,tremor
55,4922708,0.365,-0.22380545742984986,-0.23842699741166232,0.8730500545081973,7.506180421713003,-44.167097814682336,-56.553821283709794,tremor
56,4922740,0.397,-0.2193151167788788,-0.238021687710217,0.8744474980226149,7.513023800550505,-42.8181193619911,-57.55844047002694,tremor
57,4922745,0.402,-0.21483470326636728,-0.23761111790548303,0.8758806788791922,7.530637303394275,-41.31303623995851,-58.512852424151376,tremor
58,4922750,0.407,-0.2103744114485892,-0.23719646620859106,0.8773401387045872,7.5601645436169225,-39.671719723707746,-59.414934085655695,tremor
59,4922755,0.412,-0.20594401137153798,-0.23677898244950676,0.8788160193091527,7.60266371717723,-37.91475148793496,-60.26279904153164,tremor
60,4922765,0.422,-0.20155282663740612,-0.23635998226335087,0.88029814885626,7.659096008912452,-36.06319045903274,-61.05480960430608,tremor
61,4922774,0.431,-0.19720969869030103,-0.235940838933098,0.881776133766784,7.730314207005357,-34.13833900182931,-61.78958592115645,tremor
62,4922784,0.441,-0.1929229414306969,-0.23552297371002182,0.8832394567383423,7.817051584684942,-32.161509103946315,-62.466012119802556,tremor
63,4922789,0.446,-0.18870029152127066,-0.2351078454787744,0.8846775809918533,7.919911163294599,-30.153789402527384,-63.08323951979526,tremor
64,4922794,0.451,-0.18454886025880288,-0.23469694055582566,0.8860800604749135,8.039355537276817,-28.13581431418356,-63.64068694426692,tremor
65,4922798,0.455,-0.18047509259909997,-0.23429176323326717,0.8874366553033428,8.175697511673066,-26.127537122063664,-64.13803816880802,tremor
66,4922803,0.46,-0.1764847379190158,-0.2338938274420553,0.888737451260406,8.329091862435627,-24.1480095440327,-64.57523655190428,tremor
67,4922808,0.465,-0.17258283557382545,-0.233504649649943,0.8899729817389993,8.499528562627653,-22.215170942352344,-64.95247691084566,tremor
68,4922813,0.47,-0.168773716488077,-0.23312574286525375,0.8911343501347877,8.686827811064346,-20.34565085307089,-65.27019473660458,tremor
69,4922818,0.475,-0.1650610201183928,-0.23275861141749513,0.8922133504007244,8.890637150581188,-18.554588860913817,-65.5290528745398,tremor
70,4922823,0.48,-0.1614477243350615,-0.23240474605426256,0.8932025832779721,9.11043087673362,-16.855475989705262,-65.7299258294139,tremor
71,4922832,0.489,-0.15793618424905975,-0.23206561885199833,0.8940955656476145,9.345511828497344,-15.260021687074019,-65.87388188396825,tremor
72,4922837,0.494,-0.15452817490374937,-0.23174267750094196,0.8948868305189485,9.595015540740112,-13.778050108509948,-65.96216325866607,tremor
73,4922863,0.52,-0.15122493217944796,-0.23143733869542665,0.8955720153869612,9.857916643636273,-12.417428682495647,-65.99616459718386,tremor
74,4922868,0.525,-0.14802718633769257,-0.23115098062161843,0.8961479370347777,10.133037325619991,-11.184030816810528,-65.97741014132626,tremor
75,4922873,0.53,-0.14493518345427095,-0.23088493483504985,0.8966126512792557,10.419057626152746,-10.081733141176485,-65.90753004841736,tremor
76,4922878,0.535,-0.14194869158404258,-0.23064047808048702,0.8969654965908841,10.71452727566727,-9.112446067182429,-65.78823637983523,tremor
77,4922893,0.55,-0.13906699076233472,-0.23041882475298697,0.8972071208996875,11.017878742702154,-8.276174929792285,-65.62129932746029,tremor
78,4922897,0.554,-0.1362888486047025,-0.23022112070182393,0.8973394912002574,11.327441088916007,-7.571107746803546,-65.40852422942899,tremor
79,4922902,0.559,-0.13361248590008662,-0.23004843895736474,0.8973658858077483,11.641454189866376,-6.993724819424242,-65.15172984709739,tremor
80,4922907,0.564,-0.13103553872004753,-0.2299017777568361,0.8972908693333022,11.95808287255879,-6.538925088611774,-64.85272822731201,tremor
81,4922917,0.574,-0.12855502477586042,-0.22978206099799975,0.8971202506809476,12.275430559582,-6.200164375151392,-64.5133062696188,tremor
82,4922926,0.583,-0.12616732182011886,-0.2296901409874624,0.8968610246388702,12.59155208975266,-5.969601271133122,-64.13520888770746,tremor
83,4922931,0.588,-0.12386816480295025,-0.22962680308791267,0.8965212979417883,12.9044654923901,-5.838247356295469,-63.720123439510225,tremor
84,4922936,0.593,-0.12165266642778243,-0.2295927716145797,0.8961102009929699,13.2121626103055,-5.796119434766659,-63.26966494338816,tremor
85,4922946,0.603,-0.11951536301639673,-0.22958871609517828,0.8956377867186063,13.512618580348779,-5.832392500627305,-62.78536153325428,tremor
86,4922951,0.608,-0.11745028459019755,-0.22961525680681336,0.8951149182504281,13.803800275435243,-5.935553021226843,-62.26863964601622,tremor
87,4922955,0.612,-0.11545104524831958,-0.22967296836783835,0.8945531472729507,14.083673874004262,-6.09355275271268,-61.72080856408565,tremor
88,4922960,0.617,-0.11351094770357474,-0.2297623801358772,0.8939645849224285,14.350211741623804,-6.293963577872584,-61.14304411923898,tremor
89,4922987,0.644,-0.11162309457214872,-0.22988397229157992,0.8933617670924754,14.601398785544845,-6.52413374951579,-60.53637156666016,tremor
90,4922992,0.649,-0.10978049888686292,-0.23003816679872488,0.8927575159068318,14.835238389946367,-6.771345478213651,-59.90164783341812,tremor
91,4922997,0.654,-0.10797618728812315,-0.2302253129106114,0.8921647989945468,15.04975797877175,-7.022973130475927,-59.23954351619222,tremor
92,4923007,0.664,-0.10620329121213273,-0.23044566747765216,0.8915965880816707,15.243014205532337,-7.26664054814079,-58.550525136359695,tremor
93,4923012,0.669,-0.10445512377341333,-0.23069937090955697,0.8910657183211187,15.413097748077218,-7.490375311946211,-57.83483824897107,tremor
94,4923016,0.673,-0.10272524250433801,-0.23098642016597315,0.8905847497230952,15.558137691590916,-7.682757274739166,-57.09249204148541,tremor
95,4923021,0.678,-0.10100750027939626,-0.2313066405215517,0.8901658320084922,15.676305507042805,-7.833058460200424,-56.323246045479046,tremor
96,4923031,0.688,-0.09929608833328805,-0.23165965803402525,0.8898205741665695,15.765818666495772,-7.931371487601887,-55.526599521631425,tremor
97,4923036,0.693,-0.09758557613136695,-0.2320448746271453,0.8895599199394817,15.82494397570849,-7.968724017087348,-54.70178397688588,tremor
98,4923050,0.707,-0.09587095293603,-0.23246144750138234,0.8893940303705811,15.852000744701066,-7.937177252677495,-53.84775915133053,tremor
99,4923055,0.712,-0.09414767528365296,-0.23290827423994076,0.8893321744377277,15.845363955052523,-7.829907219527017,-52.96321268888019,tremor
100,4923060,0.717,-0.09241172336803403,-0.2333839845347037,0.8893826286484137,15.803467615983873,-7.641268275677042,-52.04656359590696,tremor
101,4923065,0.722,-0.09065966771795729,-0.23388693897357063,0.889552586304899,15.72480852780452,-7.366839055560179,-51.0959695100973,tremor
102,4923070,0.727,-0.08888874580099981,-0.23441523486333,0.8898480769615954,15.607950687863699,-7.003451710181717,-50.1093377567948,tremor
103,4923074,0.731,-0.08709694650778918,-0.23496671865405006,0.8902738964028568,15.451530574219639,-6.5492058631108145,-49.08434015822417,tremor
104,4923079,0.736,-0.08528309903783639,-0.23553900420927068,0.8908335472813291,15.25426351754978,-6.003469117564355,-48.01843156634751,tremor
105,4923084,0.741,-0.08344696162980943,-0.23612949594762128,0.8915291903972596,15.01495131786984,-5.366866214793804,-46.90887209252141,tremor
106,4923111,0.768,-0.08158930492623165,-0.2367354157777297,0.8923616064956802,14.73249118309713,-4.641259044595064,-45.752752992183986,tremor
107,4923116,0.773,-0.0797119845810621,-0.23735383276613597,0.8933301684345798,14.405885972610326,-3.829719619767899,-44.54702612871053,tremor
108,4923121,0.778,-0.07781799803534087,-0.23798169461027588,0.8944328236392678,14.0342556350903,-2.9364978079477475,-43.28853689805553,tremor
109,4923126,0.783,-0.0759115211999852,-0.23861586020471476,0.895666086889054,13.616849648286745,-1.9669850426408795,-41.974060459303374,tremor
110,4923130,0.787,-0.07399792204506363,-0.23925313283765548,0.8970250436453345,13.153060204699418,-0.9276744552252574,-40.6003410924113,tremor
111,4923140,0.797,-0.07208374968800897,-0.2398902937841892,0.8985033642802898,12.642435840502728,0.17388299526168266,-39.16413448797695,tremor
112,4923145,0.802,-0.07017669933823605,-0.2405241362372697,0.9000933296639906,12.0846951721578,1.329127618535221,-37.66225275274226,tremor
113,4923150,0.807,-0.06828555521291328,-0.24115149962006768,0.9017858685915234,11.479740384991524,2.528547154512774,-36.091611876089615,tremor
114,4923155,0.812,-0.06642011511269573,-0.24176930434950258,0.9035706074743954,10.82767011178432,3.7617421869104852,-34.44928133733787,tremor
115,4923160,0.817,-0.06459110158575547,-0.242374587074694,0.905435932590008,10.128791348360954,5.017503044819262,-32.732535438497635,tremor
116,4923165,0.822,-0.06281006540548263,-0.24296453630870113,0.9073690649981312,9.38363007759158,6.28390019650347,-30.938905828836173,tremor
117,4923169,0.826,-0.06108928738106238,-0.24353652822589017,0.909356148018303,8.592940312322234,7.5483896790634155,-29.06623455858031,tremor
118,4923174,0.831,-0.05944168428809097,-0.2440881622303675,0.9113823469406914,7.757711319322696,8.797934472257692,-27.112726872280632,tremor
119,4923179,0.836,-0.05788072396061602,-0.2446172957303329,0.9134319604334918,6.879172846396666,10.019141962031373,-25.07700283922307,tremor
120,4923184,0.841,-0.056420353378228316,-0.24512207739196193,0.9154885429223124,5.958798238602328,11.198416793324618,-22.958146829582518,tremor
121,4923194,0.851,-0.055074942002769876,-0.2456009780037091,0.9175350370524996,4.998305392852939,12.32212752566674,-20.755753790777604,tremor
122,4923199,0.856,-0.05385924079128286,-0.2460528179652829,0.9195539151976593,3.9996555596925982,13.3767846210422,-18.469971266603746,tremor
123,4923204,0.861,-0.05278835538483393,-0.2464767903348078,0.9215273288337998,2.9650500539061766,14.349226454800144,-16.101536137828422,tremor
124,4923208,0.865,-0.05187773011912657,-0.24687247833828677,0.9234372644404402,1.8969249786929285,15.226809291921569,-13.651805150626798,tremor
125,4923235,0.892,-0.05114313790064262,-0.2472398662861455,0.9252657043998794,0.7979440974450293,15.997596557015795,-11.1227784370669,tremor
126,4923240,0.897,-0.05060066980491405,-0.24757934296765918,0.926994791138089,-0.32901000174831485,16.650542301290322,-8.517115408435282,tremor
127,4923249,0.906,-0.050266717619874834,-0.2478916968147362,0.9286069925067422,-1.4808463134760932,17.17566362285758,-5.838142595851591,tremor
128,4923254,0.911,-0.05015794257603559,-0.24817810244497518,0.9300852661960881,-2.6542772862491915,17.564197036117655,-3.089853199424309,tremor
129,4923259,0.916,-0.05029122419718132,-0.24844009859745056,0.9314132208500734,-3.845832084824854,17.808734452068972,-0.2768982730111281,tremor
130,4923264,0.921,-0.05068358448307937,-0.24867955792292365,0.9325752715612631,-5.0518712025460095,17.903335436815723,2.595430383014894,tremor
131,4923269,0.926,-0.051352084331845016,-0.24889864952205312,0.9335567875499533,-6.268602404968518,17.843613595342195,5.52122541552979,tremor
132,4923274,0.931,-0.05231369104292505,-0.24909979548246514,0.934344230051124,-7.492097999973323,17.626796131891627,8.493996866352383,tremor
133,4923284,0.941,-0.053585117761071,-0.24928562290972664,0.9349252787100376,-8.718313438699326,17.251756767874483,11.506712418929624,tremor
134,4923289,0.946,-0.055182637706498464,-0.24945891306109852,0.935288945092039,-9.943107258545622,16.71902319072524,14.551844375226874,tremor
135,4923294,0.951,-0.05712187787489259,-0.24962254917421953,0.9354256722206672,-11.162262384779108,16.03076102009621,17.621422696349324,tremor
136,4923304,0.961,-0.059417598465776135,-0.2497794644499086,0.9353274193528854,-12.371508809589908,15.190736882166615,20.70709336732079,tremor
137,4923309,0.966,-0.0620834654930009,-0.24993259142661875,0.9349877314696362,-13.566547663705236,14.204263559305318,23.8001813019234,tremor
138,4923314,0.971,-0.06513182474783982,-0.25008481371142743,0.9344017931992679,-14.743076682480307,13.078130315059928,26.891756985622646,tremor
139,4923318,0.975,-0.06857348544906204,-0.25023892075004067,0.9335664671013523,-15.896817043415425,11.820521371509049,29.97270605816412,tremor
140,4923323,0.98,-0.07241752148092938,-0.2503975660619694,0.9324803164225434,-17.02354151389285,10.440925146641622,33.033801054716236,tremor
141,4923328,0.985,-0.07667109708666725,-0.250563229160158,0.9311436125984274,-18.1191037947951,8.950036287580222,36.065774544036756,tremor
142,4923333,0.99,-0.08133932229948068,-0.25073818122586244,0.9295583279188718,-19.179468875122886,7.359651824296346,39.059392910913154,tremor
143,4923369,1.026,-0.08642514135311394,-0.2509244545173804,0.9277281139001564,-20.200744123398806,5.68256198034093,42.00553001715567,tremor
144,4923374,1.031,-0.09192925498288394,-0.25112381544975027,0.925658266011806,-21.179210736928834,3.9324353977402313,44.895239934145714,tremor
145,4923388,1.045,-0.0978500751826581,-0.2513377412921888,0.923355675478537,-22.11135506200897,2.123697924524072,47.71982787006421,tremor
146,4923398,1.055,-0.10418370901575903,-0.25156740049946574,0.9208287688997066,-22.99389920628811,0.27140389031159656,50.47091832678923,tremor
147,4923403,1.06,-0.11092396686754591,-0.2518136368256396,0.9180874363833372,-23.823830306970585,-1.6089009204148834,53.14051943974228,tremor
148,4923408,1.065,-0.1180623902566303,-0.2520769575413131,0.9151429487772398,-24.598427804751775,-3.501324688230578,55.721082412671684,tremor
149,4923413,1.07,-0.12558829491122517,-0.2523575262397396,0.9120078644152853,-25.31528810212241,-5.389782590750174,58.2055549850619,tremor
150,4923418,1.075,-0.13348882601421055,-0.252655160818409,0.9086959256177659,-25.972346045962055,-7.2581558493557665,60.58742796648396,tremor
151,4923423,1.08,-0.1417490240230832,-0.25296933722546994,0.9052219450310529,-26.56789275409877,-9.0904545567167,62.86077402456374,tremor
152,4923428,1.085,-0.15035190100436185,-0.25329919945536467,0.9016016817991775,-27.100589392830788,-10.870981629579674,65.02027810443049,tremor
153,4923438,1.095,-0.1592785287622011,-0.25364357607666194,0.8978517075566452,-27.56947660398152,-12.584495018721915,67.06125907938403,tremor
154,4923442,1.099,-0.16850814100380154,-0.2540010033008138,0.8939892623397498,-27.973979379209748,-14.216365284417982,68.9796824824087,tremor
155,4923457,1.114,-0.17801825220275555,-0.25436975428507314,0.8900321007530847,-28.31390729258719,-15.752725787374423,70.77216444221746,tremor
156,4923483,1.14,-0.18778479554624652,-0.25474787404342136,0.8859983291189063,-28.589450134157033,-17.18061302764657,72.43596723688641,tremor
157,4923488,1.145,-0.19778228131096673,-0.2551332190523626,0.8819062348885868,-28.801169129528226,-18.48809506229361,73.9689871625573,tremor
158,4923493,1.15,-0.20798397531201931,-0.25552350040766325,0.8777741102798166,-28.949984057773523,-19.664386413322983,75.36973565573106,tremor
159,4923497,1.154,-0.21836209503361317,-0.255916329217092,0.8736200728363847,-29.037156660971547,-20.699948394563233,76.6373147605619,tremor
160,4923507,1.164,-0.22888801912013315,-0.2563092627922976,0.8694618862666996,-29.064270763031118,-21.586574286945773,77.77138807717091,tremor
161,4923512,1.169,-0.2395325044581105,-0.2566998501228736,0.8653167853893458,-29.033209501217957,-22.317459231451807,78.77214828188988,tremor
162,4923517,1.174,-0.2502659043225372,-0.2570856750873286,0.8612013092278488,-28.946130048651632,-22.887255056126552,79.64028221010066,tremor
163,4923522,1.179,-0.26105838104506,-0.2574643959047359,0.8571311462236808,-28.805436184628054,-23.292110485629387,80.37693436083038,tremor
164,4923532,1.189,-0.2718801073269024,-0.2578337794844556,0.8531209951801594,-28.613749050667426,-23.529697281855956,80.98366953103556,tremor
165,4923546,1.203,-0.28270145153089216,-0.2581917296020657,0.8491844449439724,-28.373876407013206,-23.599222820474647,81.46243512592126,tremor
166,4923561,1.218,-0.29349314386144426,-0.2585363082043639,0.8453338750366195,-28.088780675486902,-23.501429419639525,81.81552353140174,tremor
167,4923565,1.222,-0.3042264220738033,-0.2588657495813143,0.8415803785469904,-27.76154602847785,-23.23858043240054,82.04553479173194,tremor
168,4923570,1.227,-0.31487315704577545,-0.2591784675700649,0.8379337076817724,-27.395344775908033,-22.814432771205073,82.15533972983984,tremor
169,4923575,1.232,-0.325405960036375,-0.2594730563072183,0.834402241530347,-26.99340332679492,-22.23419525920349,82.14804359788633,tremor
170,4923580,1.237,-0.3357982746465217,-0.2597482852831075,0.8309929748981418,-26.558968064728116,-21.504472078402923,82.02695035602909,tremor
171,4923608,1.265,-0.3460244573388511,-0.2600030895835075,0.8277115265273887,-26.09527157020886,-20.633190626158115,81.79552773881234,tremor
172,4923613,1.27,-0.35605985083284847,-0.26023655626813286,0.8245621646662308,-25.605499729009914,-19.629513285311365,81.45737336259005,tremor
173,4923618,1.275,-0.36588085471524884,-0.26044790787224464,0.8215478477706563,-25.092760354241737,-18.503732963879475,81.0161822274455,tremor
174,4923623,1.28,-0.37546499713224374,-0.26063648404907436,0.8186702781307936,-24.56005398505447,-17.267152787384152,80.47571604052102,tremor
175,4923628,1.285,-0.3847910104450195,-0.26080172239182564,0.8159299663904128,-24.010247486413114,-15.931951019812828,79.83977480916293,tremor
176,4923638,1.295,-0.39383891231734197,-0.2609431394624855,0.8133263052366139,-23.44605097188512,-14.511033082328252,79.11217111723482,tremor
177,4923642,1.299,-0.4025900920389487,-0.26106031298698856,0.8108576509148345,-22.869998434483474,-13.01787333520908,78.29670741947349,tremor
178,4923647,1.304,-0.41102740019156486,-0.2611528660413665,0.8085214116046328,-22.284432326655807,-11.466349988910169,77.39715658575858,tremor
179,4923652,1.309,-0.41913523825285326,-0.2612204538589958,0.8063141420123155,-21.691492193539364,-9.870577026570034,76.41724581700481,tremor
180,4923662,1.319,-0.42689964358103044,-0.26126275365926166,0.8042316437517794,-21.093107336491613,-8.244737289825574,75.36064394856594,tremor
181,4923667,1.324,-0.4343083645294136,-0.26127945766595756,0.8022690711720531,-20.490993365317404,-6.602920872799842,74.23095205768384,tremor
182,4923672,1.329,-0.4413509202383192,-0.26127026928167424,0.8004210422461808,-19.88665238833276,-4.958972677184697,73.03169719400586,tremor
183,4923676,1.333,-0.4480186399368289,-0.2612349022353198,0.7986817539702462,-19.281376494488978,-3.326352412087577,71.76632895388772,tremor
184,4923681,1.338,-0.4543046773348699,-0.2611730824322436,0.7970451014507483,-18.67625410820823,-1.7180095201924452,70.43821852548126,tremor
185,4923686,1.343,-0.4602039968515677,-0.26108455220311333,0.7955047995100323,-18.07217875144483,-0.14627456667831595,69.05065975366634,tremor
186,4923691,1.348,-0.4657133299412002,-0.2609690766511038,0.7940545052493339,-17.469859733160956,1.377232354609863,67.60687172253915,tremor
187,4923696,1.353,-0.47083110155742,-0.26082645181794234,0.7926879396188808,-16.86983430639013,2.841676572362806,66.1100023355709,tremor
188,4923701,1.358,-0.4755573287376804,-0.26065651441506,0.7913990056972602,-16.272480887588674,4.237068329791888,64.56313239437644,tremor
189,4923706,1.363,-0.47989349527404,-0.2604591528934598,0.790181901119295,-15.678033020114638,5.554308636866864,62.96927974109758,tremor
190,4923733,1.39,-0.483842408322976,-0.2602343196611745,0.7890312219523423,-15.086593878786772,6.785223726569588,61.33140314147567,tremor
191,4923738,1.395,-0.4874080444055083,-0.2599820443118314,0.7879420553450597,-14.498151242891101,7.922590540928606,59.652405743956606,tremor
192,4923748,1.405,-0.4905953932760046,-0.259702447810126,0.7869100585032975,-13.912592981883357,8.960155578561096,57.93513813637897,tremor
193,4923752,1.409,-0.49341030824654963,-0.2593957576823123,0.7859315220181908,-13.329723161606754,9.892649041811143,56.18240120005831,tremor
194,4923757,1.414,-0.4958593705136036,-0.2590623243489586,0.7850034162724536,-12.749278864640187,10.715795564778213,54.396949092331646,tremor
195,4923772,1.429,-0.49794977292617343,-0.2587026387608385,0.7841234205079922,-12.170947738239303,11.426322001384914,52.581492749237704,tremor
196,4923777,1.434,-0.4996892258539898,-0.25831735141222173,0.7832899350287178,-11.594386174383986,12.021961956480704,50.73870428829384,tremor
197,4923782,1.439,-0.5010858848985139,-0.2579072926022167,0.782502077803517,-11.019237923250135,12.501456083453368,48.871222620693196,tremor
198,4923791,1.448,-0.5021482976512661,-0.2574734935344032,0.7817596673109839,-10.445152860335588,12.864546744295499,46.981660471270665,tremor
199,4923796,1.453,-0.5028853649150852,-0.25701720755704444,0.7810631937572334,-9.871805568599543,13.1119654839666,45.07261287139199,tremor
200,4923801,1.458,-0.5033063109325392,-0.2565399306211228,0.7804137807892899,-9.298913354300351,13.24541190665003,43.14666705013151,tremor
201,4923811,1.468,-0.5034206571886527,-0.25604341992131313,0.7798131395653625,-8.726253286311614,13.267522911484539,41.206413514862284,tremor
202,4923816,1.473,-0.5032381951277426,-0.25552970970287514,0.7792635166112869,-8.153677838079519,13.181831782260296,39.25445799348702,tremor
203,4923826,1.483,-0.502768954442415,-0.25500112334618663,0.7787676363860911,-7.5811287281025805,12.992717245318012,37.2934338179418,tremor
204,4923831,1.488,-0.5020231652260805,-0.25446028103478285,0.7783286390014411,-7.008648608768087,12.705343217614963,35.326014275879984,tremor
205,4923857,1.514,-0.5010112139853422,-0.25391010252117974,0.7779500131923393,-6.4363903502032525,12.325590473815296,33.354924457158766,tremor
206,4923871,1.528,-0.4997435950226216,-0.2533538046905334,0.7776355245125899,-5.864623797293995,11.859981792829231,31.3829521773426,tremor
207,4923876,1.533,-0.4982308597308004,-0.2527948937702827,0.7773891388889997,-5.293740013956296,11.315602239575924,29.41295765604954,tremor
208,4923891,1.548,-0.49648356662172505,-0.25223715214238235,0.77721494210817,-4.724253127153982,10.700016072652833,27.447881726217226,tremor
209,4923900,1.557,-0.49451223433884156,-0.2516846197796163,0.7771170564339653,-4.156799920993703,10.021181401738382,25.490752409881924,tremor
210,4923910,1.567,-0.4923272986807585,-0.2511415703418124,0.7770995561931539,-3.592137322322316,9.287363296799239,23.544689698340328,tremor
211,4923915,1.572,-0.489939073244164,-0.25061248193902197,0.7771663846369502,-3.031137895141146,8.507045739810764,21.612908332468347,tremor
212,4923920,1.577,-0.4873577121794664,-0.2501020025311361,0.7773212745548719,-2.4747834412935754,7.688842706468514,19.698718320705566,tremor
213,4923930,1.587,-0.48459317306366617,-0.24961490993527133,0.7775676749419328,-1.924156791711274,6.84140876929135,17.805522882104448,tremor
214,4923934,1.591,-0.48165517810299524,-0.24915606648865776,0.7779086855446081,-1.3804318652507026,5.973349854434892,15.936813474496999,tremor
215,4923939,1.596,-0.47855317265645614,-0.24873036857064798,0.7783470004344198,-0.8448620748951988,5.0931350740880506,14.0961615722653,tremor
216,4923944,1.601,-0.47529628119871753,-0.2483426914011137,0.7788848609994801,-0.3187671797338429,4.2090108234589865,12.287206901648897,tremor
217,4923949,1.606,-0.47189326208378196,-0.24799782977108228,0.779524018015938,0.19648128147707808,3.3289185326058472,10.513641929051376,tremor
218,4923954,1.611,-0.468352463632456,-0.24770043559587143,0.7802657018523318,0.699475784504066,2.4604175788905205,8.779192530746275,tremor
219,4923981,1.638,-0.46468178499677104,-0.2474549533927714,0.781110599433424,1.1887895834894886,1.6106148905640867,7.087594947126161,tremor
220,4923985,1.642,-0.4608886458324661,-0.24726555496517894,0.7820588363882983,1.6629941168729776,0.7861027033028164,5.442569328483132,tremor
221,4923990,1.647,-0.4569799689220023,-0.2471360747157936,0.7831099628553589,2.120676674903896,-0.007094240157578941,3.8477903843437544,tremor
222,4923995,1.652,-0.45296217943818295,-0.24706994710153857,0.7842629417149586,2.560457932569813,-0.7635610394254788,2.3068558162590564,tremor
223,4924000,1.657,-0.44884122350433436,-0.24707014776708972,0.7855161385280873,2.9810089797186667,-1.4785239017675047,0.8232533169774113,tremor
224,4924005,1.662,-0.44462260720750635,-0.24713913984042626,0.7868673130888659,3.381067537230332,-2.1478701074159474,-0.599673043686135,tremor
225,4924010,1.667,-0.4403114554854536,-0.24727882674012913,0.7883136131343924,3.7594531114666103,-2.768156862504916,-1.9587562363609494,tremor
226,4924015,1.672,-0.43591258859845494,-0.2474905126383205,0.7898515712914245,4.115080893685069,-3.336609581489388,-3.2510387238262703,tremor
227,4924020,1.677,-0.4314306124384533,-0.24777487146253335,0.7914771067022532,4.446974252424906,-3.8511104332164803,-4.473803239833265,tremor
228,4924024,1.681,-0.42687001787592077,-0.24813192502879014,0.793185532924584,4.754275697442046,-4.310178215447184,-5.6246012679120945,tremor
229,4924029,1.686,-0.4222352837793413,-0.24856103060430204,0.7949715736322402,5.036256218961845,-4.712940796329661,-6.7012786882592845,tremor
230,4924039,1.696,-0.4175309782784583,-0.24906087792746814,0.7968293873653245,5.292322931900168,-5.059101481811057,-7.701998167342568,tremor
231,4924053,1.71,-0.41276185324589,-0.2496294954856704,0.7987526021189666,5.52202498570261,-5.348900733565366,-8.625257977243887,tremor
232,4924058,1.715,-0.40793292776624374,-0.2502642656794846,0.8007343599697885,5.7250577372806974,-5.583074663918631,-9.469907044331524,tremor
233,4924063,1.72,-0.40304955743088255,-0.2509619483858777,0.8027673712955355,5.901265223108075,-5.762811659011953,-10.235156134414881,tremor
234,4924068,1.725,-0.39811748749351655,-0.2517187123614612,0.8048439775408921,6.050640999409464,-5.889708319980473,-10.920585178835056,tremor
235,4924073,1.73,-0.3931428891032679,-0.2525301738814264,0.8069562210086153,6.173327440028362,-5.9657256716626925,-11.526146827797985,tremor
236,4924118,1.775,-0.38813237889289776,-0.2533914419732512,0.8090959198631935,6.269613588475022,-5.99314629734619,-12.052166379933782,tremor
237,4924123,1.78,-0.3830930230776469,-0.25429716956757864,0.8112547464357616,6.339931657510899,-5.974532760290622,-12.499338279383606,tremor
238,4924128,1.785,-0.3780323278657003,-0.2552416098517907,0.8134243069893836,6.38485226275265,-5.912687421936844,-12.868719395181795,tremor
239,4924133,1.79,-0.37295821834498244,-0.2562186770797143,0.8155962212912237,6.405078472089152,-5.810613610301556,-13.161719306335051,tremor
240,4924138,1.795,-0.36787900806999896,-0.25722201106744536,0.8177622005791206,6.401438752883623,-5.671478042893369,-13.380087815681762,tremor
241,4924143,1.8,-0.3628033613658305,-0.2582450445893833,0.8199141227512462,6.374878902778212,-5.498574435387887,-13.525899912423304,tremor
242,4924147,1.804,-0.35774024998796833,-0.25928107287561125,0.8220441038184082,6.3264530547947695,-5.295288283370555,-13.601538401458331,tremor
243,4924152,1.809,-0.3526989053337932,-0.2603233243978129,0.8241445648292974,6.257313851953663,-5.065062859033306,-13.609674418878452,tremor
244,4924157,1.814,-0.34768876698234646,-0.2613650321153043,0.8262082936117068,6.168701891007431,-4.811366507577924,-13.553246056574212,tremor
245,4924162,1.819,-0.3427194280028228,-0.2623995043376504,0.828228500775308,6.061934539723381,-4.537661358007371,-13.43543532359047,tremor
246,4924167,1.824,-0.3378005772503193,-0.2634201943492461,0.8301988695038234,5.938394237607847,-4.247373580663753,-13.25964367692446,tremor
247,4924172,1.829,-0.33294193876800304,-0.2644207679377717,0.8321135987360618,5.79951639565137,-3.9438653306984914,-13.029466359343786,tremor
248,4924181,1.838,-0.3281532084293633,-0.26539516797567814,0.833967439404629,5.646777016033478,-3.630408514575451,-12.74866578524365,tremor
249,4924186,1.843,-0.3234439880621026,-0.26633767522430335,0.8357557234750437,5.481680157402362,-3.3101605076528773,-12.42114421584927,tremor
250,4924191,1.848,-0.31882371746651633,-0.2672429645660356,0.8374743856123306,5.305745375272485,-2.986141936478527,-12.050915961338893,tremor
251,4924196,1.853,-0.3143016049386723,-0.26810615592310866,0.8391199774016898,5.120495270415138,-2.6612166212129402,-11.6420793401308,tremor
252,4924201,1.858,-0.30988655709394686,-0.2689228591934564,0.840689674166925,4.927443281022829,-2.338073753346306,-11.198788615688944,tremor
253,4924226,1.883,-0.30558710892898805,-0.2696892126242284,0.8421812745631385,4.728081856696739,-2.0192123633017074,-10.725226120097242,tremor
254,4924231,1.888,-0.3014113551430802,-0.270401914149732,0.8435931932616009,4.523871152959124,-1.7069281129615297,-10.225574762826787,tremor
255,4924236,1.893,-0.2973668837590816,-0.2710582453387854,0.8449244471815226,4.3162283823146534,-1.4033024311685587,-9.703991113118073,tremor
256,4924241,1.898,-0.29346071304494326,-0.2716560877219646,0.8461746358381312,4.106517950161942,-1.1101939981574085,-9.16457923406754,tremor
257,4924246,1.903,-0.28969923265202063,-0.2721939313970092,0.8473439164529457,3.896042490590995,-0.8292325797492803,-8.611365434613516,tremor
258,4924255,1.912,-0.2860881497738894,-0.27267087593622485,0.8484329745030179,3.686034899541354,-0.5618152140501881,-8.048274092918447,tremor
259,4924260,1.917,-0.28263244100780244,-0.273086623739397,0.8494429903742179,3.4776514428458514,-0.3091047595931327,-7.479104693199719,tremor
260,4924265,1.922,-0.2793363104849604,-0.27344146608651443,0.8503756027394608,3.27196599538204,-0.07203081933440139,-6.907510208916604,tremor
261,4924270,1.927,-0.2762031547341849,-0.2737362622440609,0.8512328692194228,3.069965444973671,0.14870694617628247,-6.336976957679566,tremor
262,4924284,1.941,-0.2732355346599112,-0.2739724120652854,0.8520172248146476,2.8725462710234586,0.35263311520231844,-5.770806046102918,tremor
263,4924289,1.946,-0.27043515494930126,-0.27415182259855836,0.8527314385367496,2.680512284138618,0.5394884343280271,-5.212096515572914,tremor
264,4924294,1.951,-0.2678028511715275,-0.274276869279572,0.8533785686234073,2.4945734909393256,0.7092194419591481,-4.663730292606953,tremor
265,4924299,1.956,-0.26533858478977707,-0.2743503523339601,0.8539619167052146,2.3153460294353727,0.8619658958635438,-4.128359039955311,tremor
266,4924304,1.961,-0.2630414462675775,-0.27437544905800215,0.8544849813059526,2.143353105327598,0.9980461736168638,-3.6083929965157577,tremor
267,4924309,1.966,-0.2609096664106675,-0.2743556626775315,0.8549514110987602,1.979026847589062,1.1179408787552858,-3.1059918856945243,tremor
268,4924314,1.971,-0.25894063604001366,-0.27429476851014295,0.855364958400566,1.822710991793211,1.2222749481680575,-2.6230579635561306,tremor
269,4924319,1.976,-0.2571309340378357,-0.27419675817444467,0.8557294334550428,1.6746642916426273,1.311798611378485,-2.161231269879073,tremor
270,4924323,1.98,-0.2554763637446045,-0.2740657826034545,0.8560486601194759,1.5350645531973894,1.387367594443759,-1.7218871363902717,tremor
271,4924349,2.006,-0.2539719976095187,-0.27390609462809395,0.8563264336237244,1.4040131826793876,1.4499229864143468,-1.3061359963924675,tremor
272,4924353,2.01,-0.2526122299082661,-0.2737219919012543,0.8565664811005835,1.281540137774558,1.5004711923924312,-0.9148255278181554,tremor
273,4924358,2.015,-0.25139083723635325,-0.27351776093196317,0.8567724255856611,1.1676091743207182,1.5400643817097819,-0.54854514488916,tremor
274,4924363,2.02,-0.2503010463582285,-0.27329762299001537,0.8569477541397027,1.0621232854062737,1.5697817988023974,-0.20763282886625262,tremor
275,4924368,2.025,-0.24933560883684164,-0.27306568262067404,0.8570957906495345,0.9649302388230502,1.5907122371349234,0.10781574406898209,tremor
276,4924378,2.035,-0.24848688168504832,-0.2728258794743722,0.8572196737172572,0.8758281320012461,1.603937890636557,0.39793585544794857,tremor
277,4924383,2.04,-0.24774691307561045,-0.27258194410715353,0.8573223398622339,0.7945709001120567,1.6105197074935897,0.6630802895696991,tremor
278,4924393,2.05,-0.24710753193194404,-0.27233735834451916,0.8574065120528427,0.7208737304337146,1.611484293479623,0.9038039146628412,tremor
279,4924402,2.059,-0.24656044001266395,-0.2720953207256753,0.8574746933723725,0.6544183515160212,1.6078123573346308,1.1208464745293358,tremor
280,4924407,2.064,-0.24609730491824486,-0.2718587174591362,0.8575291654242222,0.5948581772855287,1.6004286632636866,1.315113795325265,tremor
281,4924412,2.069,-0.24570985230876968,-0.2716300992279421,0.857571990914661,0.541823293289454,1.5901934528743635,1.487657641249783,tremor
282,4924422,2.079,-0.2453899555470452,-0.27141166408829537,0.857605019733476,0.4949252750283457,1.5778953134467846,1.6396544799269346,tremor
283,4924426,2.083,-0.2451297209828209,-0.2712052466137309,0.8576298977936091,0.4537618280207131,1.5642454919980167,1.7723834426117497,tremor
284,4924431,2.088,-0.24492156717144695,-0.2710123133503967,0.8576480778908868,0.417921238001033,1.5498736760854424,1.8872037850825374,tremor
285,4924441,2.098,-0.2447582964643806,-0.2708339645670342,0.8576608318972115,0.38698661979605514,1.5353252754081135,1.985532170673904,tremor
286,4924446,2.103,-0.24463315760477203,-0.2706709422026022,0.8576692636935379,0.36053995629962415,1.5210602387865317,2.0688201063857843,tremor
287,4924471,2.128,-0.24453989819247968,-0.270523643830046,0.8576743223678908,0.3381659241258298,1.507453428275474,2.1385318665195765,tremor
288,4924476,2.133,-0.24447280613311875,-0.27039214236083764,0.8576768153314289,0.3194555080785714,1.4947965479029814,2.1961232361943464,tremor
289,4924481,2.138,-0.24442673944180718,-0.27027621110801336,0.8576774211245771,0.30400941032234785,1.483301592283464,2.243021399105626,tremor
290,4924486,2.143,-0.2443971440262489,-0.2701753537065943,0.857676701781389,0.2914412604996398,1.4731057441315711,2.280606279487968,tremor
