sample,t_ms,t_s,ax,ay,az,gx,gy,gz,tremor
0,5967640,0.0,-0.5378360872869519,0.05297669553008839,-0.8963802473131972,2.671825750299527,64.18085333925116,-12.463319791778284,tremor
1,5967645,0.005,-0.5359241678294849,0.05286177599671953,-0.8963550865607575,1.9693705525396235,62.26241796513544,-11.938400628829308,tremor
2,5967649,0.009,-0.533279523027287,0.052710791689280646,-0.8963637623861034,1.2615727725552897,60.34509624940102,-11.396270446339386,tremor
3,5967654,0.014,-0.5298391997195859,0.052526958715468745,-0.8964363680375943,0.5523987787911503,58.42916114326123,-10.838306388007421,tremor
4,5967659,0.019,-0.5256729962378909,0.05232266299720757,-0.8966051023492524,-0.153935122123188,56.5142640748084,-10.266038069004637,tremor
5,5967664,0.024,-0.5209208832042567,0.05211456164852377,-0.8968978566373378,-0.8529780793617062,54.59941844475158,-9.681147801367402,tremor
6,5967668,0.028,-0.5157347964277915,0.05191954698185391,-0.8973359810111919,-1.5400628513328398,52.682992222544954,-9.085470272544777,tremor
7,5967678,0.038,-0.5102476520508791,0.05175279792444303,-0.897934764938621,-2.210326756497233,50.762710272264975,-8.48099164121703,tremor
8,5967703,0.063,-0.5045637968593736,0.05162730901542769,-0.8987048273313892,-2.858735435353278,48.83566697003272,-7.869848002711217,tremor
9,5967708,0.068,-0.4987605477153731,0.05155410811995458,-0.899653432582448,-3.480109411614948,46.89834959308067,-7.254323167272337,tremor
10,5967713,0.073,-0.49289359535429406,0.05154266307501466,-0.9007854260562234,-4.069153413625863,44.94667285575093,-6.6368456874719435,tremor
11,5967718,0.078,-0.48700270544530466,0.051601252790220986,-0.9021038008745583,-4.6204883888630714,42.976024832869754,-6.0199850642434045,tremor
12,5967722,0.082,-0.4811164287889243,0.0517372353918842,-0.9036099986455954,-5.128686114758776,40.98132434689187,-5.406447053221294,tremor
13,5967727,0.087,-0.4752556048799363,0.051957213659795214,-0.9053040437147334,-5.58830627782545,38.95708971101188,-4.799067985328444,tremor
14,5967732,0.092,-0.46943583463697114,0.05226711911255886,-0.9071845831689438,-5.9939358601658395,36.89751852682966,-4.200808010429927,tremor
15,5967737,0.097,-0.46366918270044727,0.052672237919396084,-0.909248878889099,-6.340230638289672,34.796578038729265,-3.614743171990792,tremor
16,5967742,0.102,-0.45796534187216337,0.05317719754177633,-0.9114927794032955,-6.621958564812452,32.64810535084485,-3.044056223752501,tremor
17,5967747,0.107,-0.4523324367026756,0.05378592792858174,-0.9139106875086038,-6.834044770212805,30.445916618825954,-2.4920261053905777,tremor
18,5967751,0.111,-0.446777590945827,0.054501606891107036,-0.9164955325872871,-6.971617889758872,28.183924140814664,-1.962016002352163,tremor
19,5967756,0.116,-0.44130734288850254,0.055326596245387126,-0.9192387524869253,-7.030057389597303,25.8562600933238,-1.4574599255776288,tremor
20,5967761,0.121,-0.43592796340328555,0.056262373251886086,-0.9221302875483487,-7.005041535228574,23.457405490439577,-0.9818477595620249,tremor
21,5967766,0.126,-0.4306457115884768,0.057309460543670844,-0.9251585880929976,-6.892595614768545,20.982322790861158,-0.5387087419896145,tremor
22,5967771,0.131,-0.42546704951729303,0.058467356884713106,-0.9283106359733535,-6.689139998470468,18.426590439248155,-0.1315933547156448,tremor
23,5967776,0.136,-0.42039882885903446,0.05973447056938264,-0.9315719803889949,-6.391537585225497,15.786537509816135,0.23594637593785664,tremor
24,5967781,0.141,-0.4154484564593192,0.06110805694460601,-0.9349267879325701,-5.997140156636477,13.059376525237358,0.5603781516974667,tremor
25,5967786,0.146,-0.41062404233607697,0.06258416132943552,-0.9383579066757018,-5.503833130447666,10.243332456073274,0.8382122081295116,tremor
26,5967791,0.151,-0.4059345312655108,0.06415756847265908,-0.9418469439925115,-4.910078178629747,7.337765866751813,1.0660255908309588,tremor
27,5967796,0.156,-0.401389817737312,0.0658217595960869,-0.945374357726443,-4.214953152531415,4.343288163074028,1.2404878141602402,tremor
28,5967800,0.16,-0.3970008432504115,0.06756887799999926,-0.9489195602237475,-3.418188739489649,1.2618669121198507,1.3583877880232726,tremor
29,5967826,0.186,-0.39277967450440393,0.06938970414635323,-0.9524610346790574,-2.520201263250822,-1.9030807526948457,1.41666187004704,tremor
30,5967831,0.191,-0.38873956089084877,0.07127364107772141,-0.9559764631618758,-1.5221210354388828,-5.1466085618413215,1.4124228708651887,tremor
31,5967836,0.196,-0.38489496971939957,0.07320871097095515,-0.9594428656156107,-0.425815668168497,-8.462177206538195,1.3429898094354717,tremor
32,5967841,0.201,-0.38126159776886587,0.07518156356054673,-0.9628367490419307,0.7660922299100817,-11.841607826050005,1.2059181837667057,tremor
33,5967845,0.205,-0.3778563579918616,0.07717749709417077,-0.9661342660017255,2.0502135292078436,-15.27505448495158,0.9990304907521541,tremor
34,5967850,0.21,-0.37469734049379305,0.0791804923986934,-0.9693113814781602,3.4223877483093976,-18.75099709654283,0.7204466975998839,tremor
35,5967859,0.219,-0.3718037472311931,0.08117326053635962,-0.9723440470552813,4.877685395594863,-22.256256080988443,0.36861433717643244,tremor
36,5967864,0.224,-0.36919580021591647,0.08313730441601062,-0.9752083812665192,6.410417910748122,-25.77602984874176,-0.05766212950657908,tremor
37,5967869,0.229,-0.3668946233605614,0.08505299459207723,-0.9778808548628725,8.01415557319787,-29.293955964471984,-0.5591930693004648,tremor
38,5967874,0.234,-0.36492209845125495,0.08689965933479689,-0.9803384796448016,9.681753674316196,-32.79219656678965,-1.1363769668005248,tremor
39,5967879,0.239,-0.36330069608585636,0.0886556888897792,-0.9825589994007478,11.405387168195329,-36.25154828893939,-1.7891756939200676,tremor
40,5967884,0.244,-0.36205328277226906,0.09029865366587597,-0.9845210814042016,13.176593919961435,-39.65157654234592,-2.5170922340695245,tremor
41,5967888,0.248,-0.36120290574900304,0.0918054359000859,-0.9862045068442751,14.986326558553774,-42.97077358779507,-3.3191513605197045,tremor
42,5967903,0.263,-0.3607725574740981,0.09315237414982033,-0.9875903585035177,16.82501280990276,-46.186739331001824,-4.193883785721129,tremor
43,5967908,0.268,-0.36078492213075286,0.09431541975899403,-0.988661203949794,18.68262403405187,-49.276383249518794,-5.139314305030616,tremor
44,5967913,0.273,-0.36126210691230665,0.09527030423778392,-0.9894012724697017,20.548751516747615,-52.21614530242438,-6.152954450804388,tremor
45,5967918,0.278,-0.36222536125890165,0.09599271628947437,-0.9897966239263907,22.41268987864748,-54.98223311365652,-7.231800147467796,tremor
46,5967922,0.282,-0.36369478759831547,0.09645848701480329,-0.9898353076589002,24.26352677295168,-57.550872176673536,-8.372334813435957,tremor
47,5967948,0.308,-0.36568904746609115,0.09664378162836681,-0.9895075094412008,26.09023785258177,-59.89856532965713,-9.570538292948905,tremor
48,5967958,0.318,-0.3682250671132276,0.09652529583917561,-0.9888056843872951,27.88178580846903,-62.00235734934926,-10.82190192027787,tremor
49,5967963,0.323,-0.37131774680711066,0.09608045489103957,-0.9877246735472901,29.627222127326917,-63.84010031335334,-12.121449914541262,tremor
50,5967977,0.337,-0.37497967792882425,0.09528761314822692,-0.9862618018407718,31.3157901177128,-65.39071552170465,-13.463767165975916,tremor
51,5967982,0.342,-0.3792208716078951,0.09412625206837386,-0.9844169549869862,32.937027731850506,-66.63444831861263,-14.843033301738163,tremor
52,5967987,0.347,-0.3840485019973133,0.09257717443790536,-0.9821926332715163,34.48086877500755,-67.55311303893356,-16.253062724147366,tremor
53,5967997,0.357,-0.3894666664232944,0.09062269285015434,-0.9795939803541772,35.93774123514208,-68.13032633509638,-17.68735011948139,tremor
54,5968007,0.367,-0.3954761636460234,0.08824681056680184,-0.9766287858514234,37.29866166467334,-68.35172811499719,-19.139120761698944,tremor
55,5968011,0.371,-0.40207429048606946,0.08543539309709591,-0.9733074610703798,38.55532477635316,-68.20519006109902,-20.60138479655321,tremor
56,5968016,0.376,-0.4092546563036476,0.08217632903036165,-0.9696429879700986,39.7001876392869,-67.68101204941095,-22.066994597930453,tremor
57,5968021,0.381,-0.4170070144981124,0.07845967883751889,-0.9656508421214142,40.726548038583,-66.77210662921027,-23.528704249523127,tremor
58,5968030,0.39,-0.4253171105370776,0.07427781049110302,-0.9613488910891312,41.628616658841246,-65.47417102680876,-24.979230225892174,tremor
59,5968072,0.432,-0.43416654716088976,0.06962552081927628,-0.9567572702461005,42.40158274394895,-63.785844954353614,-26.41131242350568,tremor
60,5968086,0.446,-0.4435326693403697,0.06450014148577633,-0.9518982385182774,43.041672756560246,-61.70885097041461,-27.817774811343433,tremor
61,5968091,0.451,-0.45338847407908067,0.058901628351575405,-0.9467960168768373,43.54620130829358,-59.248112504990964,-29.19158510813526,tremor
62,5968096,0.456,-0.46370255273625716,0.05283263271935235,-0.9414766124117253,43.913613297628075,-56.41184332773743,-30.525913015739135,tremor
63,5968100,0.46,-0.4744390755086786,0.04629855262845785,-0.9359676304413487,44.143515872255875,-53.21160161101139,-31.81418661792986,tremor
64,5968105,0.465,-0.48555782848261136,0.039307562043619904,-0.9302980763602374,44.236698632195804,-49.66230199383371,-33.05014658510489,tremor
65,5968110,0.47,-0.4970143130429367,0.03187061556844202,-0.9244981479609822,44.19514046872473,-45.782180080269555,-34.22789781886769,tremor
66,5968115,0.475,-0.5087599155161634,0.024001426300877746,-0.9185990180097623,44.022001597474464,-41.592705388456814,-35.34195813709935,tremor
67,5968125,0.485,-0.520742151978465,0.015716414691384076,-0.9126326061140321,43.72159967258476,-37.118440737726935,-36.38730354614163,tremor
68,5968129,0.489,-0.5329049894561614,0.00703462679798827,-0.9066313385626936,43.29936933741832,-32.386848319484876,-37.35940957938855,tremor
69,5968157,0.517,-0.5451892405681836,-0.0020223788400783324,-0.9006278949612918,42.761805145206615,-27.42804515271385,-38.254288113640335,tremor
70,5968162,0.522,-0.5575330243325619,-0.01143067540291302,-0.8946549411766831,42.116388429163585,-22.274513130056626,-39.06851902218652,tremor
71,5968166,0.526,-0.5698722817943069,-0.02116414151059635,-0.8887448492858185,41.371499361535086,-16.96077114135594,-39.799276001457386,tremor
72,5968195,0.555,-0.5821413318206868,-0.031194661666457443,-0.8829294067015885,40.53631605173628,-11.52301845021068,-40.44434592723878,tremor
73,5968200,0.56,-0.5942734503092697,-0.0414923495731086,-0.8772395181641198,39.620703035367406,-5.998759311630211,-41.002141166807846,tremor
74,5968209,0.569,-0.6062014554721634,-0.05202578975336317,-0.8717049056048136,38.63509184299089,-0.4264186864034174,-41.471704405587715,tremor
75,5968214,0.574,-0.6178582829250477,-0.06276229258765209,-0.8663538118610539,37.59035645995821,5.155042067763326,-41.852705746534404,tremor
76,5968219,0.579,-0.6291775369541769,-0.07366815794106028,-0.861212714770134,36.4976863767933,10.706502268467384,-42.14543209765064,tremor
77,5968268,0.628,-0.6400940082404138,-0.08470894291656957,-0.8563060582873764,35.368459617079566,16.1890464692723,-42.350769150407444,tremor
78,5968273,0.633,-0.6505441528857306,-0.0958497298199569,-0.8516560069639894,34.21411769166741,21.564313230732534,-42.47017653011293,tremor
79,5968278,0.638,-0.6604665319370913,-0.10705539103666381,-0.8472822293754966,33.046043966365126,26.79482639613489,-42.50565692051013,tremor
80,5968321,0.681,-0.6698022137041136,-0.11829084809685853,-0.843201714891247,31.87544656356791,31.84430785687437,-42.45972008283328,tremor
81,5968331,0.691,-0.6784951422321245,-0.12952132265538358,-0.8394286265793236,30.713246739947078,36.67797041339216,-42.33534268738811,tremor
82,5968336,0.696,-0.6864924742607041,-0.14071257738049425,-0.8359741912910419,29.56997370950615,41.262788251308635,-42.135924785081244,tremor
83,5968341,0.701,-0.693744884625236,-0.15183114481878485,-0.8328466264547046,28.45566704833607,45.567741513732564,-41.86524362909654,tremor
84,5968350,0.71,-0.7002068374887832,-0.16284454223120037,-0.830051102167624,27.379788009619254,49.5640311000185,-41.527405468262685,tremor
85,5968360,0.72,-0.705836819013892,-0.1737214702697004,-0.827589736910175,26.35114117635981,53.2252603473794,-41.12679589903362,tremor
86,5968364,0.724,-0.710597526681063,-0.1844319932947596,-0.8254616254767548,25.377807805507622,56.52758147347998,-40.668029377400465,tremor
87,5968374,0.734,-0.7144560116493868,-0.19494769921939087,-0.8236628982730388,24.46709195017801,59.449806281461306,-40.15589853343451,tremor
88,5968393,0.753,-0.7173837732727348,-0.20524183707804747,-0.8221868117074586,23.625480011289486,61.97348239335347,-39.59532397484229,tremor
89,5968398,0.758,-0.7193568087646744,-0.21528943108666493,-0.8210238697760726,22.858613809557085,64.08293797241954,-38.991305289987324,tremor
90,5968403,0.763,-0.7203556253279955,-0.22506737075405386,-0.8201619768963916,22.17127663392024,65.76529933706698,-38.34887394831874,tremor
91,5968408,0.768,-0.720365225880382,-0.2345544775454042,-0.8195866214118424,21.5673910764034,67.01048689774518,-37.673048743330035,tremor
92,5968440,0.8,-0.719375081955693,-0.2437315495820548,-0.819281087876296,21.050026883124865,67.81119534842898,-36.96879434519184,tremor
93,5968449,0.809,-0.7173791079658144,-0.25258138678010267,-0.819226694321782,20.621416618261744,68.16286395386443,-36.24098344760455,tremor
94,5968454,0.814,-0.7143756497264377,-0.261088799568252,-0.8194030485283378,20.282976733618348,68.06364204072136,-35.49436290919661,tremor
95,5968459,0.819,-0.7103674972278089,-0.26924060475809736,-0.8197883153595732,20.035331725444816,67.51435339861482,-34.73352418782588,tremor
96,5968464,0.824,-0.7053619274872251,-0.2770256121747706,-0.8203594860102009,19.87833944407627,66.51846135729483,-33.96287823422207,tremor
97,5968473,0.833,-0.6993707784743948,-0.2844346052857514,-0.8210926398131523,19.811116218956773,65.08203417477115,-33.18663485470536,tremor
98,5968478,0.838,-0.6924105500902218,-0.2914603183757593,-0.8219631900487984,19.832061150759102,63.2137084562928,-32.40878638449788,tremor
99,5968482,0.842,-0.6845025234874786,-0.29809741193822464,-0.8229461067659389,19.93887959629478,60.924646920000946,-31.633095349148817,tremor
100,5968487,0.847,-0.6756728860634252,-0.3043424470228611,-0.8240161116901988,20.128606448447773,58.22848606816692,-30.86308565620467,tremor
101,5968492,0.852,-0.6659528465683049,-0.31019385840659,-0.8251478426085219,20.397630234640943,55.14126922090817,-30.1020367806798,tremor
102,5968497,0.857,-0.6553787231923529,-0.31565192572230055,-0.8263159869681074,20.74171929877224,51.681360839149406,-29.352980399971976,tremor
103,5968507,0.867,-0.643991987334515,-0.3207187411366745,-0.8274953866456719,21.1560514011762,47.86933898532125,-28.618698987701432,tremor
104,5968512,0.872,-0.631839247043962,-0.3253981718430247,-0.8286611177902683,21.635247993619608,43.72786402082598,-27.90172596877812,tremor
105,5968516,0.876,-0.6189721568131213,-0.3296958155443799,-0.8297885511957367,22.173414225579645,39.28152308357088,-27.204347145691067,tremor
106,5968526,0.886,-0.6054472443511553,-0.3336189472518364,-0.8308533997025355,22.764185430228057,34.55665137773496,-26.528603208103366,tremor
107,5968531,0.891,-0.5913256499102943,-0.33717645610081526,-0.8318317595795989,23.400780436535285,29.581132712248635,-25.87629321659662,tremor
108,5968535,0.895,-0.576672779244804,-0.34037877145449424,-0.8327001526673453,24.076061574203095,24.38418296296932,-25.248978991665894,tremor
109,5968562,0.922,-0.5615578767958833,-0.3432377782579549,-0.8334355753014039,24.78260070498228,18.996121160476658,-24.64799033391038,tremor
110,5968567,0.927,-0.5460535306079946,-0.34576672235281186,-0.8340155587545824,25.51275007121793,13.448133670768874,-24.074430962367856,tremor
111,5968572,0.932,-0.5302351242030292,-0.34798010717120864,-0.8344182442480924,26.258716279795014,7.77203734998664,-23.52918501787778,tremor
112,5968577,0.937,-0.5141802526774293,-0.34989358380066266,-0.8346224736570919,27.012635436123002,2.000047506812472,-23.012923972974598,tremor
113,5968582,0.942,-0.4979681204172194,-0.35152383676182786,-0.8346078950644786,27.76664736890683,-3.8354440438287654,-22.526113828617632,tremor
114,5968592,0.952,-0.4816789362229522,-0.35288846792976963,-0.8343550804866876,28.512967026257428,-9.702076525025426,-22.069022536956055,tremor
115,5968597,0.957,-0.4653933188040984,-0.3540058808665162,-0.8338456515642176,29.24395141311093,-15.567710289181663,-21.641727635549223,tremor
116,5968602,0.962,-0.44919172213824027,-0.35489516745879224,-0.8330624079162084,29.952160816314713,-21.40059784992528,-21.244124097244953,tremor
117,5968617,0.977,-0.43315388660642556,-0.3555759982209503,-0.8319894523256259,30.630413483128656,-27.16953581047974,-20.87593239660019,tremor
118,5968622,0.982,-0.41735831847675087,-0.3560685169874463,-0.830612307029067,31.27183335120809,-32.84399922737723,-20.536706780270002,tremor
119,5968627,0.987,-0.40188179743996577,-0.35639324005079737,-0.8289180161322289,31.86989085442915,-38.39426137463719,-20.22584371365999,tremor
120,5968642,1.002,-0.3867989096389462,-0.35657095917741155,-0.8268952304738975,32.418437236891805,-43.7915029125686,-19.94259046310432,tremor
121,5968646,1.006,-0.3721816020849428,-0.3566226474274853,-0.8245342729734544,32.911733177834684,-49.0079149260541,-19.6860537654163,tremor
122,5968656,1.016,-0.3580987536460339,-0.3565693663672736,-0.8218271844346166,33.34447282389591,-54.01680008823215,-19.45520854283646,tremor
123,5968684,1.044,-0.3446157580869291,-0.35643217311600167,-0.8187677517254478,33.71180448961356,-58.79267533211591,-19.2489066507545,tremor
124,5968689,1.049,-0.33179411605027365,-0.35623202571589024,-0.8153515219789705,34.009349280717856,-63.31137799680341,-19.065885694815258,tremor
125,5968694,1.054,-0.3196910353204415,-0.35598968553435073,-0.8115758077319165,34.233218704333595,-67.55017573580686,-18.904777994164235,tremor
126,5968699,1.059,-0.3083590418320398,-0.3557256157700307,-0.8074396885542187,34.38003197424447,-71.48787889872897,-18.76411975753651,tremor
127,5968704,1.064,-0.2978456071009005,-0.35545987559759024,-0.8029440146309217,34.44693325181016,-75.10495289917414,-18.64236046307487,tremor
128,5968708,1.068,-0.2881928005008391,-0.35521201000574837,-0.7980914169898647,34.43160856721246,-78.38362734494504,-18.537872321157508,tremor
129,5968713,1.073,-0.27943697669413614,-0.3550009359176539,-0.792886327774828,34.33230172576658,-81.30799838276647,-18.448959604156787,tremor
130,5968718,1.078,-0.27160850934977543,-0.3548448256951223,-0.7873350123283516,34.14782817703992,-83.86412071986305,-18.373867584130373,tremor
131,5968723,1.083,-0.2647315819989687,-0.3547609895859487,-0.7814456130415196,33.87758563309079,-86.04008605791056,-18.310790834729513,tremor
132,5968728,1.088,-0.25882404554073324,-0.3547657590459522,-0.775228203101041,33.52156016387044,-87.82608514924294,-18.25788071082698,tremor
133,5968733,1.093,-0.2538973496712167,-0.35487437312675707,-0.7686948465527917,33.080326559817024,-89.21445130982036,-18.21325189309306,tremor
134,5968738,1.098,-0.24995655259148128,-0.35510087024497333,-0.7618596596240301,32.55504192086115,-90.19968396036704,-18.17498795050603,tremor
135,5968742,1.102,-0.2470004100171508,-0.35545798762796305,-0.7547388671020181,31.94743169323021,-90.7784515896059,-18.141145916367037,tremor
136,5968747,1.107,-0.24502154104829132,-0.3559570705682844,-0.7473508468326844,31.259767707489345,-90.94957442291724,-18.109759892200376,tremor
137,5968752,1.112,-0.24400666511597946,-0.35660799332692056,-0.7397161551362261,30.49483813945461,-90.71398801554977,-18.078843701947445,tremor
138,5968757,1.117,-0.2439369012161262,-0.35741909312694053,-0.7318575261716844,29.655909684894112,-90.07468993518562,-18.046392634107097,tremor
139,5968762,1.122,-0.24478811813305731,-0.35839711820375203,-0.723799839030496,28.746682586132234,-89.03667259489075,-18.01038434328972,tremor
140,5968767,1.127,-0.24653132246065348,-0.35954719036073735,-0.7155700475855451,27.771239468686808,-87.60684606894169,-17.96877903382707,tremor
141,5968772,1.132,-0.24913307002318977,-0.3608727819581087,-0.7071970698244164,26.73398924769193,-85.79395528998728,-17.919519106800582,tremor
142,5968781,1.141,-0.2525558858177406,-0.3623757067751112,-0.6987116354806605,25.639607659922792,-83.60849630342598,-17.860528507403238,tremor
143,5968808,1.168,-0.2567586778527062,-0.3640561237626115,-0.6901460931424649,24.492976269838984,-81.06263615355988,-17.789712054667802,tremor
144,5968813,1.173,-0.2616971312671526,-0.36591255237200715,-0.6815341805138393,23.299122055066203,-78.17014039809541,-17.7049550683279,tremor
145,5968823,1.183,-0.2673240709793931,-0.36794189793618803,-0.6729107638913114,22.063159816491556,-74.9463111219816,-17.604123631344304,tremor
146,5968828,1.188,-0.27358978396628364,-0.37013948551787196,-0.6643115548758998,20.79023958207138,-71.40793669371652,-17.485065842636494,tremor
147,5968833,1.193,-0.28044229613511884,-0.3724991007450694,-0.6557728135615735,19.485500839669854,-67.57325260839073,-17.345614410027636,tremor
148,5968837,1.197,-0.28782760337487645,-0.37501303641096273,-0.6473310477788558,18.154034892610053,-63.461910937514325,-17.183590884012517,tremor
149,5968842,1.202,-0.2956898612912014,-0.37767214399120524,-0.6390227174707559,16.800855980050553,-59.09495443346962,-16.99681172336459,tremor
150,5968852,1.212,-0.3039715427971591,-0.3804658896819451,-0.6308839521074715,15.430881129716527,-54.494790320924395,-16.78309622312144,tremor
151,5968857,1.217,-0.3126135766453711,-0.3833824150439513,-0.6229502874172261,14.048918074757387,-49.68515823720176,-16.54027615455952,tremor
152,5968862,1.222,-0.32155548270260953,-0.38640860281004547,-0.6152564258316499,12.65966002048852,-44.69108663056703,-16.26620680499751,tremor
153,5968867,1.227,-0.3307355209330825,-0.3895301488318044,-0.6078360231039821,11.267685634606426,-39.538832175225146,-15.958778999420543,tremor
154,5968871,1.231,-0.34009087049933906,-0.3927316414667395,-0.6007215017123468,9.877462382643488,-34.25579738898466,-15.615931656510453,tremor
155,5968881,1.241,-0.34955785318214516,-0.3959966499060506,-0.5939438900194703,8.493351242038544,-28.870422590897395,-15.235664474490987,tremor
156,5968886,1.246,-0.3590722117506458,-0.39930782299136075,-0.5875326847950477,7.119610891660305,-23.412049542706963,-14.816050432639926,tremor
157,5968891,1.251,-0.3685694494050084,-0.40264699994759445,-0.5815157336656358,5.760399672094562,-17.91075551596532,-14.355247900220924,tremor
158,5968896,1.256,-0.3779852314497437,-0.4059953341548259,-0.5759191333785574,4.419773922379628,-12.397158068951638,-13.851512239555364,tremor
159,5968901,1.261,-0.387255845404347,-0.4093334305940255,-0.5707671394759936,3.1016816886799945,-6.902192469841219,-13.303206862581304,tremor
160,5968906,1.266,-0.3963187111894369,-0.4126414969507068,-0.5660820830723595,1.8099512328099316,-1.4568654319181222,-12.708813754778614,tremor
161,5968934,1.294,-0.4051129290816802,-0.4158995075879723,-0.56188429088548,0.548274212489902,3.908009419319232,-12.066943528127203,tremor
162,5968939,1.299,-0.4135798499572446,-0.41908737876714697,-0.5581920054463578,-0.6798161599216483,9.162087270099486,-11.376345112903785,tremor
163,5968949,1.309,-0.4216636500688965,-0.4221851526855697,-0.5550213034433891,-1.8709712639521179,14.275770648653133,-10.635915242767044,tremor
164,5968954,1.314,-0.42931189137075004,-0.4251731872230618,-0.5523860113603613,-3.02205644432413,19.220481758063833,-9.844707917665636,tremor
165,5968959,1.319,-0.43647604833719217,-0.4280323478326419,-0.5502976188368274,-4.130182249369211,23.968919900185767,-9.001944039398948,tremor
166,5968963,1.323,-0.4431119833426892,-0.43074419781205014,-0.5487651914047432,-5.19273600275252,28.49529642685149,-8.10702141283855,tremor
167,5968969,1.329,-0.44918035488947783,-0.43329118322309507,-0.5477952853467285,-6.207412140872892,32.77554139063558,-7.159525301652715,tremor
168,5968973,1.333,-0.45464694613427764,-0.43565680892681413,-0.5473918683177886,-7.1722398424214875,36.7874780949623,-6.159239718053056,tremor
169,5968979,1.339,-0.45948290508864087,-0.4378258025145286,-0.5475562500330243,-8.085606673789716,40.510963834231305,-5.106159597498047,tremor
170,5968983,1.343,-0.4636648923473897,-0.43978426329093523,-0.5482870277160882,-8.94627724187533,43.92799710867782,-4.0005039497029555,tremor
171,5968998,1.358,-0.4671751370041368,-0.4415197938725731,-0.5495800510998011,-9.753406161709497,47.02279337495593,-2.8427299861753004,tremor
172,5969002,1.362,-0.47000140625593306,-0.44302161238471777,-0.5514284115546466,-10.5065449990925,49.781832845677656,-1.633548109346307,tremor
173,5969007,1.367,-0.47213689870414505,-0.4442806436672739,-0.5538224593883604,-11.205643227952411,52.193884880605765,-0.37393751717495255,tremor
174,5969012,1.372,-0.47358007506740785,-0.4452895883419866,-0.5567498525193021,-11.851043627467222,54.25001405315802,0.9348379620726249,tremor
175,5969017,1.377,-0.47433444250023227,-0.446042969059564,-0.560195638607071,-12.44347290139347,55.94357303553632,2.2912143216363074,tremor
176,5969022,1.382,-0.4744083096832198,-0.44653715374100483,-0.5641423713820491,-12.984028594420785,57.2701871033721,3.693312729630745,tremor
177,5969027,1.387,-0.47381452925087963,-0.44677035614651434,-0.5685702604265456,-13.474163579202889,58.22773441311865,5.138926438829625,tremor
178,5969053,1.413,-0.47257024205106507,-0.44674261462989256,-0.57345735210338,-13.915669478543304,58.81632531850355,6.625509878875552,tremor
179,5969058,1.418,-0.47069663442747106,-0.44645575043350044,-0.5787797377869563,-14.31066036547315,59.03828290218116,8.1501704703624,tremor
180,5969063,1.423,-0.4682187155854601,-0.44591330729486106,-0.5845117841379357,-14.661557947017949,58.89812564292711,9.70966358548302,tremor
181,5969068,1.428,-0.46516511768546426,-0.4451204744009555,-0.5906263790226428,-14.971079186188911,58.40255178690556,11.30039097065847,tremor
182,5969073,1.433,-0.46156791715935,-0.4440839947864891,-0.5970951859547019,-15.242226967954553,57.56042365568905,12.918402860921562,tremor
183,5969078,1.438,-0.45746247225117814,-0.4428120611248599,-0.6038888997052602,-15.478284004423129,56.382748940345216,14.559403950945224,tremor
184,5969082,1.442,-0.4528872691123847,-0.4413142005545832,-0.6109774959844961,-15.682809741907187,54.88265512792344,16.218763334633945,tremor
185,5969087,1.447,-0.44788376695834764,-0.4396011497920911,-0.6183304687903478,-15.859639610191282,53.07535267731811,17.891528482430243,tremor
186,5969092,1.452,-0.44249623179778097,-0.437684721372898,-0.6259170500891444,-16.012885573023727,50.97808244864367,19.57244329298487,tremor
187,5969097,1.457,-0.43677154805304746,-0.43557766149205296,-0.6337064078730092,-16.146936634211013,48.6100431768964,21.255970225934124,tremor
188,5969106,1.466,-0.43075899797472317,-0.4332934996221147,-0.6416678202567249,-16.26645775729754,45.99229539865955,22.93631648400304,tremor
189,5969111,1.471,-0.42451000009360246,-0.4308463899008622,-0.6497708250379837,-16.37638558392408,43.1476391025042,24.60746416322204,tremor
190,5969116,1.476,-0.41807780001731915,-0.4282509442206898,-0.6579853459265267,-16.481919384462095,40.10046340156949,26.26320424079515,tremor
191,5969130,1.49,-0.4115171096109553,-0.4255220570289142,-0.6662817983025487,-16.58850583079374,36.87656765466177,27.89717423551929,tremor
192,5969135,1.495,-0.4048836938793785,-0.42267472206630113,-0.6746311787413719,-16.701816422973682,33.502954624156,29.50289935758423,tremor
193,5969140,1.5,-0.39823390846123524,-0.41972384162373555,-0.6830051435031532,-16.827716700681314,30.00759738849657,31.07383694684884,tremor
194,5969145,1.505,-0.391624194213558,-0.41668402937069215,-0.6913760816267364,-16.972226700629435,26.419182777093614,32.603423958453554,tremor
195,5969150,1.51,-0.3851105385559953,-0.41356940838642087,-0.6997171881335541,-17.14147246883545,22.7668350609711,34.08512718013462,tremor
196,5969176,1.536,-0.37874791578648836,-0.41039340668295693,-0.7080025421663502,-17.341628803776803,19.079824545800985,35.51249576206746,tremor
197,5969181,1.541,-0.3725897203328629,-0.4071685532140185,-0.71620719375658,-17.578853800580422,15.38726659826859,36.87921552051,tremor
198,5969191,1.551,-0.36668720781998837,-0.4039062780592489,-0.7243072614752016,-17.8592161851565,11.717817449130886,38.179164350988586,tremor
199,5969196,1.556,-0.36108895893299264,-0.4006167210787374,-0.7322800416301726,-18.188616848701194,8.099373739096587,39.406467962151034,tremor
200,5969200,1.56,-0.35584038043820876,-0.39730855376388957,-0.7401041280776977,-18.572706378609347,4.558783077848599,40.5555550296383,tremor
201,5969205,1.565,-0.35098325653606305,-0.3939888192080673,-0.7477595402350515,-19.016800687762633,1.1215728070284974,41.6212107906583,tremor
202,5969210,1.57,-0.3465553621219768,-0.39066279506059026,-0.7552278556127128,-19.525797035141725,-2.1882962913648747,42.59862807323283,tremor
203,5969215,1.575,-0.3425901476400467,-0.3873338840134191,-0.7624923421888093,-20.104092788909583,-5.348645363533509,43.483454783768316,tremor
204,5969225,1.585,-0.33911650309392816,-0.38400353581748087,-0.7695380852744711,-20.75550920856676,-8.339256972777411,44.27183695119498,tremor
205,5969230,1.59,-0.33615860645670176,-0.38067120405975335,-0.7763521031952326,-21.48322232864979,-11.14201498664784,44.96045652803261,tremor
206,5969235,1.595,-0.333735859209262,-0.37733433998483207,-0.782923446165668,-22.289702734307877,-13.741002549747423,45.54656326585491,tremor
207,5969245,1.605,-0.3318629090540273,-0.3739884245563074,-0.7892432731794125,-23.176665656108685,-16.122557362989053,46.02800011118263,tremor
208,5969249,1.609,-0.33054975704219425,-0.37062703877627917,-0.7953049025672796,-24.145032408085815,-18.275285076886096,46.40322171002498,tremor
209,5969254,1.614,-0.3298019435042961,-0.3672419710817431,-0.801103833038651,-25.194903779062464,-20.19003316572302,46.6713057672379,tremor
210,5969264,1.624,-0.32962080441259856,-0.36382335948896677,-0.8066377334130294,-26.3255455851344,-21.85982910641318,46.83195717968272,tremor
211,5969269,1.629,-0.3300037872787801,-0.3603598651326725,-0.81190640073759,-27.535386211612856,-23.27978797843487,46.88550504591761,tremor
212,5969274,1.634,-0.33094481355099237,-0.3568388730032726,-0.8169116879353392,-28.822025616713944,-24.446995670764515,46.8328928430583,tremor
213,5969300,1.66,-0.33243467286184364,-0.35324671506168304,-0.821657403411698,-30.182254935388478,-25.36037466310824,46.67566224364929,tremor
214,5969305,1.665,-0.3344614335245939,-0.34956891052554595,-0.8261491860682917,-31.612085516132634,-26.02053976868219,46.41593120816496,tremor
215,5969309,1.669,-0.33701085350239096,-0.3457904179660408,-0.8303943598813952,-33.10678597024334,-26.429651194820245,46.0563671134615,tremor
216,5969314,1.674,-0.34006677678649594,-0.3418958938988852,-0.8344017726041173,-34.660925650510954,-26.59127170562447,45.60015574453586,tremor
217,5969319,1.679,-0.3436115017451857,-0.33786995274921067,-0.838181623297151,-36.26842293592523,-26.510233544558,45.050966977072385,tremor
218,5969338,1.698,-0.34762611045719805,-0.3336974233698779,-0.841745283354046,-37.9225967851495,-26.19251921750942,44.412917919167946,tremor
219,5969343,1.703,-0.35209075112057675,-0.32936359766107903,-0.8451051155207159,-39.616220219643616,-25.645158460793187,43.69053417907349,tremor
220,5969348,1.708,-0.35698486905552185,-0.32485446725927847,-0.8482742951302221,-41.34157469066338,-24.876141942042455,42.8887097965386,tremor
221,5969353,1.713,-0.36228738528865906,-0.32015694473618134,-0.8512666373517341,-43.090504655138716,-23.894350650518707,42.01266623090154,tremor
222,5969358,1.718,-0.36797682491791983,-0.31525906628105677,-0.8540964336404998,-44.85447210406851,-22.709498655612354,41.06791065534531,tremor
223,5969363,1.723,-0.37403140018313685,-0.310150173434629,-0.8567782997548044,-46.62461120767432,-21.332086004389236,40.06019368375896,tremor
224,5969368,1.728,-0.38042905526828213,-0.30482107209013576,-0.8593270367052495,-48.39178360811545,-19.773358003942167,38.99546657363285,tremor
225,5969377,1.737,-0.38714748125920356,-0.29926416765489755,-0.8617575048914937,-50.14663514794634,-18.045267000915725,37.87983791892154,tremor
226,5969382,1.742,-0.39416411032146914,-0.29347357593865325,-0.8640845105643703,-51.87965492672092,-16.160433030820904,36.7195298763332,tremor
227,5969387,1.747,-0.4014560979953867,-0.28744520995219425,-0.8663227027592959,-53.58123750259285,-14.132100337184031,35.520834053785194,tremor
228,5969392,1.752,-0.4090003014884306,-0.281176843298709,-0.8684864781273459,-55.241748793909174,-11.97408769488388,34.29006731942079,tremor
229,5969397,1.757,-0.4167732599850784,-0.27466815116091653,-0.8705898907682494,-56.85159580449031,-9.70073162087633,33.03352794729274,tremor
230,5969424,1.784,-0.4247511803884072,-0.26792072998994504,-0.8726465643095876,-58.40129973823841,-7.326822791755492,31.757452683272813,tremor
231,5969439,1.799,-0.43290992879305573,-0.2609380968785552,-0.8746696040651797,-59.88157145674695,-4.867537138208917,30.467975465912136,tremor
232,5969444,1.804,-0.4412250248074327,-0.25372566928622087,-0.8766715080438144,-61.28338768026734,-2.338363925805564,29.171088627656093,tremor
233,5969449,1.809,-0.44967163325364956,-0.2462907253685943,-0.8786640766861673,-62.59806597372033,0.24496655550994909,27.872607382450987,tremor
234,5969453,1.813,-0.4582245464572577,-0.23864234478876933,-0.8806583222676155,-63.8173364840951,2.866553348081557,26.578138263643734,tremor
235,5969458,1.818,-0.46685815066594455,-0.23079132968936883,-0.8826643797528886,-64.93340858241967,5.5103915997022135,25.293051955472055,tremor
236,5969463,1.823,-0.4755463720070444,-0.222750105559097,-0.8846914214626335,-65.9390309105264,8.160435026800158,24.022460727992513,tremor
237,5969468,1.828,-0.4842626003733137,-0.21453260203544444,-0.8867475782308546,-66.82754374072898,10.80065424149858,22.7712004795479,tremor
238,5969473,1.833,-0.4929795931806256,-0.20615411419806262,-0.8888398698417793,-67.59292297104683,13.415091923243978,21.543817220036768,tremor
239,5969482,1.842,-0.5016693645774344,-0.19763114555928452,-0.8909741474727041,-68.22981547817261,15.98791649297173,20.34455768415549,tremor
240,5969488,1.848,-0.510303068987746,-0.18898123468217654,-0.8931550506554234,-68.7335659244657,18.50347647517124,19.17736363848756,tremor
241,5969493,1.853,-0.5188508904869108,-0.1802227680856828,-0.8953859809055378,-69.10023545519722,20.946358089820357,18.04586933813551,tremor
242,5969497,1.857,-0.5272819511572895,-0.171374782764806,-0.8976690936482837,-69.32661301913683,23.30144877420302,16.953401501443796,tremor
243,5969502,1.862,-0.5355642520639691,-0.16245676220304178,-0.9000053093865281,-69.4102202910754,25.55400926640744,15.902981110901065,tremor
244,5969507,1.867,-0.5436646597930591,-0.15348843014561775,-0.9023943442249323,-69.34931136322021,27.68975657170717,14.897326319280053,tremor
245,5969512,1.872,-0.5515489497169405,-0.14448954662090419,-0.9048347589237048,-69.14286849890699,29.694959573190744,13.938855746741691,tremor
246,5969522,1.882,-0.5591819144874436,-0.13547971074630022,-0.907324024668092,-68.79059529781206,31.556548229384944,13.02969150247198,tremor
247,5969548,1.908,-0.5665275429239337,-0.12647817474142392,-0.909858602787757,-68.29290858703278,33.2622362133619,12.171661360716405,tremor
248,5969558,1.918,-0.5735492706689251,-0.11750367329514501,-0.9124340348526961,-67.65093019495916,34.80065550873252,11.366299673534277,tremor
249,5969563,1.923,-0.5802102999537873,-0.10857427197685246,-0.9150450390483069,-66.86647945656708,36.16149999101811,10.614846813776474,tremor
250,5969567,1.927,-0.5864739818132214,-0.09970723772084178,-0.9176856086225669,-65.94206685037834,37.33567360220056,9.918247197934383,tremor
251,5969572,1.932,-0.5923042503904933,-0.09091893354162209,-0.9203491085523797,-64.8808886489867,38.315437628104675,9.27714620282914,tremor
252,5969577,1.937,-0.5976660958305601,-0.08222473860026755,-0.9230283673212665,-63.6868219768981,39.094550979966414,8.691886514870871,tremor
253,5969582,1.942,-0.602526059837975,-0.07363899362279758,-0.925715761679546,-62.36441928736813,39.66839728264667,8.162504600505368,tremor
254,5969586,1.946,-0.6068527363984233,-0.06517497057182271,-0.9284032933035521,-60.918901022784624,40.03409291428049,7.688728049970444,tremor
255,5969591,1.951,-0.6106172595260059,-0.05684486448684357,-0.9310826572534071,-59.35614510905507,40.1905708473492,7.26997453005383,tremor
256,5969596,1.956,-0.6137937602917252,-0.04865980461308011,-0.9337453029704321,-57.682671941785536,40.13863614005181,6.905353000192766,tremor
257,5969601,1.961,-0.6163597768600622,-0.04062988138524031,-0.9363824892180868,-55.90562363768886,39.88099014871332,6.593667718274247,tremor
258,5969606,1.966,-0.6182966037791942,-0.032764185546634725,-0.9389853348447816,-54.032736535306775,39.42222190281159,6.333425406035314,tremor
259,5969620,1.98,-0.6195895702124787,-0.02507085566819605,-0.941544867537732,-52.072306220447594,38.76876653112076,6.122845774042114,tremor
260,5969625,1.985,-0.6202282409476374,-0.01755713057010702,-0.9440520728502939,-50.0331447060752,37.92883207314566,5.959875433609783,tremor
261,5969630,1.99,-0.620206538554843,-0.010229403606997128,-0.9464979457149559,-47.92452979042667,36.912297360142844,5.842205055314474,tremor
262,5969635,1.995,-0.6195227895636846,-0.003093276405174117,-0.9488735463770193,-45.756147023860834,35.73058480008059,5.76728947642556,tremor
263,5969640,2.0,-0.6181797015364909,0.0038463896253353577,-0.9511700621727548,-43.53802511106588,34.396512772957735,5.732370315752179,tremor
264,5969645,2.005,-0.6161842810551167,0.010585424903236738,-0.9533788758220162,-41.28046594699623,32.92413291256542,5.734500525555665,tremor
265,5969671,2.031,-0.6135477046848729,0.017120306546550113,-0.9554916399333694,-38.99397082253086,31.328557823817047,5.770570200410172,tremor
266,5969676,2.036,-0.6102851558502417,0.0234481159373275,-0.9575003563005373,-36.68916461304304,29.625784740467093,5.837332886064587,tremor
267,5969681,2.041,-0.6064156402552479,0.02956649786360422,-0.9593974574467631,-34.37671991485467,27.832520186933337,5.931431615904157,tremor
268,5969690,2.05,-0.6019617910565057,0.035473619815764364,-0.9611758869701775,-32.067283033582704,25.9660097801282,6.049423981483911,tremor
269,5969705,2.065,-0.5969496725628337,0.041168130045032704,-0.9628291747850881,-29.77140341119375,24.043875904848452,6.1878057289244826,tremor
270,5969714,2.074,-0.591408588008764,0.04664911338334201,-0.9643515034665906,-27.49946755266775,22.083964298980813,6.343032641213737,tremor
271,5969720,2.08,-0.5853708932541771,0.05191604452068726,-0.9657377625665612,-25.26163788884148,20.104198890811677,6.511540770072743,tremor
272,5969729,2.089,-0.5788718144954542,0.05696873932309671,-0.9669835888364058,-23.067796404174153,18.122442847749394,6.689765367207558,tremor
273,5969734,2.094,-0.571949264658055,0.06180730570277923,-0.9680853915607306,-20.927492356295105,16.156362937620383,6.874159086357547,tremor
274,5969739,2.099,-0.5646436504739663,0.06643209636516154,-0.9690403634663134,-18.849893074769884,14.22329403460872,7.061210152519023,tremor
275,5969744,2.104,-0.5569976606462447,0.07084366632213238,-0.9698464787603206,-16.843736670735673,12.34010086013705,7.247461213540246,tremor
276,5969749,2.109,-0.5490560251529426,0.07504273829418996,-0.9705024806822243,-14.917285507038066,10.523034715291336,7.429529512909451,tremor
277,5969753,2.113,-0.5408652366813778,0.07903017900247225,-0.9710078615044372,-13.078279441474121,8.787583907824297,7.604128873235724,tremor
278,5969758,2.118,-0.532473227325174,0.08280698889722231,-0.9713628382105383,-11.333888130951644,7.148317690021704,7.7680937815481546,tremor
279,5969763,2.123,-0.5239289968588519,0.08637430713036173,-0.9715683271598251,-9.690662044803874,5.618724720371138,7.918405639243897,tremor
280,5969801,2.161,-0.5152821929112071,0.0897334326176986,-0.9716259209556434,-8.154482259970642,4.2110482888209555,8.052220994231503,tremor
281,5969805,2.165,-0.5065826478725383,0.09288586092688829,-0.9715378704963811,-6.7305095757493705,2.9361217529140338,8.166901321160685,tremor
282,5969810,2.17,-0.49787988188646604,0.09583333557236144,-0.9713070747845148,-5.423133954022784,1.8032087317961656,8.260043672223574,tremor
283,5969815,2.175,-0.48922258512073313,0.09857791122167094,-0.9709370804396359,-4.2359257104544845,0.8198534620111033,8.32951130568397,tremor
284,5969825,2.185,-0.48065809508847923,0.10112202542886603,-0.9704320919470805,-3.171590205952503,-0.008252789251252203,8.373463229712726,tremor
285,5969830,2.19,-0.4722318858730803,0.10346857486724745,-0.9697969924832753,-2.2319279920541373,-0.677383281023164,8.39038148519646,tremor
286,5969835,2.195,-0.4639870858526066,0.10562099164476219,-0.9690373737940892,-1.4178024436849823,-1.1858596817943414,8.379094940537225,tremor
287,5969840,2.2,-0.45596403924766205,0.10758331514330349,-0.9681595722289276,-0.7291168663927231,-1.534103343052203,8.338798395607748,tremor
288,5969845,2.205,-0.44819992482643317,0.10936025492410513,-0.9671707068260335,-0.16480289274583954,-1.7246500726700984,8.269065900841124,tremor
289,5969850,2.21,-0.4407284426119856,0.11095724057769794,-0.9660787144432751,0.2771783078472116,-1.7621258291365511,8.169857388962456,tremor
290,5969854,2.214,-0.43357957660378343,0.11238045495014695,-0.9648923764210312,0.5998208737651567,-1.6531822401745255,8.041517976132022,tremor
291,5969859,2.219,-0.42677943845863336,0.11363684792034565,-0.9636213311909908,0.807044490348884,-1.406392405911984,7.884769595318211,tremor
292,5969864,2.224,-0.42035019386026956,0.11473412880381631,-0.9622760676128171,0.9036498906578735,-1.0321089867961781,7.7006949574233365,tremor
293,5969869,2.229,-0.414310070018617,0.11568073647957727,-0.9608678946054056,0.8952600394840845,-0.5422880172114225,7.4907141782042705,tremor
294,5969879,2.239,-0.40867343946787554,0.11648578743390087,-0.959408883787738,0.7882479789770067,0.04971684498267619,7.256554746054469,tremor
295,5969884,2.244,-0.40345097219620946,0.11715900303441562,-0.9579117832752617,0.5896528476437964,0.7293838883744141,7.000215817894799,tremor
296,5969888,2.248,-0.3986498453042616,0.11771061842569104,-0.9563899023850243,0.3070860656464304,1.4812702553270278,6.723928088915139,tremor
297,5969920,2.28,-0.39427399706405974,0.11815127640111653,-0.9548569686629353,-0.051369925629923305,2.2892693226660277,6.430110653284957,tremor
298,5969925,2.285,-0.39032441066712326,0.11849191038032889,-0.9533269602320046,-0.47726770831105414,3.1368716944233177,6.121326335709565,tremor
299,5969930,2.29,-0.38679941234333903,0.11874362113007476,-0.9518139178504333,-0.9619029357319334,4.007423306542274,5.800236928334522,tremor
300,5969935,2.295,-0.3836949690826926,0.11891755204059622,-0.9503317421609412,-1.4964216529856134,4.884374785363476,5.469559630405929,tremor
301,5969939,2.299,-0.38100497292801866,0.11902476757955976,-0.9488939823505717,-2.071924371382573,5.751517024148934,5.1320257839329555,tremor
302,5969944,2.304,-0.378721501522925,0.11907613902926435,-0.9475136228331825,-2.6795647099681648,6.593198854609353,4.79034275785481,tremor
303,5969949,2.309,-0.3768350479123905,0.11908224086469567,-0.946202874674753,-3.3106408247759807,7.394523636222102,4.447159585746647,tremor
304,5969954,2.314,-0.3753347160916006,0.11905326025739009,-0.9449729783688828,-3.9566782951947777,8.14152254338472,4.1050367281667715,tremor
305,5969964,2.324,-0.37420838213894014,0.11899892128110844,-0.9438340242725043,-4.609503602994061,8.821303293366677,3.76642011900253,tremor
306,5969974,2.334,-0.3734428236962149,0.11892842451168137,-0.94279479653266,-5.261307802175949,9.422174011448412,3.4336194666350344,tremor
307,5969978,2.338,-0.37302382289085645,0.11885040189536096,-0.9418626456516445,-5.904700412997097,9.933742830603903,3.1087906138916352,tremor
308,5969983,2.343,-0.37293624941508063,0.11877288603327749,-0.9410433939145512,-6.532753952494921,10.346994597748624,2.793921616738631,tremor
309,5969988,2.348,-0.373164131340222,0.11870329241152205,-0.9403412767153126,-7.13903980857678,10.654346625899253,2.4908220870772606,tremor
310,5969993,2.353,-0.37369072138046106,0.11864841261092397,-0.9397589213787907,-7.7176563592277345,10.84968574197249,2.201115269124981,tremor
311,5969998,2.358,-0.37449856581961255,0.11861441617246628,-0.9392973634543483,-8.263250333803418,10.928388931552533,1.9262322887034014,tremor
312,5970007,2.367,-0.37556958229339343,0.11860685859192822,-0.938956098758657,-8.771032420612165,10.88732970249151,1.667408033966468,tremor
313,5970012,2.372,-0.3768851511846348,0.11863069289232266,-0.9387331678000971,-9.23678805481395,10.72487191192478,1.4256781977278508,tremor
314,5970040,2.4,-0.3784262236269209,0.1186902823947162,-0.9386252677606491,-9.656884180944353,10.44085226228432,1.2018771385221654,tremor
315,5970044,2.404,-0.3801734471059658,0.11878941268454642,-0.938627886084909,-10.028272585382407,10.036552031992995,0.9966363947852918,tremor
316,5970049,2.409,-0.3821073075160696,0.11893130132969582,-0.9387354490604068,-10.348490157274032,9.514657976418489,0.8103838883300567,tremor
317,5970054,2.414,-0.3842082844529664,0.11911860458564054,-0.9389414786535455,-10.615656196590491,8.879211856627466,0.6433440348880507,tremor
318,5970059,2.419,-0.38645701472043037,0.11935342103190046,-0.939238751289665,-10.828466681597297,8.13554782676376,0.4955391022165824,tremor
319,5970064,2.424,-0.388834457678357,0.11963729273737939,-0.9396194531353724,-10.986185257531975,7.290216935927725,0.36679221013537316,tremor
320,5970068,2.428,-0.3913220552735391,0.11997120509083296,-0.9400753275968162,-11.088630618499234,6.35089820768507,0.2567323647638434,tremor
321,5970078,2.438,-0.393901879418163,0.12035558682296231,-0.9405978120236774,-11.136159920134325,5.326296077515465,0.1648018768597105,tremor
322,5970088,2.448,-0.39655675982444843,0.12079031197027196,-0.9411781618680911,-11.129647873967405,4.226024351559566,0.09026644064228515,tremor
323,5970093,2.453,-0.3992703864416496,0.12127470557898055,-0.9418075616888391,-11.070461229946563,3.060477275186885,0.03222804954787947,tremor
324,5970098,2.458,-0.40202738219872564,0.12180755482148259,-0.9424772233444805,-10.960428448415364,1.840688750288477,-0.010359196600761733,tremor
325,5970107,2.467,-0.4048133436955482,0.1223871269148921,-0.9431784724445283,-10.801804495040185,0.578181199963366,-0.038670475582516406,tremor
326,5970112,2.472,-0.4076148496214359,0.12301119482465146,-0.943902824613665,-10.597230856850608,-0.7151939673578305,-0.05398904251771164,tremor
327,5970117,2.477,-0.4104194388082718,0.12367707125106105,-0.9446420533812914,-10.349691065263292,-2.027421912285346,-0.057682806006026315,tremor
328,5970122,2.482,-0.413215561756832,0.12438165087973999,-0.9453882515582201,-10.062462210464048,-3.3464931683490446,-0.05117916297461052,tremor
329,5970126,2.486,-0.4159925110592134,0.12512146036868296,-0.9461338878242734,-9.739063128115562,-4.660572602686308,-0.03593867770289541,tremor
330,5970131,2.491,-0.41874033728246907,0.12589271507411984,-0.9468718599437786,-9.383200122510967,-5.958165196175562,-0.01342827424487864,tremor
331,5970136,2.496,-0.42144975753695113,0.12669138110404116,-0.9475955455713546,-8.998711250860866,-7.228275151124267,0.014905324594806651,tremor
332,5970162,2.522,-0.42411206412533925,0.12751324094487643,-0.9482988510334182,-8.589510323871965,-8.46055478133322,0.047661136443479815,tremor
333,5970167,2.527,-0.4267190403782912,0.12835396064671814,-0.9489762578091143,-8.15953186743921,-9.645439708167306,0.08350764677502975,tremor
334,5970171,2.531,-0.4292628900650945,0.12920915639897573,-0.9496228657536665,-7.712678320170387,-10.774267117166797,0.12120395995572511,tremor
335,5970181,2.541,-0.4317361856612637,0.13007445831630737,-0.9502344315074505,-7.252770690621189,-11.839374267354009,0.15961769058733496,tremor
336,5970191,2.551,-0.43413183931055677,0.1309455694129946,-0.9508074001239171,-6.783503761797384,-12.83417509565321,0.19773905495223906,tremor
337,5970196,2.556,-0.4364430986160235,0.13181831807103542,-0.9513389278049945,-6.3084067283813265,-13.753213566176699,0.23469081394615557,tremor
338,5970210,2.57,-0.4386635675465685,0.13268870276503184,-0.9518268937783904,-5.830809913687074,-14.592193292391752,0.2697339338103158,tremor
339,5970215,2.575,-0.44078725088782966,0.13355292833558743,-0.9522698997636512,-5.353817960385183,-15.347983832773858,0.30226904558996076,tremor
340,5970220,2.58,-0.4428086189422974,0.1344074336388997,-0.9526672560865931,-4.880289635276845,-16.018604864822684,0.33183397954504806,tremor
341,5970225,2.585,-0.44472268772813506,0.13524891088819718,-0.9530189542175874,-4.41282414640149,-16.603190122075034,0.3580978105331861,tremor
342,5970229,2.589,-0.446525108843628,0.13607431740342804,-0.953325626229034,-3.953753652697771,-17.10193349639451,0.3808519644812237,tremor
343,5970234,2.594,-0.4482122625129741,0.1368808807801778,-0.9535884923186134,-3.5051414608252536,-17.516020057232296,0.3999990043477961,tremor
344,5970244,2.604,-0.4497813471253571,0.1376660986756147,-0.9538092980871606,-3.068785255250135,-17.847544934705315,0.4155397433144985,tremor
345,5970248,2.608,-0.45123045881400237,0.1384277344961031,-0.9539902436729135,-2.646224600075021,-18.099423067503725,0.4275593298945587,tremor
346,5970253,2.613,-0.45255865527379346,0.13916381026751215,-0.9541339071160272,-2.2387518893741762,-18.27529273624837,0.43621291700392173,tremor
347,5970285,2.645,-0.45376599905182413,0.13987259788329579,-0.9542431644532896,-1.847425911365836,-18.379415595865606,0.4417114660888441,tremor
348,5970290,2.65,-0.45485357690503,0.1405526097660242,-0.9543211090265048,-1.4730872289640977,-18.41657560827882,0.44430815251133365,tremor
349,5970295,2.655,-0.4558234933901309,0.1412025897603633,-0.9543709723450906,-1.1163746539749204,-18.391978900387286,0.44428573896814105,tremor
350,5970300,2.66,-0.45667883846434415,0.14182150482383968,-0.9543960486017524,-0.7777421872360646,-18.311156183602066,0.4419451811567191,tremor
351,5970305,2.665,-0.45742363035285716,0.14240853782525886,-0.9543996246327164,-0.45747589705841046,-18.17986901099685,0.43759563269729007,tremor
352,5970310,2.67,-0.4580627361605156,0.14296308152485965,-0.9543849167718194,-0.1557103061894671,-18.004020832696106,0.4315459286302824,tremor
353,5970314,2.674,-0.4586017736291674,0.1434847336119838,-0.9543550156949063,0.12755604542634943,-17.78957353760396,0.42409755110536806,tremor
354,5970324,2.684,-0.4590469980768061,0.1439732925240229,-0.9543128400040607,0.3924460941034758,-17.542469935192905,0.4155390199787003,tremor
355,5970329,2.689,-0.45940517892217425,0.14442875366788746,-0.9542610989704489,0.6391909301864034,-17.268562435122025,0.4061416063560202,tremor
356,5970333,2.693,-0.4596834703193786,0.14485130561068404,-0.9542022645458024,0.8681176894388297,-16.97354803001681,0.3961562366502047,tremor
357,5970338,2.698,-0.4598892803208812,0.14524132579355953,-0.9541385524688832,1.0796386042839339,-16.662909583685,0.38581143496600356,tremor
358,5970353,2.713,-0.46003014267865466,0.14559937534242412,-0.9540719120364911,1.2742410997110267,-16.34186337429474,0.375312141078997,tremor
359,5970357,2.717,-0.46011359491625126,0.14592619259163103,-0.9540040238803312,1.4524787797472634,-16.015312832530896,0.364839240672899,tremor
360,5970362,2.722,-0.46014706570088204,0.1462226849940754,-0.9539363048947974,1.614963133532406,-15.687808436090343,0.3545496542313735,tremor
361,5970367,2.727,-0.46013777386014965,0.14648991915975876,-0.9538699193028117,1.7623557941935781,-15.363513760486716,0.34457684924202175,tremor
362,5970372,2.732,-0.46009264066905586,0.14672910884409904,-0.953805794735155,1.8953612046754127,-15.046177728806596,0.3350316634970946,tremor
363,5970377,2.737,-0.4600182163224711,0.14694160079790586,-0.9537446421390606,2.0147195747593116,-14.73911313803276,0.3260033515207643,tremor
364,5970382,2.742,-0.4599206208430464,0.14712885849302396,-0.9536869783260215,2.1212000449709367,-14.445181558170967,0.3175607893378504,tremor
365,5970406,2.766,-0.45980549908320867,0.1472924438492061,-0.9536331500147557,2.215594000912147,-14.166784697290755,0.3097537942564511,tremor
366,5970411,2.771,-0.45967798898612383,0.14743399720389577,-0.9535833583182252,2.298708503539847,-13.905862296957384,0.30261453513336883,tremor
367,5970416,2.776,-0.45954270189910856,0.14755521587832543,-0.9535376827558725,2.3713598170921073,-13.663896565635248,0.29615902232002633,tremor
368,5970421,2.781,-0.4594037135090453,0.1476578317883558,-0.9534961040331367,2.4343670286982904,-13.441923073199739,0.2903886727407767,tremor
369,5970430,2.79,-0.4592645639047045,0.14774358861559467,-0.9534585250068676,2.4885457648106857,-13.240547925097152,0.2852919446248258,tremor
370,5970435,2.795,-0.4591282653494046,0.14781421908870618,-0.9534247894343538,2.5347020210323206,-13.059970922651177,0.28084603154722204,tremor
371,5970440,2.8,-0.4589973165270624,0.14787142292879366,-0.9533946982738093,2.5736261338394884,-12.900014308364531,0.27701860023102354,tremor
372,5970445,2.805,-0.4588737222537348,0.14791684599228552,-0.9533680234562341,2.60608693466896,-12.760156597911337,0.2737695527597989,tremor
373,5970449,2.809,-0.45875901787976003,0.14795206110602913,-0.9533445191764534,2.632826138551387,-12.639570914045267,0.27105279129843274,tremor
374,5970454,2.814,-0.4586542978126382,0.1479785510373665,-0.9533239308522313,2.654553030874254,-12.537167158313164,0.26881796108514866,tremor
375,5970459,2.819,-0.458560247749787,0.14799769398061183,-0.9533060019751931,2.671939526919605,-12.451637279810642,0.267012144396497,tremor
