sample,t_ms,t_s,ax,ay,az,gx,gy,gz,tremor
0,5891445,0.0,-0.4214986966383901,-0.14529929171456565,-1.0053049958259348,-9.165995855938071,22.274344392291,-0.7072772249256658,tremor
1,5891459,0.014,-0.4161728457123125,-0.14438377463287386,-1.006147386004629,-8.081497518093165,15.089616050886345,-0.18597737986404111,tremor
2,5891464,0.019,-0.4089589029245499,-0.14313489894237286,-1.0073042459189787,-6.975651447245265,7.989052966951672,0.29626373344737245,tremor
3,5891469,0.024,-0.3997910615653135,-0.14153623493426185,-1.008795581508882,-5.849797422433027,1.0006487037656413,0.7356504189229132,tremor
4,5891478,0.033,-0.38897561628427296,-0.1396362769057891,-1.0105811948531318,-4.7054673720606495,-5.847291173070927,1.1284667216002262,tremor
5,5891483,0.038,-0.3769972711485698,-0.13751624493200085,-1.0125893637227976,-3.544392845090907,-12.526298180654733,1.4710999230192878,tremor
6,5891488,0.043,-0.3643519710060108,-0.13526146842558612,-1.014743037108754,-2.3685094873504715,-19.007902383111034,1.7600648600701154,tremor
7,5891493,0.048,-0.3514637650796909,-0.13294673922643327,-1.0169735938310245,-1.1799581289976973,-25.263806176092352,1.9920289868399397,tremor
8,5891498,0.053,-0.33866355498793166,-0.13063222726884108,-1.0192249650645107,0.018917865896629842,-31.266069985442847,2.163838050234134,tremor
9,5891503,0.058,-0.32619794579941513,-0.1283646614364189,-1.0214528487044479,1.2255792730124284,-36.9873090701727,2.272542195351925,tremor
10,5891508,0.063,-0.31424733025341894,-0.1261802105067963,-1.0236222700532187,2.437301906649879,-42.40090016961194,2.3154222581203556,tremor
11,5891513,0.068,-0.3029434688993619,-0.12410736166371124,-1.0257050749792866,3.6511918426424064,-47.4811962544801,2.2900159436590126,tremor
12,5891517,0.072,-0.29238339132401814,-0.1221692167417209,-1.0276779153174698,4.864204942380783,-52.203747151665816,2.194143532836036,tremor
13,5891522,0.077,-0.2826393726709341,-0.12038513858650073,-1.0295208088291503,6.073170517734298,-56.54552333240872,2.025932710118377,tremor
14,5891527,0.082,-0.2737657185928636,-0.11877185783451269,-1.0312161847405916,7.274818829125078,-60.48513969955099,1.7838420666120292,tremor
15,5891553,0.108,-0.2658032344167331,-0.11734418198344923,-1.0327482910619268,8.465811958134402,-64.0030757955784,1.466682806139599,tremor
16,5891558,0.113,-0.2587821145639862,-0.11611542903648511,-1.034102854182362,9.642777451372012,-67.08188849822129,1.0736381715186982,tremor
17,5891563,0.118,-0.25272379595644606,-0.11509767753935482,-1.03526690702268,10.802344008273167,-69.706413007324,0.604280114680531,tremor
18,5891568,0.123,-0.24764215217271418,-0.1143018975947999,-1.0362287257719744,11.941178397856879,-71.86394779731584,0.058582759557825326,tremor
19,5891573,0.128,-0.24354428004455872,-0.11373800675462327,-1.036977833502072,13.056022745051258,-73.5444192387123,-0.5630677488157408,tremor
20,5891578,0.133,-0.2404310428796778,-0.11341488009650517,-1.0375050419335576,14.143731317810314,-74.74052176974048,-1.2598673536077913,tremor
21,5891583,0.138,-0.23829747544098856,-0.11334033388018659,-1.0378025114969345,15.201305956736288,-75.44782979808588,-2.0305924219072558,tremor
22,5891587,0.142,-0.23713311672798723,-0.11352109557369672,-1.0378638157958255,16.22592930876542,-75.66487791728687,-2.8736024855467077,tremor
23,5891597,0.152,-0.23692231100148517,-0.11396276867388319,-1.0376840006010604,17.214995053252444,-75.39320653596563,-3.786847464575836,tremor
24,5891606,0.161,-0.23764450079235902,-0.11466979785423108,-1.0372596302840138,18.166134346215784,-74.63737065478126,-4.767879338865648,tremor
25,5891611,0.166,-0.23927452474629113,-0.11564543804098996,-1.0365888166127128,19.077237766167322,-73.4049103048826,-5.813868111980615,tremor
26,5891616,0.171,-0.24178292604106771,-0.11689172970785129,-1.0356712263976635,19.946472137832217,-71.70628210196406,-6.921621784743824,tremor
27,5891621,0.176,-0.245136272443924,-0.1184094817725275,-1.034508065779472,20.772291751798974,-69.55475247376027,-8.08760993117821,tremor
28,5891626,0.181,-0.24929748599522894,-0.12019826283775364,-1.0331020401052886,21.55344369122391,-66.96625435227959,-9.307990355746705,tremor
29,5891631,0.186,-0.25422617826021193,-0.1222564010585644,-1.0314572893953387,22.28896721120655,-63.95921041950201,-10.578638215145347,tremor
30,5891636,0.191,-0.25987898573785573,-0.12458099258316632,-1.0295793003677918,22.978187379038054,-60.55432728020884,-11.89517691438947,tremor
31,5891641,0.196,-0.2662098991526266,-0.1271679182676479,-1.0274747968661027,23.62070346544147,-56.77436613458015,-13.25301003816726,tremor
32,5891645,0.2,-0.2731705798712112,-0.13001186817331356,-1.025151611309588,24.21637287360882,-52.64389656317965,-14.647353556795911,tremor
33,5891650,0.205,-0.28071065653311933,-0.13310637319625432,-1.0226185404598938,24.765291699383447,-48.189040837762455,-16.0732675535966,tremor
34,5891682,0.237,-0.28877799515856295,-0.1364438430410764,-1.0198851893622143,25.267773320218655,-43.43721663380514,-17.5256867590839,tremor
35,5891696,0.251,-0.2973189365728137,-0.1400156096392904,-1.0169618077808944,25.724326675853824,-38.41688599949192,-18.999449254672594,tremor
36,5891706,0.261,-0.30627849616886077,-0.14381197505485255,-1.013859123795013,26.135636046771065,-33.15731773035288,-20.489322846007497,tremor
37,5891711,0.266,-0.3156005231306879,-0.14782226296608048,-1.010588179415463,26.502544045555243,-27.68836875733852,-21.990028827912322,tremor
38,5891716,0.271,-0.3252278194633035,-0.15203487301833737,-1.0071601730636413,26.82603914807284,-22.04028787297691,-23.496263162047057,tremor
39,5891720,0.275,-0.33510222337450923,-0.1564373377246635,-1.0035863134328544,27.10724845081548,-16.243542477440116,-25.00271540992521,tremor
40,5891735,0.29,-0.3451646662113421,-0.16101638211967204,-0.9998776885807371,27.3474355670868,-10.328666473273707,-26.504086037609397,tremor
41,5891740,0.295,-0.3553552165959425,-0.16575798697580546,-0.9960451530697362,27.548002789191226,-4.3261252833349735,-27.995102886584263,tremor
42,5891750,0.305,-0.3656131289699143,-0.17064745698391603,-0.9920992346349498,27.710495948186907,1.7338075926602035,-29.470537667322983,tremor
43,5891754,0.309,-0.3758769158513806,-0.1756694957899488,-0.9880500603201219,27.836609892656732,7.821168854146773,-30.925223273533806,tremor
44,5891759,0.314,-0.38608446328403595,-0.18080829007819402,-0.983907300443016,27.92819225955522,13.906424776248068,-32.35407254805433,tremor
45,5891769,0.324,-0.3961732070167013,-0.18604760492770514,-0.9796801273309331,27.98724324787165,19.96059699757258,-33.75209888382507,tremor
46,5891774,0.329,-0.40608038299666754,-0.1913708923960104,-0.9753771847055965,28.0159093968475,25.95539839128694,-35.1144387472291,tremor
47,5891800,0.355,-0.41574336013117463,-0.19676141468530634,-0.971006563047182,28.01646985321322,31.863380583448254,-36.43637589288705,tremor
48,5891805,0.36,-0.4251000564875983,-0.2022023823362036,-0.9665757763088315,27.99131422425705,37.65809231612215,-37.713366723917545,tremor
49,5891810,0.365,-0.43408943285247803,-0.20767710673543566,-0.9620917359714806,27.942911798770055,43.31424548910772,-38.941065970476664,tremor
50,5891820,0.375,-0.44265205066572383,-0.2131691649367221,-0.9575607195065595,27.873772618304454,48.80788368348671,-40.11535164484112,tremor
51,5891825,0.38,-0.45073067555393126,-0.21866257353658677,-0.9529883316560621,27.78640153633446,54.116546567861285,-41.23234810717919,tremor
52,5891830,0.385,-0.45827090352091515,-0.2241419672731999,-0.9483794583343563,27.683246952114153,59.21942296284332,-42.28844605448308,tremor
53,5891834,0.389,-0.46522178453073065,-0.22959277724157687,-0.9437382142292977,27.56664629354348,64.09748549552361,-43.28031833186591,tremor
54,5891839,0.394,-0.471536417741308,-0.23500140320792745,-0.9390678862166926,27.438770514534962,68.7336006161971,-44.20493065765914,tremor
55,5891844,0.399,-0.4771724938903224,-0.24035537447574082,-0.9343708754479059,27.301569870618497,73.11260909690944,-45.05954663025883,tremor
56,5891849,0.404,-0.48209276309743443,-0.24564349408272693,-0.9296486414193708,27.156723077451442,77.22137377566092,-45.84172670906897,tremor
57,5891854,0.409,-0.48626541038787596,-0.2508559617421666,-0.9249016515071287,27.00559168348552,81.04879307467007,-46.54932119760474,tremor
58,5891859,0.414,-0.48966432629587237,-0.2559844718207149,-0.9201293393837846,26.849181132757547,84.58578058245902,-47.18045757590643,tremor
59,5891864,0.419,-0.49226926567290347,-0.26102228369319647,-0.9153300754660182,26.688109577447683,87.82521266116828,-47.73352280995276,tremor
60,5891878,0.433,-0.49406589396066425,-0.2659642629543122,-0.910501152099884,26.522585038350016,90.76184755243335,-48.20714148718899,tremor
61,5891883,0.438,-0.49504572628677684,-0.2708068931184795,-0.9056387856022526,26.35239102495169,93.39222072561812,-48.6001507720939,tremor
62,5891892,0.447,-0.4952059703074145,-0.27554825852504106,-0.9007381365574099,26.176880251559787,95.71452212252917,-48.911573236200184,tremor
63,5891897,0.452,-0.49454928817577143,-0.2801880001137153,-0.8957933489391205,25.994975679445574,97.72846136917377,-49.14058859890619,tremor
64,5891925,0.48,-0.4930834958087717,-0.2847272464845999,-0.8907976077332161,25.805177845132555,99.43512686607173,-49.28650533385184,tremor
65,5891930,0.485,-0.4908212184146934,-0.28916852316903285,-0.8857432138597282,25.605577355606012,100.8368439413409,-49.34873296719634,tremor
66,5891935,0.49,-0.48777952001665953,-0.29351564328773605,-0.8806216744750187,25.39387156123281,101.93703602468479,-49.32675573304273,tremor
67,5891954,0.509,-0.48397952176882486,-0.297773582744322,-0.8754238063362072,25.167384733052202,102.74009119379446,-49.220108072209435,tremor
68,5891959,0.514,-0.4794460197571543,-0.30194834280194466,-0.8701398499430321,24.923091508670094,103.25123468656209,-49.02835228546653,tremor
69,5891964,0.519,-0.4742071083940567,-0.3060468023780351,-0.8647595926167544,24.657643829457918,103.47640645407095,-48.75105851548754,tremor
70,5891973,0.528,-0.46829381120958546,-0.3100765617844853,-0.859272499382115,24.367401951852813,103.42214198293043,-48.38778717406969,tremor
71,5891978,0.533,-0.46173971750435433,-0.31404577907829767,-0.8536678512865384,24.048470281326384,103.09545465021944,-47.93807397625095,tremor
72,5891983,0.538,-0.45458062144376304,-0.31796299978558945,-0.8479348914510993,23.69673871215632,102.50371865460934,-47.401417869036834,tremor
73,5891993,0.548,-0.44685415994381644,-0.32183698058728805,-0.8420629795875836,23.307929880447944,101.65455277332764,-46.77727228305399,tremor
74,5892002,0.557,-0.4385994470685267,-0.3256765076269764,-0.8360417558683672,22.8776523088762,100.55570652254286,-46.06504021792663,tremor
75,5892012,0.567,-0.42985670532033243,-0.3294902103939896,-0.8298613148658968,22.401458914748517,99.21495149151393,-45.26407366026185,tremor
76,5892017,0.572,-0.42066689758499565,-0.3332863725815133,-0.8235123897776243,21.874909847134965,97.63998143700476,-44.37367773468477,tremor
77,5892044,0.599,-0.4110713667946435,-0.3370727418269461,-0.8169865463452581,21.293638183970398,95.83832498205398,-43.393119831862336,tremor
78,5892049,0.604,-0.40111149275483493,-0.34085634071085136,-0.8102763848454368,20.65341671772397,93.81727441070879,-42.32164377174771,tremor
79,5892054,0.609,-0.3908283764148456,-0.34464328173359354,-0.8033757474301065,19.950223949868022,91.58383317049085,-41.15848887311639,tremor
80,5892064,0.619,-0.38026256091839206,-0.3484385891400458,-0.7962799271416946,19.180307548131335,89.14468344976177,-39.90291363987821,tremor
81,5892069,0.624,-0.369453796262102,-0.35224603039060987,-0.7889858743124246,18.340243887199854,86.50617378982258,-38.55422365848451,tremor
82,5892073,0.628,-0.3584408508466708,-0.35606795979142924,-0.7814923958720963,17.426992804329828,83.67432535084986,-37.111803223912,tremor
83,5892078,0.633,-0.34726136930569224,-0.35990517634682756,-0.7738003433166489,16.437947231943006,80.65485439811178,-35.575150150834226,tremor
84,5892088,0.643,-0.33595177235848966,-0.363756797354241,-0.7659127856464185,15.370977823435657,77.45320795722323,-33.94391316390341,tremor
85,5892093,0.648,-0.3245471915133552,-0.36762014870540616,-0.7578351643598478,14.224473013655615,74.0746094419103,-32.217931206091365,tremor
86,5892097,0.652,-0.31308142955022994,-0.371490672364811,-0.7495754284704556,12.997375119865383,70.52411134175783,-30.397273991622242,tremor
87,5892103,0.658,-0.30158693702457057,-0.37536185113595283,-0.7411441483878434,11.689213070293702,66.80665269317892,-28.48228319202954,tremor
88,5892117,0.672,-0.290094795620658,-0.37922515064795914,-0.7325546082642028,10.30013214850822,62.92711994789555,-26.4736137747223,tremor
89,5892122,0.677,-0.27863470095045395,-0.38306997852092345,-0.7238228769689308,8.83092080319243,58.890410869883965,-24.372275160922644,tremor
90,5892127,0.682,-0.26723494008345616,-0.3868836608844313,-0.714967858136536,7.283034160647066,54.70150205263232,-22.17967196429585,tremor
91,5892137,0.692,-0.2559223622954936,-0.39065143678341874,-0.7060113196665438,5.658613460907928,50.36552134063793,-19.897644069677106,tremor
92,5892142,0.697,-0.2447223447342406,-0.39435647143622465,-0.6969779026090623,3.9605002765935255,45.88782669321348,-17.528505715932358,tremor
93,5892168,0.723,-0.23365875739403222,-0.397979889725557,-0.6878951086003572,2.1922441142667903,41.274092780070475,-15.075083092959378,tremor
94,5892173,0.728,-0.22275393352006548,-0.4015008316179879,-0.6787932640714687,0.3581018853986363,36.530405875119065,-12.540749792238893,tremor
95,5892178,0.733,-0.21202865202239227,-0.40489653134504866,-0.6697054585721599,-1.536972190030812,31.66336651463848,-9.929459301208988,tremor
96,5892183,0.738,-0.20150213760436836,-0.4081424220821608,-0.6606674539949555,-3.4873473966616326,26.680198079209756,-7.2457736343954915,tremor
97,5892189,0.744,-0.19119208229948206,-0.4112122675083075,-0.6517175614500881,-5.486748725282431,21.58885816958669,-4.4948871635816365,tremor
98,5892193,0.748,-0.18111468938663847,-0.4140783210418354,-0.6428964830858851,-7.528300536292869,16.398148587477753,-1.6826447410010168,tremor
99,5892198,0.753,-0.17128473773643849,-0.416711512783995,-0.6342471171799909,-9.604581128329558,11.117819051113639,1.1844467103494107,tremor
100,5892203,0.758,-0.16171566201991394,-0.4190816633337298,-0.6258143261843047,-11.70768706702396,5.758659547539934,4.099213846713515,tremor
101,5892222,0.777,-0.15241964227060284,-0.42115772273546465,-0.6176446689260743,-13.82930563628595,0.3325764655163923,7.053820346455855,tremor
102,5892227,0.782,-0.14340769529173517,-0.42290803195643883,-0.6097860996954318,-15.96079342557403,-5.147351665482861,10.039778508799827,tremor
103,5892237,0.792,-0.13468976050074902,-0.424300603543007,-0.6022876383214073,-18.093258915552067,-10.666841960609073,13.047969163143012,tremor
104,5892242,0.797,-0.12627477405227264,-0.4253034175706424,-0.5951990163673828,-20.217647013351424,-16.210400344945686,16.068669851391114,tremor
105,5892252,0.807,-0.11817072734162898,-0.4258847287588723,-0.5885703050917497,-22.32482380188217,-21.76134063508205,19.091591104341852,tremor
106,5892256,0.811,-0.11038470887444854,-0.4260133806919725,-0.5824515307328372,-24.405660214811125,-27.301828921525694,22.105920554536123,tremor
107,5892261,0.816,-0.10292293141106537,-0.42565912342013457,-0.5768922820212932,-26.451113805472616,-32.8129518347474,25.10037460033949,tremor
108,5892266,0.821,-0.09579074865235383,-0.42479293121766554,-0.5719413137291134,-28.452308140793843,-38.274806926351786,28.06325733998457,tremor
109,5892298,0.853,-0.08899266706932618,-0.4233873178338265,-0.5676461487202612,-30.400609562473413,-43.6666134871712,30.982526513217373,tremor
110,5892303,0.858,-0.08253235858017488,-0.4214166470786608,-0.5640526795997504,-32.28770110211449,-48.96684253170892,33.84586620599221,tremor
111,5892308,0.863,-0.07641267871288145,-0.41885743693011973,-0.5612047699394415,-34.1056532310117,-54.15336517816047,36.640766070302575,tremor
112,5892313,0.868,-0.07063569298986963,-0.41568865542845385,-0.5591438544806943,-35.846990909593025,-59.20361897909879,39.35460676538021,tremor
113,5892323,0.878,-0.06520271204703762,-0.4118920063892575,-0.557908537873939,-37.504756142092845,-64.09479171520852,41.97475122600426,tremor
114,5892337,0.892,-0.06011433401024376,-0.4074522024618607,-0.5575341924038026,-39.07256502303291,-68.80402171232912,44.48864121288174,tremor
115,5892347,0.902,-0.055370491365435516,-0.40235722242077426,-0.5580525565469807,-40.54465816486746,-73.30861296381798,46.88389841750488,tremor
116,5892352,0.907,-0.050970499266316666,-0.39659854899124863,-0.5594913377818354,-41.915943474666186,-77.58626236285774,49.14842920632262,tremor
117,5892362,0.917,-0.046913102980982425,-0.39017138316064026,-0.5618738244614382,-43.18203050641967,-81.61529530723716,51.27053192305579,tremor
118,5892366,0.921,-0.043196523766456524,-0.38307483094088757,-0.5652185125005772,-44.3392560015875,-85.3749049657526,53.23900553689091,tremor
119,5892371,0.926,-0.03981850443184306,-0.3753120589458333,-0.5695387529888658,-45.38470065767261,-88.84538970104367,55.04325832264067,tremor
120,5892381,0.936,-0.03677635768706349,-0.36689041585001,-0.5748424266671515,-46.316197555640905,-92.00838259719485,56.67341517350519,tremor
121,5892386,0.941,-0.034067021646580924,-0.3578215176648849,-0.5811316506436021,-47.132332987487025,-94.84706677003238,58.120422070829754,tremor
122,5892390,0.945,-0.03168712731430283,-0.3481212956555851,-0.5884025219746872,-47.832440638748096,-97.34637014101827,59.376146170093556,tremor
123,5892423,0.978,-0.02963308244003134,-0.3378100064919919,-0.5966449019938507,-48.416590196231226,-99.49313361363349,60.433469914210185,tremor
124,5892428,0.983,-0.027901174883046238,-0.3269122047818953,-0.6058422447085652,-48.88557147844596,-101.27624709807397,61.286377562334145,tremor
125,5892432,0.987,-0.02648769675950037,-0.31545667842329606,-0.615971472314057,-49.240875144793534,-102.68674862325176,61.93003253804175,tremor
126,5892442,0.997,-0.025389088504742634,-0.3034763472572652,-0.6270029009095527,-49.48467095332847,-103.71788292334281,62.36084407176609,tremor
127,5892447,1.002,-0.0246020998613984,-0.29100812537979687,-0.638900219776883,-49.61978442647866,-104.36511741478742,62.57652174818767,tremor
128,5892452,1.007,-0.02412396290246261,-0.27809274728827704,-0.6516205279458429,-49.649672661517315,-104.62611531533983,62.5761167642336,tremor
129,5892457,1.012,-0.023952570569128476,-0.26477455789762433,-0.6651144320518351,-49.57839988891322,-104.50066766579235,62.36004894259123,tremor
130,5892462,1.017,-0.024086652820629467,-0.2511012664338463,-0.6793262095383605,-49.410613228273206,-103.99058807112347,61.93011881474274,tremor
131,5892466,1.021,-0.024525941320749985,-0.23712366432992082,-0.6941940409761685,-49.15151890356222,-103.09957597648078,61.2895043743514,tremor
132,5892471,1.026,-0.025271312606844117,-0.2228953075075757,-0.7096503146303195,-48.806858938555955,-101.83305613126781,60.44274239598762,tremor
133,5892476,1.031,-0.026324898919965384,-0.2084721638034948,-0.7256220054235558,-48.382888042818145,-100.19800345647052,59.395694509262896,tremor
134,5892481,1.036,-0.027690155372823034,-0.1939122267535616,-0.7420311291739439,-47.88635001093717,-98.20276368593794,58.155498515360165,tremor
135,5892486,1.041,-0.029371871982639866,-0.1792750974450023,-0.7587952715082514,-47.324452507588504,-95.85688075911699,56.730505741842684,tremor
136,5892496,1.051,-0.031376119419407635,-0.1646215366472618,-0.7758281892673888,-46.70483863710913,-93.17094185901239,55.130205566018766,tremor
137,5892501,1.056,-0.03371011828424087,-0.15001298990734147,-0.7930404806315959,-46.03555326076235,-90.15645009655988,53.365138592308334,tremor
138,5892515,1.07,-0.03638202357597175,-0.13551108872226758,-0.8103403187103856,-45.32500171531557,-86.82573308144391,51.446800296846,tremor
139,5892543,1.098,-0.03940061903425571,-0.12117713127711936,-0.8276342420675612,-44.581898508252095,-83.19189304043056,49.387537170493,tremor
140,5892548,1.103,-0.042774920530187,-0.10707154659767777,-0.8448279946351106,-43.815203806626,-79.26880094244619,47.20043743535146,tremor
141,5892553,1.108,-0.046513693582167684,-0.09325334640281824,-0.8618274066430509,-43.03404613120341,-75.0711335662549,44.899218276777184,tremor
142,5892558,1.113,-0.05062489687063155,-0.07977956957280913,-0.8785393073562292,-42.247630576621326,-70.6144489274835,42.49811127218307,tremor
143,5892563,1.118,-0.05511507038546495,-0.0667047250550253,-0.8948724593359342,-41.4651330012946,-65.91529226988396,40.01174737766962,tremor
144,5892568,1.123,-0.059988692654405096,-0.0540802401905466,-0.9107385025227278,-40.69558183824466,-60.99132218566565,37.45504251526184,tremor
145,5892577,1.132,-0.06524753577251126,-0.041953922752395234,-0.926052894733346,-39.947730353778304,-55.86144455667875,34.84308452720878,tremor
146,5892582,1.137,-0.07089004938544353,-0.030369446275304197,-0.9407358333835534,-39.229923231439656,-50.54594100622249,32.191022046338816,tremor
147,5892587,1.142,-0.07691080523650214,-0.019365869346042584,-0.9547131416713894,-38.549962183518026,-45.06657845526901,29.51395568126575,tremor
148,5892592,1.147,-0.08330003233977953,-0.008977200234349222,-0.9679171013831771,-37.91497577558636,-39.446687173651796,26.82683184130785,tremor
149,5892597,1.152,-0.09004326940118944,0.0007679815688950761,-0.98028721417452,-37.33129870629855,-33.71119632107052,24.144339527395413,tremor
150,5892601,1.156,-0.09712115604430922,0.009846835766767922,-0.9917708737800498,-36.80436541396871,-27.88661820907222,21.48081046963352,tremor
151,5892607,1.162,-0.10450937808125008,0.018242493557107102,-1.0023239331469613,-36.338622162171994,-22.000975162804565,18.850123064436662,tremor
152,5892611,1.166,-0.11217877490089899,0.025944203459365493,-1.0119111529035207,-35.93746079903855,-16.08366572964319,16.265610626406595,tremor
153,5892621,1.176,-0.12009560942090237,0.032947384616733945,-1.0205065207376576,-35.603176290631,-10.16526994301839,13.739974511298952,tremor
154,5892631,1.186,-0.128221993359193,0.0392535843654001,-1.0280934349915547,-35.33694898429017,-4.277296308000932,11.285202688106232,tremor
155,5892636,1.191,-0.13651645324530964,0.04487034011635439,-1.0346647498322186,-35.138851449248044,1.5481239873840946,8.912494347933249,tremor
156,5892641,1.196,-0.14493461606637936,0.049810949057216544,-1.0402226834276918,-35.00787875965325,7.27858756263329,6.632191144361119,tremor
157,5892667,1.222,-0.15342998817366454,0.05409415257497626,-1.0447785943099694,-34.94200029939407,12.881803792626815,4.453715673671179,tremor
158,5892672,1.227,-0.16195479741409546,0.05774374531007699,-1.0483526342544398,-34.938230596880075,18.32600227886027,2.385517828611713,tremor
159,5892677,1.232,-0.17046086659614562,0.06078812106962969,-1.0509732883852123,-34.992716311337134,23.580349806935168,0.435029688683225,tremor
160,5892682,1.237,-0.17890048638569866,0.0632597692109081,-1.052676814803985,-35.10083624689619,28.61536338101512,-1.3913703795918355,tremor
161,5892687,1.242,-0.1872272574099904,0.06519473546964531,-1.0535065969492567,-35.25731113472688,33.40330635226933,-3.0883837719846765,tremor
162,5892692,1.247,-0.1953968744031183,0.06663206067630956,-1.0535124223229217,-35.45631987757101,37.918555770906465,-4.651807292712124,tremor
163,5892697,1.252,-0.20336782923871116,0.0676132096560946,-1.052749701384292,-35.69161898615441,42.13793067265963,-6.078537984455816,tremor
164,5892701,1.256,-0.21110201428027858,0.06818150114711098,-1.0512786404625745,-35.956662052915185,46.040972878068864,-7.366566913218876,tremor
165,5892706,1.261,-0.21856521235535017,0.06838154802965618,-1.0491633825538398,-36.24471631018034,49.61017392889914,-8.514961896266014,tremor
166,5892711,1.266,-0.22572746464053678,0.06825871568235099,-1.0464711298579508,-36.54897361181478,52.831143940427644,-9.523839397658069,tremor
167,5892716,1.271,-0.23256331270774042,0.06785860494164889,-1.0432712618406494,-36.862653559406695,55.692720350997035,-10.394326056097563,tremor
168,5892725,1.28,-0.239051915830344,0.06722656496203261,-1.0396344624135136,-37.179096959378136,58.187016741707424,-11.128510541957873,tremor
169,5892730,1.285,-0.24517704928164347,0.0664072402416058,-1.035631869428854,-37.491848332160544,60.30941400806134,-11.729386655697857,tremor
170,5892735,1.29,-0.25092699364336646,0.0654441551534832,-1.031334258994696,-37.79472677941617,62.05849809511902,-12.200788770166119,tremor
171,5892740,1.295,-0.25629432890191334,0.06437933845492574,-1.0268112760376782,-38.08188512485337,63.43595014301512,-12.547320875837034,tremor
172,5892745,1.3,-0.2612756501385439,0.06325298938126966,-1.0221307210305244,-38.34785784175336,64.44639612748688,-12.774280603101175,tremor
173,5892750,1.305,-0.26587122372608996,0.06210318603490502,-1.0173579008832554,-38.58759881423062,65.09722385310101,-12.88757966297756,tremor
174,5892755,1.31,-0.2700846039901956,0.06096563584365174,-1.0125550497788425,-38.79651039012447,65.39837542738016,-12.893662159299868,tremor
175,5892760,1.315,-0.27392223020513456,0.05987346691064435,-1.0077808233686016,-38.970465419287365,65.3621230873523,-12.799422171870447,tremor
176,5892791,1.346,-0.2773930225594125,0.05885705815990046,-1.0030898674043964,-39.10582399939618,65.00283545727854,-12.612121884752378,tremor
177,5892796,1.351,-0.28050799338448845,0.05794390538330075,-0.9985324597615418,-39.199446464966385,64.33674003512651,-12.339311340453339,tremor
178,5892800,1.355,-0.28327988660645176,0.05715851974827631,-0.9941542231060477,-39.24870377667069,63.38168610731407,-11.988750656354954,tremor
179,5892805,1.36,-0.28572285428678373,0.056522355188899524,-0.9899959043811619,-39.251485955935834,62.15691067729143,-11.568335274025653,tremor
180,5892810,1.365,-0.2878521746205506,0.0560537614751531,-0.9860932169310299,-39.20620865527615,60.68280866940517,-11.086024563231144,tremor
181,5892820,1.375,-0.28968401128892407,0.055767960592986526,-0.9824767413689426,-39.11181745904945,58.980707797646566,-10.549773907565205,tremor
182,5892825,1.38,-0.291235210056848,0.055677045191038034,-0.9791718820111921,-38.96778915318284,57.072648071107494,-9.967470281154451,tremor
183,5892835,1.39,-0.29252312538474545,0.055789999013990337,-0.9761988765602547,-38.77412903049343,54.98116587210977,-9.346871290798275,tremor
184,5892840,1.395,-0.29356546796023136,0.05611274020766886,-0.9735728574822956,-38.53136331975669,52.729082802743335,-8.695547694701482,tremor
185,5892845,1.4,-0.29438016370200015,0.05664818895956726,-0.9713039639935523,-38.240526021482225,50.33929994857581,-8.020829495142584,tremor
186,5892849,1.404,-0.29498521596654254,0.05739636102992101,-0.9693975036366408,-37.90313975687714,47.83459873080585,-7.3297558077556575,tremor
187,5892864,1.419,-0.2953985651658682,0.058354488330124465,-0.9678541620615813,-37.52119062621651,45.23744998838534,-6.629028805355859,tremor
188,5892868,1.423,-0.2956379433358655,0.05951716689758324,-0.9666702588660393,-37.09709745875682,42.56983325483203,-5.924972098867392,tremor
189,5892873,1.428,-0.2957207247746341,0.06087653154010986,-0.965838046285628,-36.633676154345466,39.85306830538638,-5.223493941104218,tremor
190,5892878,1.433,-0.295663777010069,0.062422455255296785,-0.9653460462866749,-36.13410002261787,37.107660914761404,-4.530055618182364,tremor
191,5892888,1.443,-0.29548331845595893,0.06414277044519709,-0.9651794203479954,-35.6018571034609,34.35316439862115,-3.849645333348489,tremor
192,5892914,1.469,-0.29519478985058006,0.06602350807804026,-0.9653203650711982,-35.040705411811636,31.608057981096618,-3.186757799939284,tremor
193,5892919,1.474,-0.29481274595179496,0.06804915037969525,-0.965748525873564,-34.45462691227972,28.88964243073848,-2.5453796555253434,tremor
194,5892924,1.479,-0.29435077227729195,0.07020289241200439,-0.9664414205417807,-33.84778082263189,26.213952831878604,-1.9289806972035628,tremor
195,5892934,1.489,-0.2938214294013276,0.07246690801789596,-0.9673748644893976,-33.22445661036796,23.595687887299793,-1.3405108274415287,tremor
196,5892939,1.494,-0.29323622497155266,0.07482261603447773,-0.9685233902094661,-32.58902683342144,21.048154833660156,-0.7824025027263456,tremor
197,5892944,1.499,-0.2926056116050326,0.0772509432883603,-0.9698606545509824,-31.9458998300522,18.583228911553753,-0.2565784089127998,tremor
198,5892953,1.508,-0.29193900739613116,0.07973258155637428,-0.9713598288664869,-31.299472216488304,16.21132636760823,0.23553593834066583,tremor
199,5892963,1.518,-0.29124483500626996,0.08224823627315475,-0.972993968538819,-30.654081218191894,13.941390171415168,0.6929949504535581,tremor
200,5892973,1.528,-0.29053057519161773,0.08477886520134865,-0.9747363596814002,-30.0139570324057,11.780887982201685,1.1153113168426814,tremor
201,5892978,1.533,-0.28980283106179694,0.08730590549717675,-0.9765608417445193,-29.38317566134606,9.735822334968061,1.5024301470333528,tremor
202,5892983,1.538,-0.28906740017305843,0.08981148759624091,-0.9784421052395633,-28.765612914120705,7.810753419742003,1.8546990983686116,tremor
203,5892987,1.542,-0.2883293525030484,0.09227863415552016,-0.9803559638028878,-28.164900493959433,6.00883506450578,2.1728347327320785,tremor
204,5893002,1.557,-0.2875931131766187,0.09469144200456389,-0.9822795994626972,-27.584385221984387,4.331864500800452,2.4578854431103094,tremor
205,5893012,1.567,-0.28686254929143923,0.09703524479486512,-0.9841917794342133,-27.027092476062677,2.7803461592166063,2.711191422444209,tremor
206,5893038,1.593,-0.2861410601542709,0.09929675391741279,-0.9860730422852904,-26.495694829520804,1.353569136630115,2.934342295661532,tremor
207,5893048,1.603,-0.28543166958388916,0.10146417540474037,-0.9879058511206518,-25.992486654240018,0.049697182497331904,3.1291331800318343,tremor
208,5893053,1.608,-0.28473711773733623,0.10352730101141444,-0.9896747116871668,-25.51936513496382,-1.134130759504376,3.297520050734134,tremor
209,5893058,1.613,-0.2840599484965544,0.10547757243527653,-0.9913662540113942,-25.077817805524266,-2.2016920165506235,3.4415753384836543,tremor
210,5893063,1.618,-0.2834025872892491,0.10730811855824669,-0.992969277194295,-24.668916454063567,-3.1575664549229994,3.5634446614970647,tremor
211,5893068,1.623,-0.28276740370506886,0.10901376647505599,-0.9944747580897783,-24.29331709835157,-4.007020239238945,3.665305508948017,tremor
212,5893073,1.628,-0.28215675356908576,0.11059102780519878,-0.9958758256000361,-23.95126569132896,-4.755889450664035,3.749328577272741,tremor
213,5893078,1.633,-0.2815729962122031,0.1120380622745479,-0.9971677031198406,-23.64260924381433,-5.410465524335832,3.817642340870073,tremor
214,5893087,1.642,-0.28101848439254645,0.11335462078413029,-0.9983476222026548,-23.366812113197486,-5.977384039072626,3.872301328864805,tremor
215,5893092,1.647,-0.280495526486993,0.1145419701628358,-0.9994147107941357,-23.122977279838796,-6.463517981458726,3.9152584822854815,tremor
216,5893106,1.661,-0.2800063229702252,0.11560280156416237,-1.0003698594075665,-22.90987249602065,-6.875876239749955,3.94834187734858,tremor
217,5893116,1.671,-0.2795528815858203,0.11654112407835292,-1.0012155684532964,-22.725961226759782,-7.221507789658567,3.9732360151897352,tremor
218,5893121,1.676,-0.2791369177320597,0.11736214468084541,-1.0019557796555765,-22.569438292228668,-7.50741183742997,3.9914677928810036,tremor
219,5893126,1.681,-0.2787597481970511,0.11807213523235359,-1.0025956941849705,-22.438270058300763,-7.740454091047894,4.004397183372547,tremor
