sample,t_ms,t_s,ax,ay,az,gx,gy,gz,tremor
0,6081366,0.0,-0.5825033749076296,-0.0035187460014403866,-0.915436515603506,-4.6656414519536735,31.311377020617805,-6.8462289552695115,tremor
1,6081375,0.009,-0.5863829584165909,-0.0035841807625613866,-0.919580250718695,-0.991986867862776,27.141528062918322,-9.08205342391538,tremor
2,6081395,0.029,-0.5915843224925609,-0.003758242355755357,-0.925150765595071,2.7546467889063413,22.98452128064266,-11.390543120864619,tremor
3,6081410,0.044,-0.59812006847614,-0.004106851571712272,-0.9321631645206203,6.563696218165793,18.86378933738306,-13.769381436638875,tremor
4,6081424,0.058,-0.6057328524426562,-0.00469568975669443,-0.9403376228124379,10.424070930881133,14.802142172199828,-16.21564179690102,tremor
5,6081429,0.063,-0.61404242520915,-0.005581189183317543,-0.9492560682475986,14.324197008210266,10.82150910875382,-18.72575203188481,tremor
6,6081456,0.09,-0.6226680846716998,-0.00680881231265912,-0.9584949111509006,18.252063412704935,6.942694926700599,-21.295464643859336,tremor
7,6081466,0.1,-0.6312872531886893,-0.008415023150094443,-0.9676899932336124,22.19527058386212,3.1851544984942914,-23.91983400432185,tremor
8,6081471,0.105,-0.6396485172783071,-0.01043000224556575,-0.9765524222411133,26.141080921743725,-0.4332092657957005,-26.59320143538907,tremor
9,6081485,0.119,-0.6475632505659588,-0.012879788002039552,-0.9848609018340517,30.076470693271308,-3.8962196508454965,-29.309188999310404,tremor
10,6081490,0.124,-0.6548911989948139,-0.01578759513847672,-0.9924471245517673,33.98818291469067,-7.189568704701024,-32.060702636341105,tremor
11,6081500,0.134,-0.6615269954953203,-0.019174476281451143,-0.9991818420945159,37.86278085999182,-10.30092535002727,-34.839945067341525,tremor
12,6081505,0.139,-0.6673897430025376,-0.023059561285973054,-1.0049640202425347,41.686701988022705,-13.220007502689414,-37.63843863545316,tremor
13,6081509,0.143,-0.6724157070655322,-0.027460059734580673,-1.009713194184535,45.44631224305016,-15.938617972991503,-40.44705802125385,tremor
14,6081519,0.153,-0.6765534920787215,-0.03239114717280173,-1.0133643941152706,49.127960844708134,-18.450645167309887,-43.256072539690756,tremor
15,6081524,0.158,-0.6797610057084448,-0.03786580562219125,-1.0158649191595164,52.718035827334404,-20.752030690638026,-46.05519752203644,tremor
16,6081529,0.163,-0.6820036394769641,-0.04389465664491769,-1.0171723615678732,56.2030207014704,-22.84070680062425,-48.8336541116808,tremor
17,6081534,0.168,-0.6832532459164259,-0.05048580621664826,-1.0172534430866607,59.5695526778253,-24.71650722753383,-51.58023667057712,tremor
18,6081539,0.173,-0.6834876210686989,-0.057644710088390706,-1.0160833617984726,62.80448289906658,-26.381055135410303,-54.283386908873695,tremor
19,6081548,0.182,-0.6826902958603895,-0.06537406271990642,-1.0136454488466906,65.89493904732548,-27.837631990778068,-56.93127380426925,tremor
20,6081553,0.187,-0.6808505057228226,-0.07367371008134047,-1.0099310045522583,68.82839051868082,-29.091030891597352,-59.511878348823636,tremor
21,6081589,0.223,-0.6779632522974812,-0.08254058538572477,-1.0049392302141835,71.59271607633211,-30.147397559808613,-62.01308212901892,tremor
22,6081603,0.237,-0.6740294008049332,-0.09196866642961338,-0.9986772023313921,74.17627353555906,-31.014061799284306,-64.4227587013264,tremor
23,6081608,0.242,-0.6690557765216236,-0.10194895328613697,-0.9911598553759682,76.56797066501575,-31.699361901422357,-66.72886667585479,tremor
24,6081613,0.247,-0.6630552370265365,-0.11246946536537851,-0.9824099513269583,78.75733621338563,-32.21246440142924,-68.91954337632502,tremor
25,6081618,0.252,-0.656046705508432,-0.12351525715289978,-0.9724580215476331,80.73458986459458,-32.56318182071329,-70.98319791108548,tremor
26,6081622,0.256,-0.6480551558627812,-0.13506845213803761,-0.9613422710773786,82.49070998647082,-32.76179148819854,-72.90860246269455,tremor
27,6081632,0.266,-0.6391115436038913,-0.1471082944934231,-0.9491084382525122,84.01749820487007,-32.81885903878523,-74.68498057749989,tremor
28,6081647,0.281,-0.6292526785790148,-0.15961121796714303,-0.9358096045670521,85.30764004288714,-32.74507057809785,-76.30209121760824,tremor
29,6081657,0.291,-0.618521036715694,-0.1725509312395168,-0.9215059513183198,86.35476106754462,-32.55107764881869,-77.75030734831749,tremor
30,6081661,0.295,-0.6069645090706441,-0.18589851874667554,-0.9062644611234976,87.15347814343373,-32.24735891128912,-79.02068790886369,tremor
31,6081666,0.3,-0.5946360877340968,-0.19962255576971563,-0.8901585639593398,87.69944546049115,-31.844101772763075,-80.10504218045097,tremor
32,6081714,0.348,-0.5815934900356149,-0.21368923650878735,-0.8732677289707607,87.98939495462722,-31.351106088846784,-80.9959858204224,tremor
33,6081719,0.353,-0.5678987251124293,-0.2280625139405501,-0.8556770048297189,88.02117059116054,-30.777710680349582,-81.6869881398238,tremor
34,6081724,0.358,-0.5536176099708178,-0.2427042504700774,-0.8374765127405756,87.7937557955572,-30.13274202138275,-82.17241051587943,tremor
35,6081729,0.363,-0.5388192450757204,-0.2575743786632224,-0.8187608970744039,87.30729317872307,-29.424483326188902,-82.44753611269549,tremor
36,6081738,0.372,-0.5235754615818549,-0.2726310715978537,-0.7996287389305753,86.56309567617727,-28.66066154290009,-82.50859131195766,tremor
37,6081743,0.377,-0.5079602532314024,-0.2878309225367207,-0.7801819377130792,85.56364831350574,-27.84844943662068,-82.352759424179,tremor
38,6081748,0.382,-0.49204920575707684,-0.30312913367064426,-0.7605250653045085,84.31260000333157,-26.99447990978134,-81.97818736043324,tremor
39,6081753,0.387,-0.4759189356265721,-0.3184797136109824,-0.740764696932755,82.81474504695677,-26.104869880579855,-81.38398599550737,tremor
40,6081782,0.416,-0.4596465484367971,-0.33383568315073897,-0.7210087226199001,81.07599433659328,-25.18525137415717,-80.57022494924216,tremor
41,6081786,0.42,-0.44330912544292544,-0.34914928860547445,-0.7013656433314118,79.10333661019688,-24.240807934660367,-79.53792246283786,tremor
42,6081801,0.435,-0.4269832447598677,-0.3643722218447962,-0.6819438566256734,76.9047904758462,-23.27631498459133,-78.28903096646302,tremor
43,6081853,0.487,-0.41074454184480974,-0.37945584600067456,-0.662850937636129,74.489348265655,-22.296183265646007,-76.82641884157108,tremor
44,6081868,0.502,-0.394667312108732,-0.3943514258463849,-0.6441929223864737,71.86691304590353,-21.304504880483957,-75.1538487925746,tremor
45,6081882,0.516,-0.37882415708117667,-0.40901036199595964,-0.626073601411732,69.04823021103556,-20.305101568971107,-73.27595317200002,tremor
46,6081887,0.521,-0.36328567458624184,-0.42338442834583223,-0.6085938320242891,66.04481495213395,-19.301574594926077,-71.19820656425956,tremor
47,6081892,0.526,-0.3481201928365273,-0.4374260124867527,-0.5918508769927101,62.868876556566796,-18.297355067399828,-68.92689593476449,tremor
48,6081897,0.531,-0.3333935479978452,-0.4510883590340107,-0.5759377758369071,59.53324012282506,-17.29575292084043,-66.46908868588079,tremor
49,6081911,0.545,-0.3191689043707242,-0.46432581583232546,-0.560942752651404,56.05126601160373,-16.30000236399376,-63.83259900249005,tremor
50,6081921,0.555,-0.3055066157387222,-0.47709408271227377,-0.5469486618113996,52.43676724332704,-15.313301462847166,-61.02595288668013,tremor
51,6081926,0.56,-0.2924641256383368,-0.4893504619126006,-0.5340324706159651,48.703925063656285,-14.338843634304396,-58.058352251732344,tremor
52,6081958,0.592,-0.2800959033574765,-0.5010541085219312,-0.5222647763715674,44.867202999236596,-13.379839173679787,-54.9396383600999,tremor
53,6081963,0.597,-0.26845341143572177,-0.5121662784754298,-0.511709354965939,40.94125989303084,-12.439525489861577,-51.680254753344165,tremor
54,6081968,0.602,-0.2575850994291773,-0.522650570925319,-0.5024227386986444,36.94086260798267,-11.521165388962546,-48.29120965757914,tremor
55,6081973,0.607,-0.24753641788375944,-0.5324731613174097,-0.4944538227849022,32.88079927115569,-10.62803339663114,-44.78403768966489,tremor
56,6081997,0.631,-0.23834984601088355,-0.5416030213084296,-0.48784350211386357,28.77579405488451,-9.763390637152296,-41.17076056417195,tremor
57,6082002,0.636,-0.2300649265792889,-0.5500121217338858,-0.48262434208122573,24.6404245296704,-8.93044917277341,-37.463846418358365,tremor
58,6082012,0.646,-0.22271830200383588,-0.5576756151234168,-0.47882028924388775,20.489042554471155,-8.132326989954047,-33.67616732429106,tremor
59,6082017,0.651,-0.2163437463937771,-0.564571994700859,-0.4764464288405622,16.33569948404132,-7.371995060291274,-29.82095452987864,tremor
60,6082036,0.67,-0.21097218921390448,-0.570683227354553,-0.47550879666717244,12.194076205952074,-6.652218167070914,-25.911750960395647,tremor
61,6082041,0.675,-0.20663172698911522,-0.5759948586728313,-0.47600425234370036,8.07741826150942,-5.975491525469425,-21.962360530195216,tremor
62,6082046,0.68,-0.20334761998262274,-0.5804960887482401,-0.4779204198213534,3.9984761490857887,-5.343975635343635,-17.98679386854642,tremor
63,6082098,0.732,-0.20114227096378862,-0.5841798179937803,-0.48123569938222654,-0.03054910094007056,-4.759432227907429,-13.99921014204697,tremor
64,6082103,0.737,-0.2000351831629454,-0.5870426626385399,-0.48591935377971407,-3.9980548722956946,-4.223164505618023,-10.01385473908261,tremor
65,6082108,0.742,-0.2000428945122069,-0.5890849398794463,-0.49193166993227055,-7.893080041115144,-3.7359650097350556,-6.044992666007609,tremor
66,6082123,0.757,-0.20117888556528563,-0.5903106229091494,-0.49922419696182385,-11.70534163563716,-3.2980742529532416,-2.1068376081889175,tremor
67,6082127,0.761,-0.20345345930079417,-0.5907272662836612,-0.5077400613727536,-15.425264458353203,-2.9091526646878547,1.7865232460437952,tremor
68,6082137,0.771,-0.2068735924435611,-0.5903459023911827,-0.5174143605292627,-19.04400312899308,-2.5682674906886347,5.621208327760275,tremor
69,6082142,0.776,-0.21144275995227282,-0.5891809101708875,-0.5281746358545577,-22.553456257898944,-2.2738952265571353,9.383624240877268,tremor
70,6082161,0.795,-0.21716073677043535,-0.5872498577298524,-0.5399414269011308,-25.946272876160396,-2.0239390928217675,13.060551004326,tremor
71,6082171,0.805,-0.22402338355959545,-0.5845733211202122,-0.5526289063503947,-29.21585176600452,-1.81576009677105,16.63922903515838,tremor
72,6082176,0.81,-0.23202242554724883,-0.5811746822284589,-0.5661455940305409,-32.35633483552767,-1.6462194990155161,20.10744675102403,tremor
73,6082203,0.837,-0.24114523537896598,-0.5770799094053926,-0.5803951453375562,-35.362596040007666,-1.5117301251623299,23.45362752837376,tremor
74,6082208,0.842,-0.2513746316091482,-0.5723173250135024,-0.5952772063387157,-38.23022748599742,-1.4083139656951915,26.66691464390859,tremor
75,6082212,0.846,-0.2626887041180061,-0.5669173643975427,-0.6106883248243624,-40.95552425133128,-1.3316637928906812,29.737252760387246,tremor
76,6082251,0.885,-0.27506067654662075,-0.5609123308666273,-0.6265229042000237,-43.53546915665009,-1.2772069076708146,32.65546450592382,tremor
77,6082331,0.965,-0.2884588142253573,-0.5543361511583179,-0.6426741857478374,-45.96771831693476,-1.2401694267945211,35.413320739546016,tremor
78,6082336,0.97,-0.30284638444226775,-0.547224135626481,-0.6590352444106028,-48.25058790714107,-1.2156396321589256,38.00360318190284,tremor
79,6082341,0.975,-0.3181816744621025,-0.5396127471112444,-0.675499983494764,-50.383042301517385,-1.1986288946612416,40.42015821337739,tremor
80,6082346,0.98,-0.33441807136371426,-0.5315393820626728,-0.6919641141589229,-52.364683598580356,-1.1841287783897796,42.65794082320442,tremor
81,6082351,0.985,-0.35150420622463685,-0.5230421668827907,-0.7083261061025753,-54.19574243124819,-1.1671633229725757,44.7130479528701,tremor
82,6082356,0.99,-0.369384163248408,-0.5141597715613381,-0.7244880965580446,-55.87706979663786,-1.1428361690757354,46.58274079540707,tremor
83,6082361,0.995,-0.38799775215292426,-0.5049312415662498,-0.7403567456120328,-57.410129408603495,-1.1063729360083459,48.265455935651346,tremor
84,6082371,1.005,-0.40728083973161205,-0.4953958477384969,-0.7558440270729471,-58.79698981524197,-1.0531598938236444,49.76080549620404,tremor
85,6082376,1.01,-0.42716573421107024,-0.4855929527634744,-0.7708679455316241,-60.04031528135469,-0.9787803970242233,51.069566664533504,tremor
86,6082381,1.015,-0.44758161410352276,-0.4755618917582392,-0.7853531718830541,-61.143354262752226,-0.8790507159954154,52.19366111079278,tremor
87,6082391,1.025,-0.4684549919333039,-0.4653418637176081,-0.7992315913143955,-62.10992424670482,-0.7500567932316251,53.1361248671767,tremor
88,6082396,1.03,-0.48971020270365156,-0.45497183007192843,-0.8124427595327415,-62.94439183797571,-0.5881930828703785,53.90106924331877,tremor
89,6082405,1.039,-0.5112699073529916,-0.4444904164660711,-0.8249342646971015,-63.65164723876034,-0.39020407446731836,54.49363332316548,tremor
90,6082410,1.044,-0.5330556026733756,-0.4339358140859306,-0.8366619940023937,-64.23707267342404,-0.15322845506346644,54.91992855244665,tremor
91,6082462,1.096,-0.554988131022916,-0.42334567741894474,-0.8475903050019388,-64.70650478329482,0.12515477373041028,55.18697590050397,tremor
92,6082472,1.106,-0.576988185302964,-0.41275701617331667,-0.8576921024665637,-65.06619147384254,0.446879438438578,55.3026360778852,tremor
93,6082487,1.121,-0.5989768066164076,-0.4022060800551721,-0.8669488219360922,-65.32274403064551,0.8133461367748127,55.27553332315976,tremor
94,6082491,1.125,-0.6208758733313361,-0.39172823601349344,-0.8753503213953774,-65.4830854485225,1.2253785840718268,55.11497334545508,tremor
95,6082496,1.13,-0.6426085807603008,-0.38135783824515873,-0.8828946830500918,-65.55439583935326,1.683183832308372,54.83085610934707,tremor
96,6082516,1.15,-0.6640999105198543,-0.37112809167638355,-0.8895879281913424,-65.54405559162433,2.186317687157928,54.43358423805071,tremor
97,6082521,1.155,-0.6852770882701344,-0.3610709098977294,-0.8954436495719229,-65.45958677107906,2.733656666358263,53.93396785224784,tremor
98,6082540,1.174,-0.7060700283167033,-0.35121676875645796,-0.9004825673186835,-65.30859316381121,3.323378056831062,53.34312664740091,tremor
99,6082545,1.179,-0.7264117636527054,-0.34159455709307407,-0.904732015834462,-65.09869940638107,3.9529499369199175,52.67238996415313,tremor
100,6082592,1.226,-0.7462388603603314,-0.33223142648194226,-0.9082253700745482,-64.83748980134114,4.619133268222366,51.933195556576095,tremor
101,6082602,1.236,-0.7654918156061794,-0.3231526422717384,-0.9110014198252007,-64.5324476005676,5.317998171764677,51.13698773737746,tremor
102,6082606,1.24,-0.7841154384229829,-0.3143814386314439,-0.913103700235956,-64.19089565281475,6.044956209954656,50.29511559338244,tremor
103,6082611,1.245,-0.8020592118912252,-0.30593888056933277,-0.9145797862274679,-63.81993930403298,6.7948099515607225,49.418732023546994,tremor
104,6082616,1.25,-0.8192776343093886,-0.29784373591748103,-0.9154805579923114,-63.42641233470281,7.561820451023994,48.51869444298888,tremor
105,6082631,1.265,-0.8357305357556516,-0.29011236006534796,-0.915859444946436,-63.016826583386866,8.339792673181783,47.605468088249644,tremor
106,6082645,1.279,-0.8513833654095092,-0.2827585958681637,-0.9157716562023517,-62.59732578837009,9.122178398532133,46.68903291676316,tremor
107,6082650,1.284,-0.8662074443459646,-0.27579369076074667,-0.915273406728967,-62.17364409595804,9.902195700622023,45.77879510682539,tremor
108,6082660,1.294,-0.8801801783345324,-0.26922623276669255,-0.9144211495437121,-61.75106964456014,10.67296357690609,44.88350416143717,tremor
109,6082665,1.299,-0.8932852254082556,-0.2630621068617729,-0.9132708252466019,-61.334413651675085,11.427649617146807,44.01117665214266,tremor
110,6082670,1.304,-0.905512613377894,-0.2573044730473049,-0.9118771407153741,-60.92798549887825,12.159627621791378,43.169027742213835,tremor
111,6082707,1.341,-0.9168588026942015,-0.25195376750332643,-0.9102928887151293,-60.53557437837791,12.86264078396277,42.36341179195373,tremor
112,6082727,1.361,-0.9273266897654374,-0.24700772828330936,-0.9085683195401968,-60.16043804744,13.530964456556477,41.59977352965492,tremor
113,6082731,1.365,-0.93692554489385,-0.242461447097244,-0.9067505747154446,-59.80529904187648,14.159560903302642,40.88261141406929,tremor
114,6082736,1.37,-0.9456708776832984,-0.2383074486742674,-0.9048831914318736,-59.472348306473194,14.744217330539579,40.21545484307919,tremor
115,6082746,1.38,-0.9535842217944757,-0.23453579887281595,-0.9030056849806066,-59.163255735812385,15.281658497537975,39.60085669334219,tremor
116,6082751,1.385,-0.9606928311526742,-0.23113424208656336,-0.901153215110016,-58.87918679555638,15.76962649682954,39.04040227284484,tremor
117,6082775,1.409,-0.967029281791535,-0.22808836768219182,-0.8993563409720575,-58.62082433887583,16.20692255968639,38.53473519598748,tremor
118,6082794,1.428,-0.9726309776069945,-0.22538180438210348,-0.8976408680374024,-58.38839491463487,16.59340844641565,38.08360006668883,tremor
119,6082851,1.485,-0.9775395639392863,-0.22299644083137515,-0.8960277888503448,-58.18169915970958,16.92996770051705,37.685901268381144,tremor
120,6082865,1.499,-0.9818002589908017,-0.2209126701132908,-0.8945333175883389,-58.00014613410242,17.218429488399114,37.339776647623424,tremor
121,6082886,1.52,-0.9854611182185614,-0.21910965561219184,-0.8931690161232035,-57.84279157962492,17.461459691482823,37.042684456112106,tremor
122,6082896,1.53,-0.9885722500378957,-0.21756561520791934,-0.8919420069785152,-57.7083800298653,17.662425268996515,36.79150159081064,tremor
123,6082901,1.535,-0.99118500239998,-0.2162581202261399,-0.8908552666325968,-57.59539053800341,17.825238756252418,36.58263092326784,tremor
