sample,t_ms,t_s,ax,ay,az,gx,gy,gz,tremor
0,7308363,0.0,-0.5695441783815178,-0.01958290681774909,-0.8834509623532826,-2.4191340318391057,0.48561982967637557,1.368160615933896,tremor
1,7308368,0.005,-0.5694307041824012,-0.01953419626845082,-0.8832967722145731,-2.1863662899074683,-1.0331283925662715,1.6007643064020445,tremor
2,7308373,0.01,-0.5692442273566147,-0.01945567003534684,-0.883065129582972,-1.91610906682433,-2.667491896917704,1.832190133204289,tremor
3,7308378,0.015,-0.5689587361546861,-0.019337431945726,-0.8827384546918781,-1.6067336055524706,-4.416502909555434,2.0621368048479187,tremor
4,7308383,0.02,-0.5685547857444695,-0.019172558337425732,-0.8823101973364619,-1.2567586155814385,-6.278384020234716,2.290345783577349,tremor
5,7308388,0.025,-0.5680197048999317,-0.018956958819184813,-0.8817821044166972,-0.8648699646478091,-8.250518947474811,2.516604492174888,tremor
6,7308393,0.03,-0.5673454121260606,-0.018688335338076133,-0.8811600295073285,-0.42994007418355024,-10.329429567435874,2.7407493306532174,tremor
7,7308398,0.035,-0.5665262248549865,-0.018365227057403476,-0.8804509459495512,0.04895319017571404,-12.510759807513871,2.962668483798123,tremor
8,7308422,0.059,-0.5655574394342485,-0.01798642124140471,-0.8796614502538082,0.5725083495997806,-14.789266941907375,3.182304492342693,tremor
9,7308427,0.064,-0.5644346556837753,-0.017550686451001104,-0.8787972748725434,1.141183087282342,-17.158820744012008,3.3996565525518374,tremor
10,7308432,0.069,-0.5631535874821079,-0.017056705221915592,-0.8778633059588238,1.755178195481311,-19.612410849117772,3.614782500796917,tremor
11,7308437,0.074,-0.56171012832338,-0.016503105901394238,-0.8768637849529758,2.414422925778049,-22.142162562734853,3.8278004301770623,tremor
12,7308442,0.079,-0.5601005258939707,-0.015888533450917088,-0.8758025346968428,3.118561975744156,-24.739361218672375,4.038889874730047,tremor
13,7308447,0.084,-0.5583215888213447,-0.015211729041269089,-0.8746831472477088,3.8669443437417086,-27.394485050293994,4.248292484142613,tremor
14,7308451,0.088,-0.5563708906689074,-0.014471605609103346,-0.873509117443695,4.658614277997624,-30.09724639038087,4.456312100645818,tremor
15,7308456,0.093,-0.5542469580611394,-0.01366731516021631,-0.8722839253282353,5.492304536180721,-32.836640860286046,4.663314142977486,tremor
16,7308461,0.098,-0.551949439879916,-0.01279830734614024,-0.8710110763707176,6.3664321576641845,-35.601004046940204,4.869724201619993,tremor
17,7308466,0.103,-0.5494792584737118,-0.011864380174977485,-0.8696941088094172,7.279096932654616,-38.378074995537425,5.0760257544199385,tremor
18,7308476,0.113,-0.5468387449849457,-0.010865723982709232,-0.8683365760253043,8.228082730185385,-41.15506566440972,5.282756919998931,tremor
19,7308481,0.118,-0.5440317608662031,-0.00980295964392559,-0.8669420101388694,9.210861819858051,-43.91873529393708,5.490506176136551,tremor
20,7308486,0.123,-0.5410638071964522,-0.008677171737278264,-0.8655138715365832,10.224602289197156,-46.65546843151831,5.699906981606195,tremor
21,7308490,0.127,-0.5379421228605934,-0.00748993712187851,-0.8640554879005933,11.266178618371557,-49.35135513195142,5.911631254933234,tremor
22,7308495,0.132,-0.5346757721512679,-0.0062433491676723305,-0.8625699855075489,12.332185424605107,-51.99227162579273,6.126381684590191,tremor
23,7308500,0.137,-0.5312757219313519,-0.004940037723589445,-0.8610602150131085,13.418954326211361,-54.56395953277618,6.34488287282476,tremor
24,7308505,0.142,-0.5277549081618306,-0.0035831847980022607,-0.8595286735818469,14.522573797442577,-57.05210151449629,6.567871348428762,tremor
25,7308514,0.151,-0.5241282913405899,-0.002176535859793712,-0.8579774250052196,15.638911789785206,-59.44239113690608,6.796084521003903,tremor
26,7308519,0.156,-0.5204129001937016,-0.0007244066387421793,-0.8564080193351558,16.763640786741448,-61.72059468084594,7.0302486907583335,tremor
27,7308547,0.184,-0.5166278627847777,0.0007683146941122368,-0.8548214135243569,17.89226484575281,-63.87260273834823,7.2710662753130215,tremor
28,7308552,0.189,-0.5127944240182797,0.002296170058230325,-0.8532178945973338,19.020148078259368,-65.88446971890697,7.519202470595487,tremor
29,7308557,0.194,-0.5089359482472758,0.0038531387599987687,-0.8515970069826736,20.142543953629325,-67.74243993161859,7.775271626397285,tremor
30,7308562,0.199,-0.5050779052824399,0.005432649576713026,-0.8499574858267865,21.254624815535973,-69.4329597578128,8.039823683209967,tremor
31,7308567,0.204,-0.5012478374879027,0.007027597656242147,-0.8482971983820056,22.35151108364677,-70.9426765665695,8.313331076463312,tremor
32,7308572,0.209,-0.497475304850378,0.008630366316224778,-0.84661309589194,23.42829976266635,-72.25842634731313,8.596176559532251,tremor
33,7308577,0.214,-0.4937918039925832,0.010232853933558527,-0.8449011787341527,24.48009206226911,-73.36721339777628,8.888642424691401,tremor
34,7308581,0.218,-0.49023065617759776,0.011826506261920316,-0.8431564778640381,25.502020118968463,-74.25618669330038,9.190901611927229,tremor
35,7308586,0.223,-0.4868268585307708,0.01340235468412835,-0.8413730557788068,26.48927299190715,-74.9126186888032,9.503011190553396,tremor
36,7308591,0.228,-0.4836168920947514,0.014951061075378178,-0.839544030243493,27.43712227487075,-75.32389319288086,9.824908678864931,tremor
37,7308596,0.233,-0.4806384800260721,0.016462970098741314,-0.8376616238619073,28.340947824644118,-75.47750952247593,10.156411632278711,tremor
38,7308601,0.238,-0.4779302893282634,0.01792816985153823,-0.8357172422176787,29.19626424658665,-75.36111030175249,10.497220878500702,tremor
39,7308606,0.243,-0.4755315700855528,0.019336561806433665,-0.8337015827506509,29.998748890886553,-74.96253991830365,10.846927705537134,tremor
40,7308621,0.258,-0.47348172730722854,0.02067794092061943,-0.8316047757815072,30.744272178397477,-74.26993973865903,11.205025208363153,tremor
41,7308630,0.267,-0.4718198223334568,0.021942086598503024,-0.8294165581730139,31.428931067224116,-73.27188471053752,11.570923861043905,tremor
42,7308635,0.272,-0.4705840034470764,0.023118864873289836,-0.8271264790473811,32.04908635778929,-71.95756396915098,11.943971188181347,tremor
43,7308640,0.277,-0.469810869050709,0.024198341717357977,-0.8247241357953535,32.60140428175773,-70.31700557231079,12.323475158037446,tremor
44,7308672,0.309,-0.46953477156713114,0.02517090680951354,-0.8221994373394852,33.082902414787476,-68.34134263980918,12.70873063151352,tremor
45,7308677,0.314,-0.4697870758862397,0.02602740640409918,-0.8195428902754613,33.49099942712213,-66.02311521447724,13.099047924855695,tremor
46,7308682,0.319,-0.4705953920759851,0.026759283210009845,-0.8167459021467169,33.823567629845336,-63.35659945681013,13.493782333584907,tremor
47,7308686,0.323,-0.4719828072067192,0.02735872046657848,-0.8138010947719144,34.0789868060023,-60.33815370042437,13.892363354815577,tremor
48,7308691,0.328,-0.47396714454807676,0.027818786773757726,-0.8107026193332776,34.25619751554764,-56.96656962622375,14.294322335861986,tremor
49,7308696,0.333,-0.4765602795927791,0.028133577755655555,-0.8074464639475575,34.354751934693795,-53.24341629111999,14.69931734516413,tremor
50,7308701,0.338,-0.47976754141162054,0.028298350342771873,-0.8040307437690559,34.37486028594784,-49.17336476568418,15.107154181820004,tremor
51,7308706,0.343,-0.483587225134104,0.02830964536175717,-0.8004559633786197,34.317430988395934,-44.76448152942152,15.517802599960694,tremor
52,7308710,0.347,-0.4880102373319444,0.02816539422245324,-0.7967252413297935,34.18410278489167,-40.028479469744745,15.931407019078966,tremor
53,7308715,0.352,-0.49301989117599193,0.02786500578291961,-0.7928444872659988,33.97726727517933,-34.98091630473542,16.348291213222073,tremor
54,7308720,0.357,-0.4985918628052997,0.027409429939768252,-0.7888225229827429,33.70008049857975,-29.64133148455309,16.768956706302667,tremor
55,7308725,0.362,-0.5046943146973663,0.026801195112009776,-0.7846711401586537,33.35646246477265,-24.03331410502809,17.194074831188065,tremor
56,7308730,0.367,-0.5112881862132674,0.02604441753350315,-0.7804050891712583,32.95108382312823,-18.184496063871677,17.62447262459514,tremor
57,7308735,0.372,-0.5183276461121867,0.02514478110783681,-0.7760419953821596,32.48933918394761,-12.126466568555394,18.061112924018644,tremor
58,7308739,0.376,-0.5257606968444357,0.02410948747129178,-0.7716022014402938,31.97730695040783,-5.894606126310903,18.505069209107287,tremor
59,7308744,0.381,-0.5335299159624144,0.022947176813365985,-0.7671085364203012,31.421695878287053,0.4721597208078957,18.95749589216475,tremor
60,7308749,0.386,-0.5415733161252596,0.02166782088085805,-0.7625860148933964,30.829778942052343,6.931684431074333,19.41959491370391,tremor
61,7308759,0.396,-0.5498253019672777,0.020282590407560374,-0.7580614712339107,30.209315442479745,13.438997487618334,19.89257963968539,tremor
62,7308764,0.401,-0.558217699561145,0.018803699941556,-0.7535631365168964,29.568462637429285,19.946767276106087,20.37763718450273,tremor
63,7308769,0.406,-0.5666808323095159,0.017244233665655695,-0.7491201671863564,28.91567851234474,26.40582029038414,20.87589039137312,tremor
64,7308802,0.439,-0.5751446158075658,0.01561795630686345,-0.7447621361985308,28.259617631898983,32.765704777134125,21.388360779104982,tremor
65,7308807,0.444,-0.5835396435216035,0.013939113595300201,-0.740518498506335,27.60902232651732,38.975284753930495,21.915933796220735,tremor
66,7308812,0.449,-0.5917982350904792,0.012222226953373766,-0.7364180434970375,26.972611748206777,44.983348707434885,22.45932768808198,tremor
67,7308817,0.454,-0.5998554198513899,0.010481887167549962,-0.7324883472918158,26.35897153831756,50.73921668935884,23.019067154220952,tremor
68,7308826,0.463,-0.6076498300346428,0.00873255172064653,-0.7287552376669465,25.776446940450526,56.19333025806954,23.595462738058536,tremor
69,7308831,0.468,-0.6151244810926312,0.006988350255756592,-0.7252422838168633,25.233042140292905,61.29781158189777,24.188596563645007,tremor
70,7308836,0.473,-0.622227420820037,0.0052629023220691195,-0.7219703223332902,24.73632841910625,66.00698055214484,24.798314651328294,tremor
71,7308841,0.478,-0.6289122341775449,0.0035691511317953025,-0.7189570296950769,24.29336337462171,70.2778215388643,25.424225649290012,tremor
72,7308846,0.483,-0.6351383968650696,0.0019192165457122133,-0.716216550291596,23.910623000793066,74.07039425727032,26.065705446846955,tremor
73,7308855,0.492,-0.640871477425704,0.00032426991308836866,-0.7137591875557634,23.59394784529508,77.34818602440541,26.721906816662624,tremor
74,7308860,0.497,-0.6460831946227629,-0.001205567269586312,-0.7115911641676591,23.34850381318065,80.07840541975976,27.391772991461256,tremor
75,7308865,0.502,-0.650751343559269,-0.0026612996413596973,-0.7097144555118007,23.178757499696133,82.23221991209736,28.074053937468047,tremor
76,7308870,0.507,-0.6548596099945706,-0.00403510874574965,-0.7081266986432879,23.0884652649387,83.78494221410793,28.76732404905064,tremor
77,7308875,0.512,-0.6583972970819822,-0.005320378666854572,-0.7068211769730002,23.080674656379365,84.71617182547237,29.470000042561477,tremor
78,7308880,0.517,-0.6613589919512461,-0.00651169778455905,-0.7057868787813083,23.157736279145766,85.00989934867341,30.180357942568826,tremor
79,7308885,0.522,-0.663744200981845,-0.0076048387772554215,-0.70500862560137,23.32132383165852,84.65458170178478,30.89654820264135,tremor
80,7308889,0.526,-0.665556982161928,-0.008596719843186029,-0.7044672645801128,23.5724597798081,83.64319631997286,31.616608171117054,tremor
81,7308917,0.554,-0.6668056006071139,-0.00948535087287653,-0.7041399172373409,23.911544043847396,81.97328184527711,32.33847129901526,tremor
82,7308922,0.559,-0.667502229258444,-0.010269768925443202,-0.7040002757253508,24.338383123248423,79.64697166647811,33.05997269875714,tremor
83,7308926,0.563,-0.667662711289597,-0.010949967756832456,-0.7040189368984493,24.85221729433213,76.67102500189858,33.778850902175634,tremor
84,7308931,0.568,-0.6673063942915817,-0.011526826215872919,-0.7041637643984539,25.45174388910016,73.05685806391347,34.492745926467975,tremor
85,7308936,0.573,-0.6664560394166475,-0.012002039990672904,-0.7044002696320615,26.135135179855133,68.82057534881858,35.19919401895652,tremor
86,7308941,0.578,-0.6651378018677231,-0.01237806046165314,-0.7046920038754931,26.900049995797026,63.98299851222757,35.895619697977736,tremor
87,7308946,0.583,-0.6633812728164318,-0.012658043390597052,-0.7050009555577126,27.74363882031425,58.569687891767586,36.57932592874053,tremor
88,7308950,0.587,-0.6612195673076579,-0.012845808979800578,-0.7052879487584857,28.662542719358335,52.610949730372646,37.247483466381404,tremor
89,7308955,0.592,-0.6586894381759,-0.012945813602642228,-0.7055130408516646,29.652887011772386,46.141820660802864,37.89712055872792,tremor
90,7308960,0.597,-0.6558313926295531,-0.012963132346277245,-0.7056359188305082,30.710271095641037,39.2020201092574,38.52511431703,tremor
91,7308965,0.602,-0.6526897860769445,-0.012903450499762489,-0.7056162950478323,31.82975627127643,31.835860997264646,39.128185116722186,tremor
92,7308970,0.607,-0.6493128670330743,-0.012773061319927878,-0.7054143038361959,33.005853731794055,24.09210946210708,39.70289536332803,tremor
93,7308975,0.612,-0.6457527475646382,-0.012578866843225667,-0.7049909007422686,34.23251510993479,16.023785239001132,40.24565383787287,tremor
94,7308980,0.617,-0.6420652756775445,-0.012328378196683544,-0.7043082659509601,35.50312806108585,7.6878957888742985,40.752726621840196,tremor
95,7308984,0.621,-0.6383097892792642,-0.01202971179089753,-0.7033302129484245,36.81051931554222,-0.8549008690081215,41.220255311124426,tremor
96,7308989,0.626,-0.6345487357823767,-0.011691577935085306,-0.7020226026526962,38.1469674416966,-9.54070744463417,41.64428289257255,tremor
97,7308994,0.631,-0.6308471469369112,-0.011323258770983176,-0.7003537622071487,39.50422723125066,-18.302873155329724,42.02078730983339,tremor
98,7308999,0.636,-0.6272719649146872,-0.010934572945354385,-0.698294906466038,40.87356716485609,-27.072551772015313,42.345722414010865,tremor
99,7309003,0.64,-0.6238912227835379,-0.010535825094729149,-0.6958205589782599,42.24582086404583,-35.779327073710235,42.615065693337534,tremor
100,7309009,0.646,-0.6207730900002848,-0.01013773896690107,-0.6929089680582377,43.61145280320545,-44.35189824784215,42.824871908949355,tremor
101,7309014,0.651,-0.6179848010569455,-0.009751373822050428,-0.6895425123677213,44.96063786105966,-52.71881527659706,42.971331530527145,tremor
102,7309040,0.677,-0.6155914925394241,-0.00938802461751938,-0.685708089349695,46.28335355568504,-60.80925203058465,43.05083266658422,tremor
103,7309045,0.682,-0.6136549801682898,-0.00905910735964668,-0.6813974788852952,47.569483073178844,-68.55380277109543,43.06002502530048,tremor
104,7309050,0.687,-0.6122325123574028,-0.008776031866831856,-0.6766076737433807,48.8089265534199,-75.88528626454905,42.99588433655875,tremor
105,7309055,0.692,-0.6113755398426416,-0.00855006497233742,-0.6713411678584091,49.99171764795267,-82.73954101318782,42.85577563105383,tremor
106,7309060,0.697,-0.6111285415544171,-0.00839218783496293,-0.6656061933164106,51.108142182875795,-89.05619534320739,42.637513815645136,tremor
107,7309065,0.702,-0.6115279451169243,-0.008312951465205963,-0.6594168972222498,52.148855822763885,-94.77939714580857,42.33942009553305,tremor
108,7309070,0.707,-0.6126011765550585,-0.008322334783936779,-0.6527934503730891,53.104997865964364,-99.8584896687734,41.96037295175453,tremor
109,7309074,0.711,-0.6143658685421778,-0.00842960950090048,-0.6457620808372048,53.96829864121622,-104.24862166890227,41.49985256546009,tremor
110,7309079,0.716,-0.6168292503494832,-0.008643215835441266,-0.6383550270748632,54.731178380602955,-107.91128231270154,40.95797777222317,tremor
111,7309084,0.721,-0.6199877359872102,-0.008970652616635193,-0.6306104070624632,55.38683588748666,-110.8147533605477,40.33553481843111,tremor
112,7309089,0.726,-0.623826720212418,-0.009418384622174897,-0.6225720018992668,55.92932577628339,-112.93447331239415,39.63399736937299,tremor
113,7309094,0.731,-0.6283205854116937,-0.009991769186818855,-0.6142889544816617,56.353623509480094,-114.2533102640226,38.85553738081256,tremor
114,7309099,0.736,-0.6334329160832849,-0.01069500318722349,-0.6058153859122064,56.65567787156761,-114.76174216515413,38.0030265935691,tremor
115,7309108,0.745,-0.6391169119204057,-0.011531090554948715,-0.5972099342624231,56.832450877559985,-114.45794493768895,37.08002855005607,tremor
116,7309113,0.75,-0.6453159854776355,-0.012501829553025619,-0.5885352220296428,56.881945399005275,-113.34779046013685,36.09078117098681,tremor
117,7309118,0.755,-0.6519645262153028,-0.013607818247187337,-0.5798572600275985,56.803220992680856,-111.44475770614427,35.04017007385403,tremor
118,7309123,0.76,-0.658988809486759,-0.014848475984131259,-0.5712447964511543,56.59639853427599,-108.76976130278825,33.933692959406855,tremor
119,7309128,0.765,-0.6663080268529589,-0.01622207831651435,-0.5627686204163668,56.26265430037585,-105.35090244270698,32.77741553091872,tremor
120,7309133,0.77,-0.6738354130029449,-0.017725802718792264,-0.5545008294139592,55.804204125697076,-101.22314747745651,31.57791953792786,tremor
121,7309137,0.774,-0.6814794444782277,-0.01935578261343743,-0.5465140699012857,55.22427820824448,-96.4279396912753,30.342243650680597,tremor
122,7309164,0.801,-0.6891450862390283,-0.021107167634226508,-0.538880759807362,54.52708705592891,-91.01274975704511,29.077817977069326,tremor
123,7309169,0.806,-0.6967350637258679,-0.022974188623667638,-0.5316723011689591,53.7177789717443,-85.03057026217998,27.792393133917578,tremor
124,7309174,0.811,-0.7041511402709267,-0.024950226495286172,-0.5249582905942134,52.802389367897796,-78.53935952902333,26.493964877441833,tremor
125,7309179,0.816,-0.711295382260831,-0.027027884665548743,-0.518805734896475,51.78778209324591,-71.6014398265098,25.190695374372115,tremor
126,7309184,0.821,-0.7180713970856047,-0.029199065166862884,-0.513278279137682,50.68158286941036,-64.28285505372857,23.890832242749852,tremor
127,7309189,0.826,-0.7243855313985806,-0.03145504874338288,-0.5084354544639856,49.49210487902747,-56.65269311315369,22.602626500854356,tremor
128,7309193,0.83,-0.7301480193973675,-0.03378657922127541,-0.5043319534291186,48.228266554810475,-48.78237849058057,21.33425053234117,tremor
129,7309198,0.835,-0.7352740726202429,-0.0361839522846591,-0.5010169408776727,46.89950169691474,-40.74494101395265,20.093717110973788,tremor
130,7309203,0.84,-0.7396849040875478,-0.038637108531006964,-0.4985334088035415,45.51566220645153,-32.6142673565808,18.88880044179885,tremor
131,7309208,0.845,-0.7433086804919536,-0.04113573037025529,-0.4969175838309784,44.08691396059597,-24.464342547680832,17.726960084389418,tremor
132,7309213,0.85,-0.7460813965736585,-0.043669342005674405,-0.496198396033249,42.62362665406254,-16.368489506988993,16.615268542557935,tremor
133,7309217,0.854,-0.747947665853776,-0.04622741141881693,-0.49639701767601435,41.136258769771935,-8.398615374784539,15.560343239384721,tremor
134,7309222,0.859,-0.7488614216165965,-0.04879945299477546,-0.4975264801336709,39.63523918992191,-0.6244741000746965,14.568283543402774,tremor
135,7309227,0.864,-0.7487865215328641,-0.051375129179812386,-0.49959137666536046,38.13084728514917,6.88704469511645,13.644613465357507,tremor
136,7309232,0.869,-0.7476972487322918,-0.0539443493691952,-0.5025876579402844,36.633093591338785,14.07259021740142,12.794230601084438,tremor
137,7309237,0.874,-0.7455787016160048,-0.05649736408658372,-0.5065025261560139,35.15160337213944,20.87297796987814,12.021361851525448,tremor
138,7309242,0.879,-0.7424270644136776,-0.059024852448528294,-0.511314432289793,33.69550544940597,27.2337601327143,11.329526398448584,tremor
139,7309251,0.888,-0.7382497506087212,-0.061518000924343196,-0.51699317946416,32.273328653542734,33.105729625150715,10.721506340438545,tremor
140,7309256,0.893,-0.7330654120623974,-0.06396857152398501,-0.5235001336191316,30.8929081009594,38.44534996903123,10.199325282757487,tremor
141,7309261,0.898,-0.7269038081718415,-0.06636895779986655,-0.5307885407206722,29.56130324914616,43.21510494033626,9.764235018062452,tremor
142,7309288,0.925,-0.7198055319069117,-0.06871222745355002,-0.5388039476893945,28.284729312753566,47.383764284093644,9.416710238378917,tremor
143,7309293,0.93,-0.7118215931854215,-0.0709921508895396,-0.5474847222098808,27.068503158211183,50.92656430953548,9.156451005963802,tremor
144,7309298,0.935,-0.7030128645855053,-0.07320321570036187,-0.5567626646722873,25.9170042655796,53.825304737139874,8.982392519124671,tremor
145,7309303,0.94,-0.6934493993380458,-0.07534062769919865,-0.566563703762439,24.83365080676404,56.0683654865707,8.892721571590943,tremor
146,7309312,0.949,-0.6832096361991064,-0.07740029964102045,-0.5768086656707775,23.8208903817821,57.65064901773347,8.884899027339948,tremor
147,7309322,0.959,-0.6723795095741739,-0.07937882914944305,-0.5874141055181709,22.88020449862998,58.573455344157125,8.95568759642612,tremor
148,7309337,0.974,-0.6610514857790339,-0.08127346761856549,-0.5982931883824217,22.012125485424843,58.844297950539136,9.101184178382598,tremor
149,7309342,0.979,-0.6493235473916429,-0.08308208203941754,-0.6093566062852159,21.216264204027343,58.47666951892327,9.31685603474471,tremor
150,7309347,0.984,-0.6372981472409136,-0.0848031118455777,-0.6205135167683853,20.491346725626574,57.48976649116513,9.597580074264343,tremor
151,7309356,0.993,-0.6250811518275612,-0.08643552297871532,-0.6316724883946782,19.835258063353823,55.908180993014454,9.937684594684063,tremor
152,7309361,0.998,-0.6127807911755138,-0.08797876140539733,-0.6427424387642268,19.245091145946645,53.76156754995333,10.330992921417339,tremor
153,7309366,1.003,-0.6005066286412591,-0.08943270822424106,-0.6536335514702429,18.71719944527557,51.08429046850617,10.770868503432794,tremor
154,7309370,1.007,-0.5883685604085686,-0.09079763825051511,-0.6642581597694542,18.247252011250282,47.915055908954145,11.250261155363829,tremor
155,7309380,1.017,-0.5764758505351693,-0.09207418353812377,-0.6745315865063777,17.830290087873102,44.296530703083626,11.761754261050704,tremor
156,7309385,1.022,-0.5649362036891608,-0.09326330270761769,-0.6843729318666842,17.460784947878185,40.274948039228825,12.297612869966748,tremor
157,7309421,1.058,-0.5538548742821113,-0.09436625623309636,-0.6937058026792684,17.132697051257615,35.89969843238449,12.849832717623805,tremor
158,7309426,1.063,-0.543333807802826,-0.09538458707246894,-0.702458979055765,16.839537054345097,31.22290314823445,13.410190272465975,tremor
159,7309431,1.068,-0.5334708081722133,-0.09632010531384982,-0.7105670159620923,16.574429490302446,26.29896671623253,13.970293935999386,tremor
160,7309435,1.072,-0.5243587243923715,-0.0971748749875811,-0.7179707786978737,16.33018001480105,21.184105531655796,14.52163648403601,tremor
161,7309445,1.082,-0.5160846510294654,-0.09795120096059905,-0.7246179121302596,16.099346926379543,15.93585075307215,15.055648740034528,tremor
162,7309450,1.087,-0.5087291400889985,-0.09865161390830579,-0.7304632439086248,15.874317295300745,10.61252542777599,15.563754345536468,tremor
163,7309455,1.092,-0.5023654260846326,-0.09927885169008681,-0.7354691218785576,15.647387585756876,5.272697624649906,16.037425370819058,tremor
164,7309460,1.097,-0.4970586708113985,-0.09983583594724756,-0.7396056856462332,15.410848226028177,-0.02538695023160145,16.468238409244552,tremor
165,7309464,1.101,-0.49286523879490146,-0.10032564331444556,-0.7428510718322523,15.157071212158224,-5.224387934587952,16.847930722718978,tremor
166,7309469,1.106,-0.48983201806901777,-0.1007514712272304,-0.7451915520893263,14.878599534464898,-10.26846276257846,17.16845594658652,tremor
167,7309474,1.111,-0.4879958035140446,-0.10111659887561532,-0.7466216025178981,14.56823699244703,-15.103861455364179,17.422038813748618,tremor
168,7309479,1.116,-0.48738276131045993,-0.10142434436190753,-0.7471439027665686,14.219136809123174,-19.679515765644897,17.60122831728897,tremor
169,7309484,1.121,-0.48800799309139997,-0.10167801954065393,-0.7467692629090784,13.824887366652508,-23.9476139845106,17.698948699577052,tremor
170,7309489,1.126,-0.4898752171594035,-0.10188088432841741,-0.7455164761921139,13.379593355561571,-27.864152150961196,17.708547636753632,tremor
171,7309504,1.141,-0.49297658180118964,-0.10203610246119718,-0.7434120959823557,12.877950652273038,-31.389451981873666,17.623840984857488,tremor
172,7309509,1.146,-0.4972926224964642,-0.10214670074279644,-0.7404901357382665,12.3153133073148,-34.48863558510606,17.43915347445379,tremor
173,7309536,1.173,-0.5027923709451887,-0.10221553376035643,-0.7367916916293242,11.68775113950855,-37.132046984493414,17.149354795237663,tremor
174,7309546,1.183,-0.5094336196467614,-0.10224525583573645,-0.7323644885585079,10.992096595552795,-39.295610755411325,16.749890610142923,tremor
175,7309555,1.192,-0.5171633415781752,-0.10223830164130521,-0.7272623518128192,10.225979750289904,-40.96111872089678,16.23680817652108,tremor
176,7309560,1.197,-0.5259182606194682,-0.10219687646961162,-0.7215446082966941,9.387850575336289,-42.11643672268252,15.606776410359263,tremor
177,7309565,1.202,-0.5356255649470678,-0.10212295665749074,-0.7152754231453754,8.47698786816332,-42.755624927606746,14.857100385578425,tremor
178,7309570,1.207,-0.5462037527133922,-0.10201830017123738,-0.7085230792957345,7.4934944937900685,-42.87896687585716,13.98573040209861,tremor
179,7309575,1.212,-0.5575635969071426,-0.10188446688989002,-0.7013592091697933,6.438278846808529,-42.492904424226126,12.991265881397942,tremor
180,7309580,1.217,-0.5696092142553805,-0.10172284769354377,-0.6938579889188088,5.313022701528639,-41.609877800959026,11.872954456415966,tremor
181,7309584,1.221,-0.582239221306661,-0.10153470108011212,-0.6860953066477146,4.120135890138808,-40.24807211096498,10.630686711928387,tremor
182,7309590,1.227,-0.5953479593736405,-0.10132119570191588,-0.678147916680148,2.8626985342336835,-38.43107377213781,9.264987099956429,tremor
183,7309594,1.231,-0.6088267687903786,-0.10108345693837614,-0.6700925922372075,1.5443918500294909,-36.18744249523043,7.777001602314634,tremor
184,7309599,1.236,-0.6225652919463142,-0.10082261540915932,-0.6620052889076788,0.16941884579532002,-33.550206513815205,6.168482741146166,tremor
185,7309609,1.246,-0.6364527837926386,-0.10053985518926144,-0.6539603310163499,-1.2575834754765731,-30.55629079716613,4.441772551332638,tremor
186,7309618,1.255,-0.6503794079794485,-0.10023645941939904,-0.6460296324886425,-2.7316385118573945,-27.24588989120399,2.5997841284672116,tremor
187,7309623,1.26,-0.6642374964914434,-0.09991385101910932,-0.6382819631005435,-4.247528897631319,-23.661798747301148,0.6459823529696338,tremor
188,7309628,1.265,-0.6779227506497185,-0.09957362631654595,-0.6307822701234879,-5.7998973877258555,-19.848716288163324,-1.4156356369686187,tremor
189,7309633,1.27,-0.6913353617017756,-0.09921757961850582,-0.6235910643510209,-7.383347212297968,-15.852537388569303,-3.5805596946375413,tremor
190,7309660,1.297,-0.7043810299995826,-0.09884771706043985,-0.6167638783548148,-8.992539182034864,-11.719649324885799,-5.843785164299696,tremor
191,7309665,1.302,-0.7169718630441418,-0.09846625848987335,-0.6103508035930962,-10.622282746432624,-7.49624851787719,-8.199830228271553,tremor
192,7309669,1.306,-0.7290271345857653,-0.09807562662305272,-0.6043961117203565,-12.267618228710699,-3.2276924865394787,-10.642751791715813,tremor
193,7309674,1.311,-0.740473889708669,-0.09767842323608096,-0.5989379641596582,-13.923887637759709,1.0420997238571312,-13.166159732187596,tremor
194,7309679,1.316,-0.7512473845565815,-0.09727739266677339,-0.5940082127257903,-15.586791819736746,5.27118771650435,-15.763229529907425,tremor
195,7309684,1.321,-0.7612913540517444,-0.09687537337825974,-0.5896322928384666,-17.252432232769774,9.420082372988835,-18.426713515463298,tremor
196,7309689,1.326,-0.7705581063887204,-0.09647523875018335,-0.5858292096286846,-18.917336246415893,13.452145691059654,-21.148951189281526,tremor
197,7309694,1.331,-0.7790084488931345,-0.09607982861066763,-0.5826116159938042,-20.57846552876272,17.33391538214516,-23.921879254628777,tremor
198,7309699,1.336,-0.7866114556509399,-0.09569187330284833,-0.5799859803695548,-22.233207753206308,21.035354346992307,-26.737042150005124,tremor
199,7309703,1.34,-0.7933440927869417,-0.0953139123003471,-0.5779528406355922,-23.879352506736982,24.530027388788596,-29.58560396252729,tremor
200,7309709,1.346,-0.7991907220864849,-0.09494820955725072,-0.5765071391414518,-25.51505288433708,27.795209369537798,-32.45836264977309,tremor
201,7309713,1.35,-0.8041425075307095,-0.09459666791222024,-0.5756386323349315,-27.13877478281844,30.811930430570236,-35.345767494233186,tremor
202,7309718,1.355,-0.8081967520065861,-0.09426074497390305,-0.5753323669207915,-28.74923633998966,33.56496487050768,-38.237940663531326,tremor
203,7309728,1.365,-0.8113561927529888,-0.0939413730010704,-0.575569212925238,-30.345340285133087,36.042770801868656,-41.12470365192135,tremor
204,7309737,1.374,-0.8136282838772326,-0.09363888535115668,-0.5763264425697667,-31.92610215855636,38.23738778873793,-43.99560923486228,tremor
205,7309742,1.379,-0.8150244924821402,-0.09335295208484715,-0.5775783425805016,-33.490577398109984,40.14429929826092,-46.839979381511434,tremor
206,7309747,1.384,-0.8155596316455841,-0.09308252724269057,-0.5792968466280242,-35.03779015011906,41.762265991488164,-49.64694934796339,tremor
207,7309752,1.389,-0.8152512488692949,-0.09282581010042057,-0.5814521741721294,-36.56666632647431,43.09313471040101,-52.40551793014014,tremor
208,7309757,1.394,-0.81411908296226,-0.0925802223158214,-0.5840134621963669,-38.075972917140696,44.14162664851474,-55.1046036015789,tremor
209,7309783,1.42,-0.8121845960576674,-0.09234240227874363,-0.5869493771866304,-39.56426492692502,44.915106833591274,-57.73310600532416,tremor
210,7309789,1.426,-0.8094705810913826,-0.09210821718406978,-0.5902286961610941,-41.02984061250706,45.42333593125003,-60.279972023183745,tremor
211,7309793,1.43,-0.806000839242261,-0.09187279243704242,-0.5938208474294653,-42.47070506705686,45.67820474528446,-62.734265444680844,tremor
212,7309803,1.44,-0.8017999173210911,-0.09163055710074319,-0.5976964038153186,-43.884541774852494,45.6934518537262,-65.08523915184813,tremor
213,7309808,1.445,-0.7968928925625358,-0.09137530335810762,-0.6018275230685044,-45.26869161561273,45.484365596953204,-67.32240874708823,tremor
214,7309813,1.45,-0.7913051919743557,-0.09110025750107092,-0.6061883319303363,-46.62013889501344,45.0674728860581,-69.43562664877696,tremor
215,7309818,1.455,-0.7850624350865233,-0.09079815982259815,-0.6107552516877742,-47.93550419880204,44.46021867976102,-71.41515580650633,tremor
216,7309822,1.459,-0.7781902920730338,-0.09046135095461752,-0.6155072640424563,-49.21104411392375,43.68064122846074,-73.25174230551991,tremor
217,7309832,1.469,-0.7707143531684356,-0.09008186260502138,-0.6204261167631382,-50.44265807780777,42.74704918508676,-74.93668622619566,tremor
218,7309837,1.474,-0.7626600094782398,-0.08965151121444964,-0.6254964689610143,-51.62590277950084,41.67770739373333,-76.46191020127006,tremor
219,7309842,1.479,-0.7540523491443363,-0.08916199368024746,-0.6307059760260401,-52.756014625610725,40.49053856957975,-77.82002517510567,tremor
220,7309851,1.488,-0.7449160758830304,-0.08860498487824632,-0.6360453144015656,-53.82794078799392,39.202848159817904,-79.00439291844528,tremor
221,7309856,1.493,-0.7352754587768676,-0.08797223715872357,-0.6415081465660871,-54.83637926585421,37.83107941454082,-80.00918488918889,tremor
222,7309861,1.498,-0.7251543226622834,-0.08725568223184417,-0.647091026930462,-55.77582822918204,36.39060509870385,-80.82943705338569,tremor
223,7309866,1.503,-0.714576087508171,-0.08644753585638942,-0.6527932499173797,-56.64064467487508,34.895561345013,-81.46110028877582,tremor
224,7309870,1.507,-0.7035638629853104,-0.08554040550576074,-0.6586166423079387,-57.425112132709565,33.35872789228224,-81.90108598406579,tremor
225,7309880,1.517,-0.6921406012429848,-0.08452740073879358,-0.6645653030234218,-58.12351681521115,31.79145739823554,-82.14730642024644,tremor
226,7309908,1.545,-0.6803293070418464,-0.08340224540283855,-0.6706452948280915,-58.7302312229522,30.20365469376374,-82.19870947768521,tremor
227,7309913,1.55,-0.6681533001669548,-0.08215939011461287,-0.6768642939180204,-59.239803810827134,28.60380479717691,-82.05530715937245,tremor
228,7309923,1.56,-0.6556365208187439,-0.08079412279639754,-0.6832312048664608,-59.64705292399139,26.99904629665047,-81.71819736385807,tremor
229,7309928,1.565,-0.6428038648314823,-0.07930267450532585,-0.6897557497293026,-59.94716287078522,25.3952844544078,-81.18957828878679,tremor
230,7309942,1.579,-0.6296815324245995,-0.07768231747916093,-0.6964480410686725,-60.135779749930826,23.797336267225003,-80.47275480308173,tremor
231,7309947,1.584,-0.6162973719472451,-0.07593145227444288,-0.7033181490984998,-60.20910449718759,22.20909795762637,-79.57213609677522,tremor
232,7309952,1.589,-0.6026811988118631,-0.07404968107294077,-0.7103756730762923,-60.16398055349629,20.633724192264697,-78.49322391020681,tremor
233,7309962,1.599,-0.5888650695764793,-0.07203786462758327,-0.7176293265342859,-59.99797358341158,19.073807890855495,-77.24259067346773,tremor
234,7309966,1.603,-0.5748834919816131,-0.0698981608512277,-0.7250865450806019,-59.70944080439775,17.531549841454982,-75.82784696741246,tremor
235,7309971,1.608,-0.5607735537117299,-0.06763404366903884,-0.7327531244357623,-59.297587740321305,16.00890839424333,-74.25759785598099,tremor
236,7309976,1.613,-0.5465749557206283,-0.06525030141627836,-0.740632895211309,-58.762510591496266,14.507721131885807,-72.54138783428589,tremor
237,7309981,1.618,-0.5323299400638046,-0.06275301473771203,-0.7487274397566125,-58.105222906205356,13.029792478635063,-70.68963438263155,tremor
238,7309991,1.628,-0.5180831071819348,-0.060149514613055795,-0.757035855223577,-57.32766581300655,11.576943582609292,-68.71355040706804,tremor
239,7309996,1.633,-0.5038811232686172,-0.05744832178154554,-0.7655545658138166,-56.43270168974908,10.151023349670998,-66.62505617333427,tremor
240,7310001,1.638,-0.4897723244414092,-0.05465906945308244,-0.7742771859392616,-55.42409177033874,8.753882091642216,-64.43668168701991,tremor
241,7310006,1.643,-0.4758062305498515,-0.0517924117518916,-0.7831944346945147,-54.30645879793362,7.387311757642649,-62.161460813718634,tremor
242,7310034,1.671,-0.4620329871891258,-0.04885992081341403,-0.7922941005694549,-53.085236396811254,6.05295903317057,-59.812818741854514,tremor
243,7310039,1.676,-0.44850275941521117,-0.04587397581222586,-0.8015610537341656,-51.76660731715206,4.752219576775231,-57.40445464297659,tremor
244,7310043,1.68,-0.43526510427977283,-0.04284764739104539,-0.8109773016080609,-50.35743305586311,3.4861231015417125,-54.95022155199943,tremor
245,7310048,1.685,-0.4223683510590227,-0.0397945809300987,-0.8205220819854311,-48.86517752452034,2.255219652731068,-52.464005545908414,tremor
246,7310053,1.69,-0.40985901753180415,-0.03672888180198545,-0.8301719869673639,-47.29782741138185,1.0594771844978075,-49.95960623980532,tremor
247,7310067,1.704,-0.3977812878789326,-0.033665005211514804,-0.8399011105060719,-45.663811702320125,-0.1018004632135619,-47.45062047436556,tremor
248,7310072,1.709,-0.3861765731658319,-0.030617652486956623,-0.849681212539219,-43.971922533132464,-1.2300275961602802,-44.950330880536825,tremor
249,7310077,1.714,-0.375083169570152,-0.027601674855909957,-0.859481893428418,-42.23123917176649,-2.3273569586422673,-42.47160079961345,tremor
250,7310081,1.718,-0.36453602315136746,-0.024631984888725818,-0.8692707736285303,-40.451056485033696,-3.3966626424596025,-40.02677681393754,tremor
251,7310091,1.728,-0.354566603546902,-0.021723474991607105,-0.8790136750878484,-38.64081874673706,-4.441484260871887,-37.62759990516064,tremor
252,7310096,1.733,-0.34520288289247136,-0.01889094162661492,-0.8886748026660561,-36.81005912558743,-5.465933415800686,-35.28512600720629,tremor
253,7310111,1.748,-0.33646941075545533,-0.01614901335947526,-0.8982169256773178,-34.9683446934103,-6.474565808274073,-33.00965646582068,tremor
254,7310115,1.752,-0.32838747113598643,-0.01351208041959759,-0.9076015613217197,-33.12522635523704,-7.472224449961347,-30.810678661598157,tremor
255,7310120,1.757,-0.32097530382657985,-0.010994223238222411,-0.916789163069214,-31.290192754414345,-8.463861172023934,-28.69681680798891,tremor
256,7310125,1.762,-0.3142483698201785,-0.008609137450228916,-0.9257393178601717,-29.47262697168007,-9.454344868349652,-26.67579271616202,tremor
257,7310130,1.767,-0.3082196391518239,-0.0063700531279023255,-0.9344109562183972,-27.681764725629677,-10.448265596358652,-24.754396141197297,tremor
258,7310157,1.794,-0.3028998795706107,-0.004289646554242457,-0.9427625790591287,-25.926652780821705,-11.449743809666941,-22.938464196390566,tremor
259,7310161,1.798,-0.29829792568737173,-0.002379943595791095,-0.9507525042117436,-24.216106357645337,-12.462253647036908,-21.232869244330118,tremor
260,7310171,1.808,-0.29442091061966913,-0.0006522146228034043,-0.9583391346035196,-22.55866450411093,-13.48846834008426,-19.641514648326883,tremor
261,7310181,1.818,-0.2912744455454158,0.0008831381556629874,-0.965481248820322,-20.96254263692565,-14.530134409171717,-18.167337805814125,tremor
262,7310185,1.822,-0.2888627368090993,0.002216699228169292,-0.9721383135043455,-19.435581788382237,-15.5879794763742,-16.812319987817034,tremor
263,7310190,1.827,-0.287188635011318,0.0033401617789514835,-0.9782708158444594,-17.9851944909057,-16.661656466076558,-15.57750265204723,tremor
264,7310195,1.832,-0.2862536154694647,0.004246450222633869,-0.9838406132800492,-16.61830766211069,-17.749724966317782,-14.463010038506093,tremor
265,7310200,1.837,-0.28605769418257426,0.00492984001261156,-0.9888112964652017,-15.341303284344804,-18.849668783339276,-13.468077954866853,tremor
266,7310205,1.842,-0.28659928766038095,0.005386071276908427,-0.9931485605204906,-14.159958068937195,-19.957947317884678,-12.591088692389041,tremor
267,7310214,1.851,-0.2878750284562379,0.005612452781259506,-0.9968205786458701,-13.079383624730118,-21.070077340491324,-11.829611979853935,tremor
268,7310224,1.861,-0.28987955078811833,0.005607952774876915,-0.9997983713135377,-12.103968884075513,-22.180741043536155,-11.180451794156827,tremor
269,7310229,1.866,-0.2926052620809645,0.0053732734318703455,-1.0020561635644816,-11.237326648829274,-23.283915889818307,-10.639698719413433,tremor
270,7310234,1.871,-0.2960421165076687,0.0049109058653777305,-1.0035717224863605,-10.482246078398797,-24.373021722717663,-10.20278740199955,tremor
271,7310238,1.875,-0.30017740563476414,0.004225163075277584,-1.0043266668540518,-9.840652745346588,-25.44108076632124,-9.86455850651386,tremor
272,7310243,1.88,-0.30499557922243786,0.0033221887053635603,-1.004306741241666,-9.313577561582958,-26.48088640146947,-9.61932445330794,tremor
273,7310248,1.885,-0.31047810635277806,0.0022099401325968975,-1.0035020476849659,-8.901135490209356,-27.4851768334476,-9.460938123475735,tremor
274,7310253,1.89,-0.3166033837164707,0.0008981451764447862,-1.0019072291510072,-8.60251456863286,-28.446809886992664,-9.382863660351319,tremor
275,7310278,1.915,-0.32334669445377273,-0.0006017674263127598,-0.9995216005838685,-8.41597542542979,-29.358935139642895,-9.378248483112422,tremor
276,7310283,1.92,-0.3306802177920457,-0.002276762734073616,-0.9963492250304674,-8.33886120698471,-30.21515944334012,-9.43999565756071,tremor
277,7310288,1.925,-0.33857308720789947,-0.004112317589103659,-0.9923989341453623,-8.367617657665095,-31.009701645723986,-9.560835831259865,tremor
278,7310293,1.93,-0.3469914932724109,-0.00609255925928814,-0.9876842940207724,-8.49782302041332,-31.737532115063008,-9.733398016175913,tremor
279,7310302,1.939,-0.35589882685068414,-0.008200421652006832,-0.9822235186008977,-8.724227421045109,-32.394492610272614,-9.95027857348492,tremor
280,7310312,1.949,-0.3652558587891367,-0.010417815853622087,-0.976039333830496,-9.040801428110557,-32.977392185861106,-10.204107814593305,tremor
281,7310322,1.959,-0.3750209532619784,-0.01272581183590509,-0.9691587961867206,-9.440793498329521,-33.484075194269046,-10.487613683898191,tremor
282,7310327,1.964,-0.38515031309112135,-0.015104828425237516,-0.9616130694549369,-9.916795996718784,-33.913458040834705,-10.793682040607766,tremor
283,7310332,1.969,-0.3955982561802853,-0.01753482895077548,-0.9534371636638778,-10.460819409502612,-34.26553215389777,-11.115413112956164,tremor
284,7310337,1.974,-0.4063175224492842,-0.01999552028352589,-0.9446696401169327,-11.064374250020753,-34.54133163315751,-11.446173756399208,tremor
285,7310342,1.979,-0.41725961025281727,-0.022466553188345284,-0.9353522865364868,-11.718560005619453,-34.742865188219355,-11.77964520391678,tremor
286,7310346,1.983,-0.4283751403170149,-0.02492772201140526,-0.9255297665220322,-12.414160302395299,-34.87301321933031,-12.10986604933356,tremor
287,7310351,1.988,-0.43961424390326165,-0.027359161723431946,-0.9152492478115634,-13.141743287977807,-34.93539217136304,-12.431270253712103,tremor
288,7310356,1.993,-0.45092697040032315,-0.029741540258852676,-0.9045600142014429,-13.891766059679856,-34.93418956957793,-12.738720010782455,tremor
289,7310361,1.998,-0.46226370802390704,-0.03205624396634697,-0.8935130663791174,-14.654681802547374,-34.87397439069045,-13.027533350070398,tremor
290,7310372,2.009,-0.4735756099158409,-0.03428555385313667,-0.8821607173075291,-15.421048153683602,-34.75948860972851,-13.293506396301344,tremor
291,7310403,2.04,-0.48481501680449607,-0.03641281019791811,-0.8705561881197722,-16.181635180998793,-34.595426864305736,-13.532930241766836,tremor
292,7310408,2.045,-0.4959358666110273,-0.03842256305783538,-0.8587532106785895,-16.92753126617722,-34.38621214205732,-13.74260242452169,tremor
293,7310413,2.05,-0.5068940810458171,-0.04030070623500692,-0.8468056429526385,-17.65024512874552,-34.135776123588336,-13.919833036944759,tremor
294,7310418,2.055,-0.517647919399676,-0.042034592424791094,-0.8347671030849682,-18.341802232483467,-33.847353170631244,-14.062445513537313,tremor
295,7310422,2.059,-0.5281582904043522,-0.04361312755183604,-0.8226906274457079,-18.994833871246218,-33.52329685045754,-14.168772165523126,tremor
296,7310428,2.065,-0.5383890141519692,-0.04502684269829212,-0.8106283571080986,-19.60265731581173,-33.16492734283975,-14.237644550129199,tremor
297,7310432,2.069,-0.5483070275144623,-0.046267942512244344,-0.7986312561557939,-20.1593454944834,-32.77241715269659,-14.26837879297115,tremor
298,7310443,2.08,-0.5578825281913877,-0.047330329521397964,-0.7867488641221498,-20.659784771715465,-32.34472130536015,-14.260756028968462,tremor
299,7310453,2.09,-0.5670890543722938,-0.04820960434001627,-0.7750290837634559,-21.09971949457183,-31.879556652460227,-14.214998195116454,tremor
300,7310458,2.095,-0.5759034989989583,-0.04890304232325397,-0.7635180043363466,-21.475782128065877,-31.37343306904058,-14.131739500430077,tremor
301,7310463,2.1,-0.5843060597505882,-0.0494095477716843,-0.7522597596161731,-21.7855080383444,-30.821737199031592,-14.011994012616759,tremor
302,7310468,2.105,-0.5922801281529562,-0.049729587302125434,-0.741296419059269,-22.027334336052153,-30.218867085676546,-13.857119926846831,tremor
303,7310472,2.109,-0.5998121236018267,-0.04986510446764187,-0.7306679097522549,-22.20058265795078,-29.558413653958613,-13.668781202731267,tremor
304,7310477,2.114,-0.6068912805112976,-0.049819418127749045,-0.7204119660660897,-22.305426310217676,-28.833382770630312,-13.44890735619398,tremor
305,7310482,2.119,-0.6135093991195845,-0.04959710744377642,-0.710564103204808,-22.34284277701323,-28.036449642006165,-13.19965226342017,tremor
306,7310487,2.124,-0.6196605725443786,-0.049203886708599584,-0.7011576100888847,-22.314553168406547,-27.16023571486771,-12.92335286739929,tremor
307,7310492,2.129,-0.6253409042866747,-0.048646473512918946,-0.6922235562472484,-22.222950701659553,-26.197597078009863,-12.622488666595512,tremor
308,7310497,2.134,-0.6305482313294762,-0.0479324539902184,-0.6837908066480856,-22.071020743067187,-25.141912660420992,-12.299642803310894,tremor
309,7310529,2.166,-0.6352818680717789,-0.04707014904584653,-0.6758860377503381,-21.86225525146954,-23.98736032148228,-11.95746545430243,tremor
310,7310534,2.171,-0.6395423854296459,-0.046068485521194816,-0.6685337476294534,-21.60056462269326,-22.72916927634,-11.598640066062112,tremor
311,7310538,2.175,-0.6433314374421901,-0.044936876103106975,-0.6617562530207233,-21.29018989397992,-21.363838265056653,-11.225852792054583,tremor
312,7310543,2.18,-0.6466516446541721,-0.04368511137437578,-0.6555736667752213,-20.935618004164343,-19.889310494420336,-10.841765305942644,tremor
313,7310548,2.185,-0.6495065395686997,-0.042323266655256375,-0.6500038507006247,-20.541502348905905,-18.30509856460876,-10.448991004462426,tremor
314,7310558,2.195,-0.6519005748947311,-0.04086162522938846,-0.6450623410163561,-20.112590305816937,-16.6123551113016,-10.05007448339417,tremor
315,7310563,2.2,-0.6538391905729253,-0.039310618282100085,-0.640762246433913,-19.65365882646761,-14.81388750410723,-9.647474067358516,tremor
316,7310572,2.209,-0.6553289310748239,-0.03768078054849499,-0.6371141218180141,-19.169458664523642,-12.914117492773395,-9.243547094781304,tremor
317,7310577,2.214,-0.6563776006140799,-0.03598271942292275,-0.634125823124213,-18.664667360546296,-10.918989119602706,-8.840537600227085,tremor
318,7310587,2.224,-0.6569944409858199,-0.03422709425372071,-0.631802351532147,-18.14385073965873,-8.83583048936706,-8.440565993836492,tremor
319,7310601,2.238,-0.6571903149416952,-0.03242460183566095,-0.6301456961927736,-17.611432386442797,-6.67317706780705,-8.045620310018913,tremor
320,7310606,2.243,-0.6569778773518964,-0.03058596376999465,-0.6291546856994483,-17.07167031930879,-4.440565974816543,-7.657548590938029,tremor
321,7310611,2.248,-0.6563717168293213,-0.02872191139689521,-0.6288248583048061,-16.528639873186943,-2.148312069500103,-7.2780519985597,tremor
322,7310616,2.253,-0.6553884518752272,-0.026843164387882933,-0.6291483601511847,-15.98622160927737,0.19272272735449397,-6.9086783220337225,tremor
323,7310621,2.258,-0.6540467678308409,-0.024960399755355425,-0.6301138795300437,-15.44809291898861,2.5713555900616116,-6.5508156590637965,tremor
324,7310626,2.263,-0.6523673838886338,-0.023084208911568312,-0.6317066236232473,-14.917721902601421,4.976294076266595,-6.20568618254767,tremor
325,7310653,2.29,-0.6503729430585874,-0.02122504140627605,-0.6339083424762159,-14.398362103329701,7.396323771818005,-5.874340042087393,tremor
326,7310658,2.295,-0.6480878222327012,-0.019393135015302015,-0.6366974032366572,-13.893046775998688,9.820465593353777,-5.557649588869845,tremor
327,7310663,2.3,-0.64553786423506,-0.017598432873364413,-0.6400489160359027,-13.404581577204874,12.238098506960032,-5.25630424646343,tremor
328,7310668,2.305,-0.6427500387777623,-0.015850489280412893,-0.6439349113104808,-12.935534891610303,14.639046107518803,-4.970806462844917,tremor
329,7310683,2.32,-0.6397520442529198,-0.014158366615171253,-0.6483245668311305,-12.48822544842003,17.01362822362508,-4.701469249654669,tremor
330,7310687,2.324,-0.6365718668937929,-0.012530526447361672,-0.6531844811775561,-12.064707388325296,19.352681256650705,-4.448415832518435,tremor
331,7310697,2.334,-0.633237317598933,-0.010974718461487669,-0.6584789888422864,-11.666753444991878,21.647553118016656,-4.211581903055377,tremor
332,7310702,2.339,-0.6297755691757017,-0.009497871202828493,-0.6641705105924549,-11.295837338784693,23.89008019194154,-3.9907208854231926,tremor
333,7310707,2.344,-0.6262127175556681,-0.00810598892838941,-0.6702199312563427,-10.95311679445836,26.072554571238623,-3.7854125144203796,tremor
334,7310711,2.348,-0.6225733895226253,-0.006804058974009277,-0.676586995871809,-10.639418763581705,28.18768985083266,-3.5950748748878003,tremor
335,7310721,2.358,-0.6188804167917155,-0.005595974008082341,-0.6832307142836633,-10.355228454145267,30.2285930943943,-3.4189798812636942,tremor
336,7310726,2.363,-0.6151545921760988,-0.004484473306074694,-0.6901097639266814,-10.100683656644572,32.188749358316194,-3.2562719930011643,tremor
337,7310736,2.373,-0.6114145184404,-0.003471106721410623,-0.6971828807598615,-9.875575622754436,34.06202351096141,-3.1059897826693876,tremor
338,7310740,2.377,-0.6076765546570505,-0.0025562243212364872,-0.7044092291567623,-9.679357411156206,35.842682143295164,-2.9670898168780746,tremor
339,7310745,2.382,-0.6039548588521629,-0.0017389936869848896,-0.7117487429697767,-9.511160180703191,37.52543624749333,-2.8384721873418672,tremor
340,7310750,2.387,-0.600261519844135,-0.0010174456666031558,-0.7191624318572252,-9.369817411704963,39.10550319066913,-2.7190069418464495,tremor
341,7310777,2.414,-0.5966067657949262,-0.0003885479617015102,-0.7266126491153335,-9.253896511489907,40.57868449916758,-2.6075606080880727,tremor
342,7310787,2.424,-0.5929992324283392,0.00015169556810953197,-0.7340633194858787,-9.161736760965411,41.94145426602567,-2.5030219764481982,tremor
343,7310792,2.429,-0.5894462704682385,0.0006081234563429727,-0.7414801274893014,-9.091492147000345,43.19105179097104,-2.404326320286519,tremor
344,7310797,2.434,-0.5859542700079471,0.0009862778292463962,-0.7488306685389972,-9.041177362023845,44.325571543483875,-2.3104772985760893,tremor
345,7310802,2.439,-0.5825289795274492,0.0012922538583656686,-0.7560845662685048,-9.008715163107732,45.34404375929919,-2.220565907520264,tremor
346,7310807,2.444,-0.5791757990942419,0.001532543393171002,-0.7632135601248087,-8.991983341856319,46.2464997854229,-2.133786006233391,tremor
347,7310812,2.449,-0.5759000305487275,0.0017138785714362911,-0.7701915674441273,-8.988859712054829,47.0340174213626,-2.049446109461664,tremor
348,7310817,2.454,-0.5727070716724079,0.0018430807282171068,-0.7769947240723571,-8.997263733992755,47.7087427648835,-1.9669772984507834,tremor
349,7310821,2.458,-0.5696025459872803,0.0019269192141503223,-0.783601407243474,-9.015193642462458,48.2738863567871,-1.8859372404182186,tremor
350,7310826,2.463,-0.566592364553865,0.001971983886712968,-0.7899922439726338,-9.040758218198288,48.73369267758427,-1.8060104237515322,tremor
351,7310831,2.468,-0.5636827206277093,0.0019845741287533407,-0.7961501077139278,-9.072202628911072,49.09338323981878,-1.7270048098178694,tremor
352,7310836,2.473,-0.5608800220729886,0.001970606333496067,-0.8020601055129045,-9.107928053495897,49.35907461167901,-1.6488451775103374,tremor
353,7310841,2.478,-0.5581907698404757,0.0019355409166456144,-0.8077095573745419,-9.146505077577554,49.537673676355254,-1.5715635008301696,tremor
354,7310846,2.483,-0.5556213934615921,0.0018843291055074321,-0.8130879690822139,-9.186681096372274,49.636753258106275,-1.4952867599335116,tremor
355,7310851,2.488,-0.5531780563068818,0.0018213790338068797,-0.8181869992492602,-9.22738216962455,49.664411914699535,-1.420222645732598,tremor
356,7310855,2.492,-0.5508664442847289,0.0017505400516259501,-0.8230004209650328,-9.2677099342353,49.629122195308845,-1.3466436757690516,tremor
357,7310860,2.497,-0.5486915517505078,0.001675103648273637,-0.8275240780139805,-9.306934289318477,49.53957198505394,-1.2748702876229654,tremor
358,7310865,2.502,-0.546657477730512,0.0015978189842118116,-0.8317558353028782,-9.34448262839131,49.404503696618164,-1.205253504778627,tremor
359,7310874,2.511,-0.5447672442302879,0.001520920737636563,-0.8356955228330756,-9.379926412941213,49.23255602481317,-1.1381577682733743,tremor
360,7310901,2.538,-0.5430226464968646,0.0014461667930913333,-0.8393448723096741,-9.412965872612475,49.03211275965396,-1.0739444908666056,tremor
361,7310905,2.542,-0.5414241427646262,0.0013748832342805972,-0.8427074453011929,-9.443413589046662,48.81116277398337,-1.0129568233676356,tremor
362,7310910,2.547,-0.5399707884072401,0.0013080141490430805,-0.8457885517719664,-9.471177674411614,48.577174782296275,-0.9555060383033734,tremor
363,7310915,2.552,-0.5386602167660872,0.0012461739019158963,-0.8485951578268973,-9.496245186722213,48.33698983227397,-0.9018598496356585,tremor
364,7310920,2.557,-0.5374886664532134,0.001189699759602271,-0.8511357816440532,-9.51866632945157,48.09673377748113,-0.8522329075008281,tremor
365,7310925,2.562,-0.536451052786866,0.0011387030412487163,-0.8534203768147212,-9.538539869088686,47.86175123816039,-0.8067796333401016,tremor
366,7310930,2.567,-0.5355410792680446,0.0010931172838902414,-0.8554602026384704,-9.55600008352539,47.63656183224554,-0.765589488844224,tremor
367,7310934,2.571,-0.5347513836436698,0.0010527422444957118,-0.8572676813061209,-9.571205436943018,47.42483877987242,-0.7286846996721785,tremor
368,7310939,2.576,-0.5340737121016813,0.0010172828901888829,-0.8588562423249453,-9.584329068976144,47.22940936678657,-0.6960203831069273,tremor
369,7310944,2.581,-0.5334991144785526,0.0009863828472816518,-0.8602401549820684,-9.595551090435498,47.05227620215843,-0.6674869601627389,tremor
370,7310949,2.586,-0.5330181530033784,0.0009596520790146894,-0.8614343500914313,-9.605052597264482,46.89465772671967,-0.6429146693600577,tremor
371,7310954,2.591,-0.5326211170258244,0.0009366888335317244,-0.8624542327165371,-9.61301125061114,46.75704601629105,-0.6220799430993016,tremor
372,7310959,2.596,-0.5322982363444245,0.0009170961411455501,-0.8633154879965296,-9.619598224549566,46.63927957944516,-0.6047133596684625,tremor
