sample,t_ms,t_s,ax,ay,az,gx,gy,gz,tremor
0,1871132,0.0,-0.4798978282109967,-0.12547901921373764,-0.8976985706682341,-7.697893769827753,8.347344090623634,-1.833898340011865,no_tremor
1,1871157,0.025,-0.479906144502843,-0.12522857000779436,-0.8979239890289092,-7.6189855543722285,8.206024480064414,-1.605861375502911,no_tremor
2,1871161,0.029,-0.47995456868894465,-0.12486884584107785,-0.8982775867910774,-7.461985276246693,7.9794624287390805,-1.3457811439073422,no_tremor
3,1871176,0.044,-0.48006986107320576,-0.12438360046098632,-0.8987960574602005,-7.221659174472859,7.6622829454606975,-1.053163043679348,no_tremor
4,1871186,0.054,-0.4802786485122141,-0.12377515499580453,-0.8995003760438062,-6.893056031874718,7.2494151286144195,-0.7277261586562195,no_tremor
5,1871191,0.059,-0.4806028753392105,-0.12305784017567123,-0.9003978136595239,-6.471566490821777,6.736150052772666,-0.36941738752198355,no_tremor
6,1871210,0.078,-0.4810587105157107,-0.12225057456827848,-0.9014874552987479,-5.952983299638096,6.118198954256955,0.0215758079539499,no_tremor
7,1871219,0.087,-0.48165734708358604,-0.12137229939892785,-0.9027647728364826,-5.333561991590158,5.391751180367749,0.4448142634335307,no_tremor
8,1871224,0.092,-0.4824062586889208,-0.12044010318342217,-0.9042242542588566,-4.610081455230506,4.553531329342729,0.8995978091740037,no_tremor
9,1871234,0.102,-0.48331023352569846,-0.11946893063610754,-0.9058604965779683,-3.7799038123729125,3.6008549733288193,1.384958030316732,no_tremor
10,1871243,0.111,-0.48437203110952226,-0.11847196676018842,-0.9076684190608187,-2.841032978706232,2.531682325357911,1.8996533122931012,no_tremor
11,1871248,0.116,-0.4855927230622898,-0.11746118876732692,-0.9096430805434891,-1.792171243062781,1.3446691848103034,2.4421663853504745,no_tremor
12,1871253,0.121,-0.486971823067211,-0.11644786753761767,-0.9117793716848003,-0.6327731662011334,0.03921447520476255,3.010704570832576,no_tremor
13,1871278,0.146,-0.4885072933256755,-0.11544295277796483,-0.9140717080403425,0.6369039297287995,-1.3844963262207448,3.603202917004202,no_tremor
14,1871283,0.151,-0.4901954862966528,-0.11445734109005817,-0.9165137712596572,2.0157536328275287,-2.925452575422829,4.21733039363625,no_tremor
15,1871292,0.16,-0.49203105753081217,-0.11350204738923332,-0.91909830915558,3.501779041210769,-4.581785373268459,4.850499292392828,no_tremor
16,1871302,0.17,-0.49400687029097157,-0.11258830285082654,-0.9218169909560384,5.092057064449662,-6.350740700939508,5.499877954813258,no_tremor
17,1871311,0.179,-0.49611390362874436,-0.11172759898472313,-0.924660309885891,6.782709197284719,-8.228659457875212,6.162406921697477,no_tremor
18,1871316,0.184,-0.4983411705211009,-0.11093169264472631,-0.9276175252644736,8.568879523317756,-10.210965050555782,6.834818566742447,no_tremor
19,1871321,0.189,-0.5006756499520337,-0.11021258256050531,-0.930676637723483,10.444720683250397,-12.292159139982871,7.513660242804221,no_tremor
20,1871326,0.194,-0.503102235424056,-0.10958246476090878,-0.9338243927645404,12.403388508469043,-14.465826105237111,8.19532093084846,no_tremor
21,1871331,0.199,-0.5056037016914203,-0.1090536719702681,-0.9370463092578604,14.437045976012087,-16.724646719104506,8.876061339452068,no_tremor
22,1871336,0.204,-0.5081606911758935,-0.10863860050416847,-0.9403267305282073,16.536877084971927,-19.060421458654986,9.552047356604298,no_tremor
23,1871341,0.209,-0.5107517213671122,-0.1083496271686223,-0.9436488964006762,18.69311118682358,-21.464103788385614,10.2193867054722,no_tremor
24,1871345,0.213,-0.513353214422216,-0.10819901801580666,-0.9469950350426073,20.895058222286668,-23.925843655694145,10.87416860183401,no_tremor
25,1871350,0.218,-0.5159395501119136,-0.10819883041170904,-0.9503464736974658,23.13115522430021,-26.43504132750332,11.512506153253659,no_tremor
26,1871355,0.223,-0.5184831431872146,-0.10836080964221552,-0.9536837675111187,25.389024340209115,-28.98041157235716,12.130581178813765,no_tremor
27,1871360,0.228,-0.5209545461514871,-0.10869628116653475,-0.9569868456388796,27.655542506665213,-31.55005805397985,12.724691063144522,no_tremor
28,1871365,0.233,-0.5233225783120413,-0.1092160395811341,-0.9602351737215438,29.916922778703423,-34.13155765007556,13.291297189422501,no_tremor
29,1871369,0.237,-0.52555448185324,-0.10993023535717822,-0.963407931651569,32.15880717062647,-36.712054244530734,13.827074423196395,no_tremor
30,1871374,0.242,-0.5276161055198147,-0.1108482604420856,-0.9664842053325268,34.36637071117404,-39.27836136353012,14.328961043306352,no_tremor
31,1871399,0.267,-0.52947211632539,-0.11197863385936714,-0.9694431908784518,36.52443624920396,-41.81707283876878,14.794208439993128,no_tremor
32,1871404,0.272,-0.5310862395061497,-0.11332888849269443,-0.9722644094150951,38.617599369166314,-44.314680488061654,15.220429827364182,no_tremor
33,1871409,0.277,-0.5324215267173453,-0.11490546029601989,-0.9749279303420172,40.63036258928621,-46.757697612911805,15.605647153172361,no_tremor
34,1871424,0.292,-0.5334406522094804,-0.11671358123022357,-0.9774146006028762,42.54727782247498,-49.13278693427152,15.948335339019993,no_tremor
35,1871428,0.296,-0.5341062364081556,-0.11875717728785883,-0.9797062772013727,44.35309588559838,-51.42689142895578,16.247462951029934,no_tremor
36,1871433,0.301,-0.5343811959472088,-0.12103877302940408,-0.9817860599027636,46.0329216541812,-53.62736639037647,16.50252838190265,no_tremor
37,1871438,0.306,-0.5342291187656518,-0.12355940411292753,-0.9836385207875573,47.57237328520779,-55.722110916284464,16.71359061482686,no_tremor
38,1871443,0.311,-0.5336146623771381,-0.12631853934871773,-0.9852499270875157,48.95774377612369,-57.69969692463539,16.881293634818945,no_tremor
39,1871447,0.315,-0.5325039728625097,-0.12931401384575397,-0.9866084535452735,50.176162993651076,-59.54949372419205,17.006883554992474,no_tremor
40,1871452,0.32,-0.5308651215290804,-0.13254197483318966,-0.9877043804062313,51.21575818724678,-61.26178613105646,17.092217540025477,no_tremor
41,1871457,0.325,-0.5286685555300566,-0.1359968417332145,-0.988530273082935,52.06581089457928,-62.827884138556584,17.139763646842887,no_tremor
42,1871462,0.33,-0.52588755804352,-0.13967128202790519,-0.9890811395369238,52.71690805010968,-64.24022222574982,17.152590773732516,no_tremor
43,1871467,0.335,-0.5224987128660414,-0.14355620439825936,-0.9893545615096113,53.16108502742701,-65.49244653701072,17.13434801896008,no_tremor
44,1871477,0.345,-0.5184823674709848,-0.14764077051511038,-0.9893507959082023,53.391958287356175,-66.5794883898646,17.089232897202074,no_tremor
45,1871482,0.35,-0.5138230877059484,-0.15191242672592498,-0.9890728429187415,53.40484526963943,-67.49762287922871,17.02194804414521,no_tremor
46,1871491,0.359,-0.5085100963514859,-0.15635695670584407,-0.9885264777810074,53.19686915480357,-68.24451174766656,16.937646256601912,no_tremor
47,1871496,0.364,-0.5025376867368305,-0.16095855592377564,-0.9877202436274299,52.767046132505584,-68.81923016931248,16.84186396785507,no_tremor
48,1871522,0.39,-0.495905601532122,-0.16569992851411172,-0.9866654033670086,52.116352843985126,-69.22227759787026,16.74044354066773,no_tremor
49,1871532,0.4,-0.4886193657886546,-0.17056240684020224,-0.985375849277334,51.24777173016152,-69.45557324931941,16.639445061740773,no_tremor
50,1871537,0.405,-0.48069056245744723,-0.175526093679429,-0.9838679697229572,50.16631214469768,-69.52243698314626,16.545048627787438,no_tremor
51,1871542,0.41,-0.47213703826452014,-0.18057002653497145,-0.9821604732027694,48.87900532629413,-69.42755621993243,16.463448418703614,no_tremor
52,1871547,0.415,-0.4629830282390819,-0.1856723630687689,-0.9802741707070896,47.39487168555954,-69.1769391551387,16.400740164937034,no_tremor
53,1871552,0.42,-0.4532591884963188,-0.19081058605097784,-0.9782317181256293,45.72485932151029,-68.7778541101068,16.362803946319705,no_tremor
54,1871562,0.43,-0.4430025289621869,-0.19596172555284722,-0.9760573212026148,43.881753193230644,-68.23875461015527,16.35518460665328,no_tremor
55,1871571,0.439,-0.4322562403346541,-0.20110259540951766,-0.9737764063073607,41.88005490538703,-67.5691897902865,16.38297240616521,no_tremor
56,1871576,0.444,-0.4210694123986019,-0.2062100402954224,-0.9714152610976423,39.73583362080352,-66.77969998916393,16.450686816398527,no_tremor
57,1871581,0.449,-0.40949664356190074,-0.2112611891462215,-0.9690006500104522,37.46654919223194,-65.88169783258523,16.562166540948404,no_tremor
58,1871586,0.454,-0.3975975439394368,-0.216233710191425,-0.9665594104182211,35.09084919780688,-64.88733563699193,16.720468899421476,no_tremor
59,1871591,0.459,-0.3854361363880484,-0.2211060625877592,-0.9641180362218504,32.62834215251349,-63.8093604991517,16.927781662034207,no_tremor
60,1871596,0.464,-0.3730801616434706,-0.22585773960044328,-0.9617022565873885,30.09934974803153,-62.66095893200827,17.18535030991089,no_tremor
61,1871601,0.469,-0.3606002952921918,-0.23046949847461604,-0.9593366184387863,27.52464156355699,-61.45559334436191,17.493423546818526,no_tremor
62,1871606,0.474,-0.34806928592794256,-0.23492357254919516,-0.9570440821630647,24.92515631403813,-60.2068330436115,17.851219699673866,no_tremor
63,1871716,0.584,-0.3355610256839487,-0.23920386174145217,-0.9548456407314216,22.32171436797662,-58.92818276358505,18.256916400311578,no_tremor
64,1871851,0.719,-0.3231495665363333,-0.2432960982047613,-0.9527599730236148,19.73472694883459,-57.63291196443053,18.707665604760003,no_tremor
65,1871855,0.723,-0.31090809835676975,-0.24718798465921338,-0.9508031424109672,17.183908049263117,-56.33388827342815,19.199635504478206,no_tremor
66,1871860,0.728,-0.2989079074472478,-0.25086930355057147,-0.9489883513603792,14.687995495892173,-55.0434183820497,19.728080124274108,no_tremor
67,1871865,0.733,-0.28721733679086436,-0.254331995771867,-0.9473257617435951,12.264487676834625,-53.77309947682158,20.287436357614,no_tremor
68,1871957,0.825,-0.27590077105947325,-0.25757020818015625,-0.9458223886208282,9.929402165801756,-52.533683915603326,20.87144694766261,no_tremor
69,1871962,0.83,-0.2650176703090019,-0.2605803095728949,-0.9444820726649287,7.697061937401188,-51.334959445790396,21.47330662683186,no_tremor
70,1871971,0.839,-0.2546216762631105,-0.2633608751742296,-0.9433055333565725,5.579914164149585,-50.18564685215342,22.085827419209384,no_tremor
71,1871976,0.844,-0.24475981418903137,-0.26591264004405296,-0.9422905018726365,3.5883857467880773,-49.09331654601207,22.701618101569913,no_tremor
72,1872051,0.919,-0.23547181164667635,-0.26823842218106864,-0.9414319294176143,1.7307787571766227,-48.064325269926194,23.3132720665299,no_tremor
73,1872060,0.928,-0.22678955292457628,-0.2703430164518461,-0.9407222637575495,0.013207903149214176,-47.10377377748786,23.91355733064033,no_tremor
74,1872075,0.943,-0.21873668489890058,-0.27223306083787013,-0.9401517840397365,-1.5604189695234145,-46.2154860241342,24.495602180531545,no_tremor
75,1872079,0.947,-0.21132838649627742,-0.27391687685551236,-0.9397089817921701,-2.9883773682275563,-45.40201004644346,25.053070002354158,no_tremor
76,1872089,0.957,-0.20457131000372739,-0.2754042863907631,-0.9393809744694663,-4.271060622955445,-44.664640322781736,25.580317230984793,no_tremor
77,1872094,0.962,-0.198463698229187,-0.2767064076314527,-0.9391539371230373,-5.410874182320819,-44.00346104031838,26.072529035121413,no_tremor
78,1872098,0.966,-0.19299567705323634,-0.2778354332915101,-0.9390135376656491,-6.412092374396926,-43.41740938137092,26.525828214916363,no_tremor
79,1872103,0.971,-0.18814971830237903,-0.2788043948940525,-0.9389453616452638,-7.2806810054954445,-42.90435768848563,26.937353743067252,no_tremor
80,1872135,1.003,-0.18390126318752148,-0.2796269174789805,-0.9389353133118089,-8.024089857272891,-42.46121314476821,27.30530638596462,no_tremor
81,1872140,1.008,-0.18021949187822067,-0.28031696967979947,-0.938969980955996,-8.651019780435956,-42.08403337657473,27.62895988058829,no_tremor
82,1872145,1.013,-0.17706822027638594,-0.2808886146161037,-0.9390369559589633,-9.17116965995371,-41.768156115369294,27.90863720424378,no_tremor
