sample,t_ms,t_s,ax,ay,az,gx,gy,gz,tremor
0,2461429,0.0,-0.6336416684501991,-0.1677883742131193,-0.852055872839476,0.5166888744322476,-2.95117633280645,-15.25396355674304,no_tremor
1,2461434,0.005,-0.6351457718745133,-0.1675586538607181,-0.8549863042466552,1.9441647936682023,-3.7184582314932606,-22.66854364907876,no_tremor
2,2461464,0.035,-0.6369276775937989,-0.16729930398274898,-0.8589930904954751,3.5362567380857244,-4.457831453787959,-30.01027917147636,no_tremor
3,2461469,0.04,-0.6388289554957908,-0.16705122644979944,-0.8641310688917454,5.2936002643327855,-5.164846743518143,-37.249484846605064,no_tremor
4,2461483,0.054,-0.6405877357359787,-0.16687776573057575,-0.8702435173834357,7.215633487888527,-5.834935972211691,-44.35596236492543,no_tremor
5,2461488,0.059,-0.6419256967057694,-0.1668492355221542,-0.8770642807848466,9.300537967767541,-6.463427976750822,-51.299138491625136,no_tremor
6,2461498,0.069,-0.6426028279836179,-0.1670326817358617,-0.8843098437646174,11.545188177888287,-7.045568093533092,-58.04821453246497,no_tremor
7,2461503,0.074,-0.6424347257042654,-0.167488158509483,-0.8917271534427348,13.945110564958915,-7.576541635788492,-64.57232726550393,no_tremor
8,2461507,0.078,-0.6412890126505222,-0.16826879348605925,-0.8991075400197924,16.494453156755842,-8.051501485804069,-70.84072119333858,no_tremor
9,2461517,0.088,-0.6390747851593781,-0.16942220889549034,-0.9062835420437764,19.18596663393287,-8.465599888823377,-76.8229316794969,no_tremor
10,2461527,0.098,-0.6357321233628901,-0.17099201181585444,-0.9131200870958458,22.01099770960531,-8.814024440620729,-82.48897820475568,no_tremor
11,2461532,0.103,-0.631223995046028,-0.1730188971777516,-0.9195055575591373,24.959495570519625,-9.09203815351912,-87.80956661667429,no_tremor
12,2461537,0.108,-0.6255307063105741,-0.17554130759066194,-0.9253446622154479,28.020032018568987,-9.295023358179785,-92.75629885222365,no_tremor
13,2461655,0.226,-0.6186463488416049,-0.1785957324322171,-0.9305533704753406,31.17983580922638,-9.418529041400003,-97.30188819736966,no_tremor
14,2461660,0.231,-0.6105766202282146,-0.18221675034375398,-0.9350555778267735,34.42484151225527,-9.458321036562523,-101.42037773414151,no_tremor
15,2461665,0.236,-0.6013375178810216,-0.18643690197952523,-0.9387810584747974,37.73975301880492,-9.410434304499391,-105.08735927439756,no_tremor
16,2461670,0.241,-0.5909545553578686,-0.191286455920372,-0.9416643174531689,41.108121589729116,-9.27122641687678,-108.28018986902178,no_tremor
17,2461674,0.245,-0.579462269717988,-0.19679311060143864,-0.9436440487361999,44.512438091218264,-9.037431307439057,-110.97820294982427,no_tremor
18,2461679,0.25,-0.5669038730865754,-0.2029816607937614,-0.9446629914842297,47.93423880982075,-8.706212369119712,-113.1629112687408,no_tremor
19,2461706,0.277,-0.5533309576897104,-0.20987364775212913,-0.9446680420101604,51.35422399287553,-8.275214009000793,-114.81819896713635,no_tremor
20,2461755,0.326,-0.5388031997376869,-0.21748700622090886,-0.9436105253401882,54.75238803064674,-7.742610808725809,-115.9305002860409,no_tremor
21,2461760,0.331,-0.5233880305486995,-0.2258357178922218,-0.9414465616481846,58.108159991755656,-7.107153478510435,-116.48896260794109,no_tremor
22,2461765,0.336,-0.5071602579348156,-0.23492947877960987,-0.9381374836801665,61.40055305804314,-6.368210844499555,-116.48559171459077,no_tremor
23,2461774,0.345,-0.4902016301290094,-0.24477338673372687,-0.9336502749541685,64.60832129116481,-5.525807167288789,-115.91537736269454,no_tremor
24,2461779,0.35,-0.4726003403059146,-0.25536765461957595,-0.9279580074408559,67.71012209917463,-4.5806541453599205,-114.77639751715995,no_tremor
25,2461784,0.355,-0.4544504732721981,-0.26670735426320624,-0.9210402632359485,70.68468274184558,-3.534177012051373,-113.06989982755161,no_tremor
26,2461789,0.36,-0.43585139800474465,-0.2787821960039667,-0.9128835285119581,73.5109692030031,-2.388534198949135,-110.80035917595595,no_tremor
27,2461794,0.365,-0.4169071109432891,-0.291576348452851,-0.9034815505045155,76.16835575837015,-1.1466301203697664,-107.97551035944998,no_tremor
28,2461799,0.37,-0.39772553564343066,-0.3050683027936519,-0.8928356499286069,78.63679357405128,0.1878792669071873,-104.60635519964944,no_tremor
29,2461804,0.375,-0.37841778477508975,-0.3192307856353247,-0.8809549823542661,80.89697668007561,1.6105883615965673,-100.70714359917454,no_tremor
30,2461831,0.402,-0.35909739063263135,-0.3340307240130123,-0.8678567429150443,82.93050367323535,3.116351385574391,-96.29532829300281,no_tremor
31,2461836,0.407,-0.3398795103756335,-0.3494292656351248,-0.8535663094192538,84.7200335163966,4.69929941350358,-91.39149327184822,no_tremor
32,2461841,0.412,-0.3208801121851665,-0.3653818568874097,-0.8381173195780738,86.24943382751724,6.352864856556123,-86.01925608216489,no_tremor
33,2461851,0.422,-0.3022151484312552,-0.3818383804419053,-0.821551678716665,87.50392010532917,8.069813236471559,-80.20514442856678,no_tremor
34,2461856,0.427,-0.2839997218383914,-0.3987433535910894,-0.80391949502997,88.47018442885016,9.842282087670862,-73.97844771644314,no_tremor
35,2461860,0.431,-0.266347250550429,-0.41603618764482353,-0.7852789402002316,89.13651229068739,11.661826871580029,-67.37104437564062,no_tremor
36,2461865,0.436,-0.2493686379745655,-0.43365150789620244,-0.7656960340114961,89.49288636826967,13.519473847677554,-60.417206001830756,no_tremor
37,2461870,0.441,-0.2331714533497948,-0.4515195327881819,-0.7452443524735052,89.53107619343422,15.405779888549846,-53.15337954222752,no_tremor
38,2461875,0.446,-0.2178591291367538,-0.46956651000335925,-0.7240046598975273,89.24471284426389,17.310899229081688,-45.61794894031661,no_tremor
39,2461879,0.45,-0.2035301815404346,-0.4877152062638964,-0.7020644663439382,88.62934795098171,19.224657089216016,-37.850977847265504,no_tremor
40,2461904,0.475,-0.19027746071822071,-0.5058854466797208,-0.6795175128791446,87.68249647838984,21.136629998530303,-29.893935214536775,no_tremor
41,2461909,0.48,-0.17818743744513754,-0.5239946985410522,-0.6564631881267049,86.40366292016368,23.036232478232314,-21.7894058095256,no_tremor
42,2461913,0.484,-0.16733953314280406,-0.5419586935521519,-0.6330058806527471,84.79435071553097,24.9128095073052,-13.580787943901406,no_tremor
43,2461918,0.489,-0.15780550015624703,-0.5596920816976133,-0.6092542727579339,82.858054877431,26.755733927315447,-5.311980966489487,no_tremor
44,2461923,0.494,-0.14964885893264973,-0.577109109263021,-0.5853205822319965,80.60023800495972,28.554507646330155,2.972934656952374,no_tremor
45,2461928,0.499,-0.1429243983192535,-0.5941243130063348,-0.5613197595602153,78.02829004440889,30.298865212660647,11.230021574891845,no_tremor
46,2462090,0.661,-0.137677744602761,-0.6106532220704803,-0.53736864896981,75.15147236424276,31.978878068006594,19.415810698296085,no_tremor
47,2462095,0.666,-0.13394500422087313,-0.6266130589226858,-0.5135851225610235,71.98084691411803,33.5850575809508,27.487623589491154,no_tremor
48,2462100,0.671,-0.1317524843277663,-0.641923430436474,-0.4900871974977481,68.52919142426165,35.1084548385972,35.40388821405187,no_tremor
49,2462105,0.676,-0.13111649459747202,-0.6565070002909136,-0.46699214666882594,64.81090173539786,36.540755171396974,43.12444416260072,no_tremor
50,2462109,0.68,-0.13204323279354227,-0.670290134235843,-0.4444156132210746,60.841882411531,37.874365510217,50.61083366922716,no_tremor
51,2462114,0.685,-0.13452875571800965,-0.6832035104640641,-0.4224707388882994,56.63942679167094,39.10249288900327,57.82657515223878,no_tremor
52,2462119,0.69,-0.1385590361920957,-0.6951826882544492,-0.4012673152182499,52.22208761410485,40.219212659979426,64.7374164732334,no_tremor
53,2462124,0.695,-0.1441101057403546,-0.706168629085409,-0.3809109658026131,47.60953932282642,41.219525250050374,71.31156557672671,no_tremor
54,2462129,0.7,-0.15114828167595262,-0.7161081654689094,-0.361502366583969,42.822433150213584,42.09940054916087,77.51989661074305,no_tremor
55,2462133,0.704,-0.1596304763432434,-0.7249544137576331,-0.3431365103373751,37.88224606556565,42.85580928450178,83.33613003822079,no_tremor
56,2462138,0.709,-0.16950458538681648,-0.732667128096477,-0.325902020551453,32.81112468645171,43.48674099870356,88.73698563187712,no_tremor
57,2462148,0.719,-0.18070995109963775,-0.7392129935092094,-0.3098805191852171,27.631725268727603,43.99120851433232,93.70230760164304,no_tremor
58,2462153,0.724,-0.19317789616640732,-0.744565856830425,-0.2951460521536598,22.367050919629143,44.369239030068734,98.2151614335328,no_tremor
59,2462158,0.729,-0.20683232246848338,-0.7487068948195488,-0.2817645758837614,17.040287212380086,44.62185225400411,102.2619023224649,no_tremor
60,2462163,0.734,-0.22159036905899807,-0.7516247193413026,-0.26979350785815687,11.674637414538033,44.751026231604854,105.83221536108981,no_tremor
61,2462167,0.738,-0.23736312295182888,-0.7533154199834782,-0.25928134369459016,6.2931585715912695,44.75965176265617,108.91912790411035,no_tremor
62,2462172,0.743,-0.2540563759876061,-0.753782544927704,-0.25026734296355413,0.9185997121270257,44.651476516041356,111.51899476366853,no_tremor
63,2462204,0.775,-0.2715714207275511,-0.7530370213111187,-0.2427812855971016,-4.42675653623702,44.4310401381974,113.63145710568932,no_tremor
64,2462209,0.78,-0.28980587806393576,-0.7510970167311731,-0.23684330036861023,-9.721247611391135,44.103601802934016,115.25937610821877,no_tremor
65,2462213,0.784,-0.3086545490143479,-0.7479877439579062,-0.23246376651231856,-14.943978647435586,43.675061753026206,116.40874260799362,no_tremor
66,2462218,0.789,-0.32801028298805784,-0.7437412113228236,-0.2296432890950037,-20.074962781498577,43.15187842198288,117.08856409774913,no_tremor
67,2462233,0.804,-0.34776485468496443,-0.7383959216395684,-0.22837274825201426,-25.095252907330607,42.54098269440957,117.31073054434971,no_tremor
68,2462238,0.809,-0.36780984171464737,-0.7319965228691565,-0.22863342186945382,-29.9870637339841,41.84969078055255,117.08986058137728,no_tremor
69,2462247,0.818,-0.38803749500432605,-0.7245934140666304,-0.23039718075508145,-34.73388310749655,41.085617066800936,116.44312969474616,no_tremor
70,2462252,0.823,-0.40834159410510473,-0.7162423104338499,-0.2336267548145528,-39.32057165783116,40.256588174766335,115.39008206921599,no_tremor
71,2462257,0.828,-0.42861827962041427,-0.7070037715527848,-0.23827606825322192,-43.73344994275838,39.37055932662335,113.95242779995816,no_tremor
72,2462268,0.839,-0.448766855183329,-0.6969426970852394,-0.2442906413634993,-47.96037237577155,38.43553398181217,112.15382720211308,no_tremor
73,2462278,0.849,-0.4686905517005057,-0.6861277944022793,-0.25160805602987685,-51.990787345344415,37.45948758545215,110.0196639802235,no_tremor
74,2462283,0.854,-0.48829724694204124,-0.6746310227561021,-0.26015848167572647,-55.81578305653699,36.45029615131683,107.57680905475446,no_tremor
75,2462288,0.859,-0.507500133961523,-0.6625270187348504,-0.26986525797000555,-59.42811875291118,35.415670285419694,104.85337688647714,no_tremor
76,2462292,0.863,-0.5262183322522728,-0.649892507851971,-0.28064553018849525,-62.8222411062071,34.363095130948984,101.87847618822259,no_tremor
77,2462319,0.89,-0.544377435961334,-0.6368057072208968,-0.29241093266674506,-65.99428569031289,33.299776574755,98.68195696135592,no_tremor
78,2462324,0.895,-0.561909993879008,-0.6233457243535201,-0.3050683152863143,-68.94206358138901,32.232593900649,95.29415583495773,no_tremor
79,2462329,0.9,-0.5787559163105505,-0.6095919571816601,-0.3185205074229989,-71.66503324733199,31.168058915215546,91.74564171299662,no_tremor
80,2462334,0.905,-0.594862804362962,-0.5956235003983276,-0.33266711330467635,-74.16425800959708,30.112281422988115,88.06696374277236,no_tremor
81,2462338,0.909,-0.6101861977032138,-0.581518563110262,-0.3474053323343493,-76.4423494798486,29.07094080487972,84.28840360398449,no_tremor
82,2462348,0.919,-0.6246897375072095,-0.5673539025680738,-0.36263079766536777,-78.50339749080766,28.04926336761624,80.4397340854686,no_tremor
83,2462353,0.924,-0.6383452421348246,-0.5532042784089067,-0.3782384261711463,-80.35288715273907,27.052005088089793,76.54998587261564,no_tremor
84,2462363,0.934,-0.6511326940333505,-0.5391419314400664,-0.39412327290947125,-81.99760377538439,26.0834393757492,72.64722441714213,no_tremor
85,2462368,0.939,-0.6630401374851564,-0.5252360905471142,-0.41018138321080017,-83.44552650401317,25.14734951432658,68.75833870313708,no_tremor
86,2462373,0.944,-0.6740634880660388,-0.5115525108666961,-0.42631063558203924,-84.70571163226558,24.24702551076365,64.90884365922088,no_tremor
87,2462378,0.949,-0.6842062560441855,-0.4981530459669212,-0.4424115686649299,-85.78816667657661,23.385265155931037,61.122697897347386,no_tremor
88,2462397,0.968,-0.6934791873826494,-0.48509525646892454,-0.4583881854724166,-86.70371642760232,22.564379166546875,57.42213838617726,no_tremor
89,2462402,0.973,-0.7018998274516155,-0.4724320573546749,-0.47414872800868046,-87.46386233106108,21.786200311530433,53.82753359188717,no_tremor
90,2462416,0.987,-0.7094920139385756,-0.4602114061534832,-0.4896064151415865,-88.08063669014744,21.052096416688794,50.35725653936193,no_tremor
91,2462443,1.014,-0.7162853066867991,-0.4484760342754562,-0.5046801362513941,-88.56645332021823,20.36298708611125,47.027579156392825,no_tremor
92,2462453,1.024,-0.722314363234485,-0.437263223925251,-0.5192950927722885,-88.93395641992134,19.71936388977392,43.85258915732847,no_tremor
93,2462541,1.112,-0.7276182696550797,-0.4266046332086717,-0.5333833793549075,-89.19586954797532,19.12131367672231,40.84413059684336,no_tremor
94,2462568,1.139,-0.7322398369520212,-0.4165261721401646,-0.5468844961172923,-89.36484670694898,18.568544618191158,38.0117690719851,no_tremor
95,2462592,1.163,-0.7362248737930376,-0.4070479321838481,-0.5597457834369689,-89.45332762299732,18.060414578913424,35.36278235417773,no_tremor
96,2462597,1.168,-0.7396214467953334,-0.398184171671445,-0.5719227710689454,-89.4733993528593,17.595961436886366,32.90217697031931,no_tremor
97,2462602,1.173,-0.7424791398426053,-0.38994335895251553,-0.5833794340975127,-89.4366663286532,17.17393498362805,30.632730916254676,no_tremor
98,2462607,1.178,-0.7448483239408877,-0.3823282745023245,-0.5940883493062503,-89.35413086601304,16.792830012660346,28.555062296008927,no_tremor
99,2462632,1.203,-0.7467794488436611,-0.37533617250146134,-0.6040307468856313,-89.23608602545606,16.450920146760865,26.667723269083698,no_tremor
100,2462637,1.208,-0.7483223671065649,-0.36895900164512274,-0.6131964538969368,-89.09202254550844,16.146291889643265,24.96731828156153,no_tremor
101,2462642,1.213,-0.7495257004357804,-0.3631836841463972,-0.6215837275185702,-88.93055136645312,15.876878345841343,23.448645166952954,no_tremor
102,2462646,1.217,-0.7504362572605019,-0.357992451059608,-0.6291989777940643,-88.75934303604163,15.640492057229814,22.10485733310728,no_tremor
103,2462656,1.227,-0.7510985094662876,-0.35336323116101986,-0.6360563813676418,-88.58508503265418,15.43485646441678,20.92764490104367,no_tremor
104,2462661,1.232,-0.7515541352207461,-0.34927008969179446,-0.6421773895109251,-88.41345775954402,15.25763560899026,19.907432327426285,no_tremor
105,2462666,1.237,-0.7518416338235349,-0.3456837123110156,-0.6475901355787353,-88.24912965835937,15.10646183390237,19.033589723261116,no_tremor
106,2462693,1.264,-0.7519960175143802,-0.34257192864764285,-0.6523287488471621,-88.09577156008724,14.97896140061351,18.294654779240688,no_tremor
107,2462698,1.269,-0.7520485841541579,-0.33990026889829694,-0.6564325834614853,-87.95609003446897,14.872778106750925,17.678561927656347,no_tremor
108,2462703,1.274,-0.7520267736128983,-0.3376325460060161,-0.6599453729585577,-87.83187911481966,14.785595129621075,17.17287511773211,no_tremor
