sample,t_ms,t_s,ax,ay,az,gx,gy,gz,tremor
0,2445039,0.0,-0.6656933690469726,-0.21214006822800408,-0.7433078709059056,-3.7946478556785297,-8.862602274208493,11.125969666376305,no_tremor
1,2445044,0.005,-0.6691305191421311,-0.21210093885484713,-0.7424306033222495,-4.786650712629131,-7.512929212419123,9.778273051435312,no_tremor
2,2445048,0.009,-0.6739850253323884,-0.21206538176975515,-0.7413293290832624,-5.8074372285183165,-6.194365956375137,8.202912200917755,no_tremor
3,2445053,0.014,-0.6804289852514556,-0.21204561090566326,-0.7400547732608108,-6.851087392279846,-4.911678556888867,6.393734733651,no_tremor
4,2445058,0.019,-0.6883858007430592,-0.21205701250193792,-0.7387192866953485,-7.911042917164129,-3.6693430252113255,4.345975360007713,no_tremor
5,2445068,0.029,-0.6976304097958486,-0.2121145020175533,-0.7374536599095154,-8.980118573091302,-2.471492017367271,2.05638084934687,no_tremor
6,2445083,0.044,-0.7078926595300624,-0.21223069243588707,-0.7363765973232111,-10.050520476702703,-1.3218616981402969,-0.47667085113810503,no_tremor
7,2445143,0.104,-0.7189170936389583,-0.21241562280779905,-0.7355827611584199,-11.113871705435507,-0.22373927875801727,-3.2530588685939024,no_tremor
8,2445148,0.109,-0.7304850461996114,-0.21267720508637208,-0.7351422603572859,-12.16124555046111,0.8200882156651699,-6.27081658419212,no_tremor
9,2445153,0.114,-0.7424157681358912,-0.21302181610512871,-0.73510464947598,-13.183206664370761,1.8073833328540228,-9.526039315587456,no_tremor
10,2445158,0.119,-0.754559318080048,-0.21345479236762396,-0.735503578799187,-14.169860293070489,2.7365050632325336,-13.012804076107816,no_tremor
11,2445163,0.124,-0.7667879519813572,-0.21398077570424248,-0.7363606127550519,-15.110909706594086,3.606452471619896,-16.72310295965637,no_tremor
12,2445168,0.129,-0.778988711407288,-0.2146039318226783,-0.7376879358526969,-15.995721859348565,4.416904320745092,-20.646791651181886,no_tremor
13,2445173,0.134,-0.7910578857610919,-0.21532807957124833,-0.7394901126650022,-16.813401216270947,5.1682538664944095,-24.77155449090122,no_tremor
14,2445187,0.148,-0.8028972119271779,-0.21615676361680178,-0.741765164030772,-17.5528715782621,5.861637953289611,-29.082887427862303,no_tremor
15,2445192,0.153,-0.8144114439879858,-0.21709329382693165,-0.7445051907308132,-18.202965630332223,6.498959488434474,-33.56410008580596,no_tremor
16,2445197,0.158,-0.8255069262923351,-0.21814076651571393,-0.7476967164169781,-18.752521823332234,7.082902333098041,-38.19633803158378,no_tremor
17,2445202,0.163,-0.836090874348728,-0.21930207694114323,-0.7513208678042776,-19.190488090389714,7.616937622270035,-42.95862618222845,no_tremor
18,2445206,0.167,-0.8460711459829594,-0.22057992868720155,-0.7553534700084078,-19.50603179640538,8.105320521825305,-47.82793410833418,no_tremor
19,2445232,0.193,-0.8553563495694857,-0.22197684322814654,-0.7597651073722683,-19.688655223839643,8.553076450485523,-52.77926378532467,no_tremor
20,2445247,0.208,-0.863856183686116,-0.2234951715591801,-0.7645211820084772,-19.728315807657644,8.96597584334282,-57.785760109006404,no_tremor
21,2445252,0.213,-0.8714819356900533,-0.2251371089409767,-0.7695819906105952,-19.615550241973683,9.350496625954216,-62.81884423178778,no_tremor
22,2445257,0.218,-0.8781470890743108,-0.22690471332111423,-0.7749028326109209,-19.341601485984256,9.713773723382054,-67.84836950239256,no_tremor
23,2445262,0.223,-0.8837680042627437,-0.22879992771469163,-0.7804341579540678,-18.898547594651724,10.06353515678057,-72.84279951765772,no_tremor
24,2445271,0.232,-0.8882646471993793,-0.23082460664591925,-0.7861217596185978,-18.279431190928893,10.408024571593122,-77.76940752642014,no_tremor
25,2445276,0.237,-0.8915613464107083,-0.23298054660133646,-0.7919070139257514,-17.478388283803678,10.755910376167108,-82.59449616115738,no_tremor
26,2445281,0.242,-0.893587563326737,-0.2352695202805157,-0.7977271702318873,-16.490775022813427,11.116182033103726,-87.28363620917816,no_tremor
27,2445286,0.247,-0.8942786633003056,-0.2376933142312225,-0.8035156905642975,-15.313290866864019,11.498034432606447,-91.80192286907923,no_tremor
28,2445291,0.252,-0.8935766764640038,-0.2402537692194239,-0.8092026389750254,-13.944096534935952,11.910741684318051,-96.11424766776385,no_tremor
29,2445295,0.256,-0.8914310386380003,-0.24295282241925953,-0.8147151197565335,-12.382925000916009,12.363522085086943,-100.18558393687758,no_tremor
30,2445300,0.261,-0.8877993031670255,-0.24579255023205138,-0.8199777631232507,-10.631183697732839,12.865396442920176,-103.98128346627968,no_tremor
31,2445305,0.266,-0.8826478149654318,-0.24877521027955113,-0.8249132564730071,-8.692046011976528,13.425042340143197,-107.46738167439216,no_tremor
32,2445310,0.271,-0.8759523382833171,-0.25190328088843256,-0.8294429188754455,-6.570530086145733,14.050647262305672,-110.6109083789677,no_tremor
33,2445314,0.275,-0.8676986298396785,-0.2551794962110804,-0.833487315972982,-4.273562911510327,14.749763748978118,-113.38020103844188,no_tremor
34,2445319,0.28,-0.8578829490426227,-0.2586068750282296,-0.836966912011218,-1.8100277024672997,15.529169786234268,-115.7452171710098,no_tremor
35,2445357,0.318,-0.8465124970569713,-0.2621887412644817,-0.8398027552295653,0.8092073967604454,16.3947375342047,-117.67784252809113,no_tremor
36,2445362,0.323,-0.8336057765055978,-0.26592873432756703,-0.8419171923288694,3.5712811061487164,17.35131318761102,-119.15219147662224,no_tremor
37,2445367,0.328,-0.8191928636381571,-0.2698308075613721,-0.843234607179138,6.46135296432405,18.40261036832523,-120.1448959376451,no_tremor
38,2445372,0.333,-0.8033155849410486,-0.27389921337733214,-0.8436821783263172,9.462640869796653,19.55111903169119,-120.63537918213018,no_tremor
39,2445377,0.338,-0.7860275904941482,-0.2781384739813915,-0.8431906492004492,12.556483342825025,20.798031492650086,-120.60611083909193,no_tremor
40,2445382,0.343,-0.7673943169906304,-0.2825533370146645,-0.8416951042319737,15.722427301302519,22.143186852049386,-120.04283962268305,no_tremor
41,2445387,0.348,-0.7474928342705192,-0.2871487158420566,-0.8391357433754313,18.93834177191639,23.585034801030304,-118.93480050132891,no_tremor
42,2445392,0.353,-0.7264115704760721,-0.2919296146273306,-0.8354586468531517,22.180557565341285,25.120619473558662,-117.27489328600593,no_tremor
43,2445396,0.357,-0.7042499124874815,-0.296901038707705,-0.830616521298628,25.424032536402628,26.745583688918597,-115.05982989621602,no_tremor
44,2445401,0.362,-0.6811176800918155,-0.30206789111606924,-0.8245694179325461,28.64254162975459,28.454193573300042,-112.29024786910034,no_tremor
45,2445406,0.367,-0.6571344743137186,-0.3074348563895143,-0.8172854129756844,31.808890480642788,30.23938317537672,-108.97078800974784,no_tremor
46,2445416,0.377,-0.6324289024210604,-0.3130062730480347,-0.8087412402208392,34.89515089910833,32.09281830291725,-105.11013444124825,no_tremor
47,2445435,0.396,-0.6071376842395473,-0.31878599632945304,-0.7989228655731868,37.87291611333339,34.00497841903847,-100.72101570574655,no_tremor
48,2445444,0.405,-0.5814046465017064,-0.32477725293415094,-0.7878259934412701,40.71357318302577,35.96525507052618,-95.82016599903754,no_tremor
49,2445449,0.41,-0.5553796139669275,-0.3309824896846216,-0.7754564951292933,43.38858951986043,37.962065013327475,-90.42824609871862,no_tremor
50,2445454,0.415,-0.5292172079575977,-0.33740321817035474,-0.7618307498452045,45.86980997743226,39.98297599042868,-84.56972407526095,no_tremor
51,2445482,0.443,-0.503075564778513,-0.34403985766044953,-0.7469758895827605,48.129760509174304,42.01484301843059,-78.27271645564795,no_tremor
52,2445574,0.535,-0.4771149882597947,-0.3508915788408314,-0.730929939938995,50.14195395417195,44.043953026440846,-71.56879112962352,no_tremor
53,2445579,0.54,-0.4514965523786549,-0.3579561512553912,-0.7137418498933501,51.88119313283519,46.05617572146679,-64.49273392258351,no_tremor
54,2445621,0.582,-0.4263806714507409,-0.3652297976549726,-0.6954714047459585,53.32386618965516,48.03711860049002,-57.08228135753495,no_tremor
55,2445626,0.587,-0.4019256565224241,-0.37270705872300464,-0.6761890178537979,54.44822909341307,49.97228408856455,-49.377822630814876,no_tremor
56,2445636,0.597,-0.3782862771518144,-0.3803806717946141,-0.6559753985347644,55.23467042754015,51.8472268581595,-41.42207419519092,no_tremor
57,2445650,0.611,-0.3556123476820402,-0.3882414671801936,-0.6349210954704482,55.665954024982945,53.647709468291524,-33.25973058786528,no_tremor
58,2445660,0.621,-0.3340473564630913,-0.39627828553377664,-0.6131259170198653,55.72743553745361,55.35985453913035,-24.9370952984041,no_tremor
59,2445670,0.631,-0.31372715540793433,-0.4044779193850116,-0.5906982319631378,55.40724961398312,56.97029174884599,-16.50169558158854,no_tremor
60,2445730,0.691,-0.2947787259121058,-0.41282508151080266,-0.5677541562672268,54.696464967619676,58.46629801830809,-8.00188520483227,no_tremor
61,2445735,0.696,-0.27731903563031113,-0.421302402294896,-0.5444166334584858,53.58920521782542,59.835929350375025,0.5135608189394223,no_tremor
62,2445740,0.701,-0.2614539989605173,-0.42989045765128436,-0.5208144180279481,52.082733995612614,61.06814292176559,8.9958554414511,no_tremor
63,2445744,0.705,-0.24727755237999516,-0.4385678285141327,-0.49708097288476416,50.177503371718785,62.1529081868301,17.396608705625326,no_tremor
64,2445749,0.71,-0.23487085403763308,-0.4473111923576914,-0.47335329312871016,47.877165203884985,63.08130593495827,25.66823287914716,no_tremor
65,2445754,0.715,-0.22430161525531891,-0.45609544671410884,-0.44977066932518994,45.18854549904405,63.84561443152049,33.764339851049876,no_tremor
66,2445759,0.72,-0.2156235698468097,-0.4648938641900052,-0.42647340409978407,42.121582360092354,64.43938195261315,41.640127223336926,no_tremor
67,2445764,0.725,-0.20887608543706232,-0.47367827801885165,-0.4036014963123103,38.68922854594581,64.85748519107585,49.25274969105128,no_tremor
68,2445768,0.729,-0.20408391926233255,-0.48241929670290534,-0.38129330739412665,34.90732012631828,65.09617316693681,56.56167244221285,no_tremor
69,2445778,0.739,-0.20125711924923856,-0.4910865457790372,-0.3596842246837649,30.794413164582725,65.15309642401,63.52900342248125,no_tremor
70,2445874,0.835,-0.20039106950542598,-0.4996489341776086,-0.3389053368017676,26.371590813644165,65.02732144028963,70.11980140112178,no_tremor
71,2445879,0.84,-0.20146667771084326,-0.5080749420389223,-0.319082136266312,21.66224364769561,64.7193303264866,76.30235686013471,no_tremor
72,2445884,0.845,-0.20445070031040308,-0.5163329262477014,-0.3003332646191806,16.691826437820122,64.2310060352804,82.04844284679189,no_tremor
73,2445889,0.85,-0.20929619994227405,-0.5243914394182907,-0.282769315209767,11.487594856908414,63.56560345063358,87.33353313385683,no_tremor
74,2445894,0.855,-0.2159431282590284,-0.5322195576864409,-0.2664917083793051,6.07832574129416,62.727706867216504,92.1369853458225,no_tremor
75,2445899,0.86,-0.22431902623716712,-0.5397872124640085,-0.2515916530738662,0.49402456771778536,61.723174501969744,96.44218710565504,no_tremor
76,2445904,0.865,-0.23433983320009844,-0.5470655212636318,-0.23814920794369832,-5.234376224874688,60.55907080330802,100.2366636819681,no_tremor
77,2445909,0.87,-0.24591079505575175,-0.5540271127554535,-0.22623245383506668,-11.075324493649996,59.2435874397804,103.51214603415684,no_tremor
78,2445918,0.879,-0.258927461635462,-0.56064644134241,-0.21589678830947084,-16.996957723217967,57.78595396005842,106.26459855064508,no_tremor
79,2445923,0.884,-0.27327676249381455,-0.5669000867168383,-0.207184351469126,-22.967411002023795,56.196339219708314,108.49420615412713,no_tremor
80,2445933,0.894,-0.28883815007976565,-0.5727670340822111,-0.20012359094438364,-28.95512030628042,54.48574476564848,110.20532081332658,no_tremor
81,2445938,0.899,-0.3054847988130336,-0.5782289309857731,-0.19472897241681406,-34.929117857464384,52.66589145324782,111.40636786044183,no_tremor
82,2445942,0.903,-0.3230848482915288,-0.5832703170038044,-0.19100084051689278,-40.85931643806844,50.74910063880271,112.10971287270804,no_tremor
83,2445947,0.908,-0.3415026786055911,-0.5878788228388528,-0.1889254333544065,-46.71677968383352,48.74817133642036,112.33149023800813,no_tremor
84,2445952,0.913,-0.3606002055268595,-0.5920453357115631,-0.1884750523210021,-52.47397551564513,46.67625475100503,112.09139488828669,no_tremor
85,2445979,0.94,-0.38023818315431157,-0.595764128244349,-0.18960838715559822,-58.10501002641763,44.54672760105894,111.41243904938905,no_tremor
86,2445989,0.95,-0.4002775014251435,-0.5990329483359201,-0.1922709945893589,-63.58583930043062,42.37306563098804,110.3206762204464,no_tremor
87,2445994,0.955,-0.4205804657458257,-0.6018530678314327,-0.19639592718632432,-68.89445683369986,40.16871868286967,108.84489495878724,no_tremor
88,2445998,0.959,-0.4410120459133083,-0.604229288144769,-0.2019045072612447,-74.01105447385655,37.946988647595255,107.01628540563763,no_tremor
89,2446008,0.969,-0.4614410815348183,-0.6061699014381906,-0.2087072389790501,-78.91815512322727,35.72091154173063,104.86808184026496,no_tremor
90,2446013,0.974,-0.4817414313507142,-0.6076866065413036,-0.21670484991878644,-83.60071583564509,33.50314486273369,102.43518489097795,no_tremor
91,2446018,0.979,-0.5017930542153125,-0.6087943794906414,-0.22578945152913457,-88.04620035410065,31.305861269115734,99.75376735432525,no_tremor
92,2446028,0.989,-0.5214830099728087,-0.6095112993596372,-0.23584580603591973,-92.24462055614201,29.140649520616147,96.86086787193835,no_tremor
93,2446032,0.993,-0.5407063690597423,-0.6098583308820159,-0.24675268551815516,-96.18854668417237,27.018423501027694,93.7939769816743,no_tremor
94,2446037,0.998,-0.5593670203659764,-0.6098590662063794,-0.25838430709274224,-99.87308663467537,24.949340037203704,90.59062029223566,no_tremor
95,2446052,1.013,-0.5773783677028386,-0.6095394289192246,-0.2706118264935065,-103.295834964436,22.942726127568164,87.28794372767258,no_tremor
96,2446057,1.018,-0.5946639061815674,-0.6089273442130528,-0.28330487085458883,-106.45679264583056,21.007016108591017,83.92230595424299,no_tremor
97,2446066,1.027,-0.611157670920213,-0.6080523797486059,-0.29633309025995874,-109.35825897192223,19.149699222072027,80.52888324511156,no_tremor
98,2446109,1.07,-0.6268045517847413,-0.6069453623766654,-0.3095677066331882,-112.00469738280988,17.377277993806043,77.14129216259431,no_tremor
99,2446119,1.08,-0.641560469330586,-0.6056379764626288,-0.3228830378257757,-114.40257736499187,15.695237775298443,73.79123552736446,no_tremor
100,2446139,1.1,-0.6553924087537023,-0.6041623500964205,-0.33615797431059413,-116.56019496398318,14.108027711125805,70.50817714864179,no_tremor
101,2446153,1.114,-0.6682783105331062,-0.6025506359340956,-0.3492773857063989,-118.48747482854436,12.619053268720418,67.31905063727632,no_tremor
102,2446173,1.134,-0.680206818625293,-0.6008345937377594,-0.36213343451837315,-120.19575704205161,11.230680320840142,64.24800726945054,no_tremor
103,2446178,1.139,-0.6911768895881718,-0.5990451817949293,-0.37462677510892683,-121.69757226722356,9.944250624836464,61.31620732283559,no_tremor
104,2446188,1.149,-0.7011972687918154,-0.5972121642905421,-0.38666761713016795,-123.00640892729376,8.76010840532517,58.541658612424406,no_tremor
105,2446197,1.158,-0.7102858427387462,-0.5953637414136452,-0.39817663447193374,-124.13647627773368,7.677637614744776,55.939105150606906,no_tremor
106,2446225,1.186,-0.7184688792717188,-0.593526208575281,-0.40908570311054643,-125.10246729676356,6.69530931767363,53.519967977659945,no_tremor
107,2446230,1.191,-0.72578016994591,-0.591723650652478,-0.4193384539415326,-125.91932533769942,5.8107385270520755,51.292339285440335,no_tremor
108,2446234,1.195,-0.7322600909903119,-0.5899776766776773,-0.428890629637549,-126.60201842677745,5.020749727115011,49.26103001682598,no_tremor
109,2446239,1.2,-0.7379546010074823,-0.5883071998513248,-0.43771023775030454,-127.16532494147977,4.321450258877817,47.427670187600604,no_tremor
110,2446249,1.21,-0.7429141948115845,-0.5867282671449393,-0.4457774956712735,-127.62363416774748,3.708310717947055,45.79086025869912,no_tremor
111,2446264,1.225,-0.7471928335726636,-0.5852539420730949,-0.4530845666718591,-127.99076492942154,3.1762515074260627,44.34637098999796,no_tremor
112,2446268,1.229,-0.7508468717435725,-0.5838942434536608,-0.45963509002181513,-128.2798051317232,2.719734679532921,43.08738833327167,no_tremor
113,2446274,1.235,-0.7539340011186312,-0.5826561421591516,-0.4654435120780866,-128.5029746715382,2.332860165616566,42.00479907314062,no_tremor
114,2446283,1.244,-0.7565122318199827,-0.5815436169909872,-0.47053422918456017,-128.6715137383273,2.009465418502642,41.08751210359461,no_tremor
115,2446288,1.249,-0.7586389290384485,-0.5805577698700218,-0.4749405571734996,-128.7955980574761,1.7432273698673002,40.322809436003595,no_tremor
