sample,t_ms,t_s,ax,ay,az,gx,gy,gz,tremor
0,2274293,0.0,-0.583640322242832,-0.01810071199110151,-0.8335870246435373,-2.07362585105057,-0.14520265661166193,0.9468771085518529,no_tremor
1,2274298,0.005,-0.5832527963135553,-0.018328238538259583,-0.8331713489679978,-2.6767277545932013,0.08729031597721586,1.369906253706899,no_tremor
2,2274302,0.009,-0.5827295877806109,-0.018618511043711473,-0.8326362534830185,-3.288923796934318,0.33358602455047726,1.8096822903679433,no_tremor
3,2274338,0.045,-0.582069145454093,-0.0189597113982347,-0.8320002691825816,-3.904851046302814,0.5925292972043521,2.2632179100839616,no_tremor
4,2274343,0.05,-0.5812987849747823,-0.019322365033211955,-0.8313144736278361,-4.518662407629873,0.8627791928801036,2.727140358103337,no_tremor
5,2274348,0.055,-0.580460261580234,-0.019670067350086896,-0.8306435174196728,-5.124039015624735,1.142807812812548,3.197690371427388,no_tremor
6,2274353,0.06,-0.5795971880949283,-0.01996760325570872,-0.8300509166823694,-5.714207409946094,1.4309004554467575,3.6707244425047914,no_tremor
7,2274358,0.065,-0.5787486764008901,-0.020184482232086822,-0.8295924614400589,-6.2819616556905356,1.7251571902731637,4.141720625274433,no_tremor
8,2274363,0.07,-0.5779476100108476,-0.020295468478025866,-0.8293150604442826,-6.819690536084171,2.0234959249134663,4.605788079084759,no_tremor
9,2274368,0.075,-0.5772211879174652,-0.0202798288166046,-0.8292579677518656,-7.3194099050724155,2.323657038859174,5.057680519859518,no_tremor
10,2274398,0.105,-0.5765921740786925,-0.020120314759595012,-0.8294545519014729,-7.772800245900791,2.623209656767757,5.491813717161612,no_tremor
11,2274402,0.109,-0.5760801152307067,-0.01980230003116409,-0.8299338266874028,-8.171249437694364,2.9195596341957257,5.902287141384408,no_tremor
12,2274407,0.114,-0.5757022825996612,-0.019313176830962547,-0.8307215387042381,-8.505900685334671,3.2099593279870122,6.282909828517455,no_tremor
13,2274412,0.119,-0.5754743150556656,-0.01864198702492373,-0.8318408423826081,-8.76770551840254,3.491519219872898,6.627230492015705,no_tremor
14,2274416,0.123,-0.5754106166138209,-0.017779230972253677,-0.83331265884644,-8.947481712230562,3.761221452793368,6.928571872612336,no_tremor
15,2274421,0.128,-0.5755245731612657,-0.016716799308270174,-0.8351558135695692,-9.035975928111343,4.015935324152346,7.180069276940645,no_tremor
16,2274426,0.133,-0.5758286435748196,-0.015447985409375285,-0.837387027344078,-9.023930811032013,4.25243475957542,7.37471321387784,no_tremor
17,2274431,0.138,-0.5763343664244367,-0.01396754863019169,-0.8400208137822489,-8.902156222826795,4.467417766434055,7.505395993475585,no_tremor
18,2274436,0.143,-0.5770523112201772,-0.012271808006522883,-0.8430693197540122,-8.66160422703681,4.657527839898051,7.5649621077132085,no_tremor
19,2274440,0.147,-0.5779919939805984,-0.010358752845413936,-0.8465421332603591,-8.293447379545334,4.819377266561732,7.546262165556436,no_tremor
20,2274445,0.152,-0.5791617704995513,-0.008228161086350837,-0.8504460752903747,-7.789159816702571,4.949572242636735,7.442210106844826,no_tremor
21,2274450,0.157,-0.5805687164026166,-0.00588171918187926,-0.8547849870727297,-7.14060057074316,5.044739696299682,7.245843370030891,no_tremor
22,2274454,0.161,-0.5822185002862786,-0.0033231390438778264,-0.8595595208865797,-6.340098481607191,5.101555677542502,6.950385637609142,no_tremor
23,2274459,0.166,-0.5841152544379128,-0.0005582687127139128,-0.8647669405748081,-5.38053801566611,5.116775153283342,6.549311730464781,no_tremor
24,2274484,0.191,-0.5862614464997131,0.0024048059134644337,-0.8704009366511142,-4.2554452461467696,5.0872630196810595,6.0364141692462265,no_tremor
25,2274489,0.196,-0.5886577547328956,0.005555670534921375,-0.8764514601133567,-2.9590731981954304,5.010026117578078,5.40587086874644,no_tremor
26,2274494,0.201,-0.5913029491079952,0.008881505074196388,-0.8829045785762917,-1.4864857148197859,4.882246011873801,4.65231338162631,no_tremor
27,2274530,0.237,-0.5941937801952017,0.012367021269288072,-0.8897423579948529,0.16636104008605476,4.7013122725358985,3.770895061415762,no_tremor
28,2274535,0.242,-0.5973248776913398,0.015994416895362858,-0.8969427729875274,2.0025403572633294,4.464855974119819,2.7573584719713016,no_tremor
29,2274539,0.246,-0.6006886603510342,0.01974334814383717,-0.9044796485410809,4.024080974152434,4.170783111540071,1.6081013321118107,no_tremor
30,2274544,0.251,-0.6042752590522682,0.023590921556584675,-0.9123226356547383,6.231898233511303,3.8173076120114486,0.3202402509820415,no_tremor
31,2274553,0.26,-0.6080724546933572,0.027511706775547224,-0.920437223246764,8.625731359489079,3.4029836068307895,-1.108328517440995,no_tremor
32,2274558,0.265,-0.6120656325722148,0.03147777122080806,-0.9287847883875215,11.204087790801449,2.926736612356819,-2.678872093091685,no_tremor
33,2274594,0.301,-0.616237754831788,0.035458737650015566,-0.9373226866314514,13.964195486210794,2.3878932567773785,-4.391768568430824,no_tremor
34,2274609,0.316,-0.6205693524651342,0.039421865376069384,-0.9460043838886544,16.901964079240006,1.7862091774394606,-6.246460000384609,no_tremor
35,2274614,0.321,-0.6250385382593279,0.04333215572607957,-0.9547796308990651,20.01195570680851,1.1218947036751077,-8.241411606724194,no_tremor
36,2274618,0.325,-0.6296210419196319,0.04715248211088306,-0.9635946809443608,23.28736627029922,0.3956379358706871,-10.37407796384107,no_tremor
37,2274643,0.35,-0.6342902684551973,0.05084374483846444,-0.9723925509529711,26.72001780735583,-0.3913751621349279,-12.640876974088304,no_tremor
38,2274648,0.355,-0.6390173807267588,0.05436505054457059,-0.9811133256242569,30.300362559124594,-1.2374440207070034,-15.037172325277439,no_tremor
39,2274653,0.36,-0.6437714068580414,0.057673915831418406,-0.9896945036292617,34.017499213767316,-2.140340404785247,-17.557265100968806,no_tremor
40,2274658,0.365,-0.6485193729992227,0.0607264944090239,-0.9980713843575131,37.859201697888,-3.097299334268195,-20.194395116783987,no_tremor
41,2274668,0.375,-0.6532264617051005,0.06347782673734396,-1.0061774930965033,41.81196077626343,-4.105014250836711,-22.940752455373993,no_tremor
42,2274673,0.38,-0.6578561959513395,0.0658821108865833,-1.0139450419695153,45.861038606205305,-5.159636680506395,-25.78749955345072,no_tremor
43,2274677,0.384,-0.6623706485535256,0.06789299308050074,-1.0213054234233203,49.990536274099014,-6.256780645744333,-28.724804062767276,no_tremor
44,2274682,0.389,-0.6667306764666154,0.06946387617097997,-1.028189732550332,54.18347421836531,-7.3915321125449065,-31.741882567319735,no_tremor
45,2274687,0.394,-0.6708961791170995,0.07054824411202226,-1.0345293140524394,58.421885316405834,-8.55846381605787,-34.82705509317525,no_tremor
46,2274692,0.399,-0.6748263795493751,0.07110000035014451,-1.0402563292087184,62.686920282450416,-9.751655884632465,-37.96781019374082,no_tremor
47,2274696,0.403,-0.6784801267480678,0.07107381791181516,-1.0453043377966025,66.95896488670208,-10.96472276176901,-41.150880229348964,no_tremor
48,2274701,0.408,-0.6818162170308072,0.07042549882973646,-1.0496088895338476,71.21776836208332,-12.190846991274238,-44.362326286606184,no_tremor
49,2274706,0.413,-0.6847937318981832,0.0691123403914789,-1.0531081192544849,75.44258221152091,-13.42282046222576,-47.58763200787696,no_tremor
50,2274711,0.418,-0.6873723891927971,0.06709350550220268,-1.0557433397046991,79.61230846381709,-14.653093677437129,-50.811805438759,no_tremor
51,2274715,0.422,-0.6895129038797015,0.06433039421915095,-1.0574596255448356,83.70565624799376,-15.873833472917962,-54.01948786689861,no_tremor
52,2274720,0.427,-0.6911773542500925,0.06078701323760133,-1.0582063818753202,87.70130536455663,-17.076989343256418,-57.19506852816075,no_tremor
53,2274740,0.447,-0.6923295489165222,0.056430339793595095,-1.0579378903753458,91.57807533007511,-18.25436811626169,-60.32280399353854,no_tremor
54,2274767,0.474,-0.692935389671444,0.051230676118764695,-1.0566138259705489,95.31509816807527,-19.397716210037707,-63.38694101085422,no_tremor
55,2274771,0.478,-0.6929632251870551,0.04516199027808566,-1.0541997368643141,98.8919930373458,-20.498808172646022,-66.37184154965801,no_tremor
56,2274776,0.483,-0.6923841906894791,0.03820223900676105,-1.0506674808341663,102.28904066277909,-21.54953973849075,-69.26210878636888,no_tremor
57,2274781,0.488,-0.6911725291348378,0.030333668107524962,-1.0459956109718271,105.48735548916554,-22.5420233097772,-72.04271277584627,no_tremor
58,2274786,0.493,-0.6893058899720688,0.021543086113544524,-1.0401697045631162,108.4690535106387,-23.46868361405274,-74.6991145852691,no_tremor
59,2274791,0.498,-0.6867656021897811,0.011822107250664604,-1.03318262954012,111.21741380992431,-24.322351282484043,-77.2173877078019,no_tremor
60,2274796,0.503,-0.6835369189217674,0.001167360191287322,-1.0250347438331866,113.71703194493892,-25.096352202615595,-79.58433561856641,no_tremor
61,2274801,0.508,-0.6796092313742453,-0.010419340384740529,-1.015734023934954,115.95396343207294,-25.784590693811758,-81.78760438157356,no_tremor
62,2274805,0.512,-0.6749762502137404,-0.022930861876169648,-1.0052961200034187,117.91585569255186,-26.38162481182649,-83.81578926458212,no_tremor
63,2274810,0.517,-0.669636152813818,-0.03635466345190722,-0.993744335835599,119.59206695170604,-26.88273239226716,-85.65853436962396,no_tremor
64,2274815,0.522,-0.6635916949119355,-0.05067274887351224,-0.981109533017652,120.97377071312941,-27.283966772213464,-87.30662433899461,no_tremor
65,2274820,0.527,-0.6568502852961546,-0.06586166361185065,-0.9674299594951872,122.05404457247417,-27.582201465824568,-88.7520672487579,no_tremor
66,2274824,0.531,-0.6494240221558293,-0.08189253712222767,-0.9527510037082717,122.82794228939473,-27.775163395443442,-89.98816785519749,no_tremor
67,2274829,0.536,-0.6413296897263631,-0.0987311708876996,-0.9371248763005398,123.29254819972876,-27.86145457871845,-91.00959041785707,no_tremor
68,2274834,0.541,-0.6325887138724623,-0.11633817260493964,-0.9206102222438027,123.44701322146321,-27.8405624311778,-91.8124103899048,no_tremor
69,2274839,0.546,-0.6232270753214662,-0.134669136643725,-0.9032716670225304,123.2925718857633,-27.7128590521613,-92.39415434360194,no_tremor
70,2274844,0.551,-0.6132751794086175,-0.15367487063310245,-0.885179301299764,122.83254000763569,-27.479590015320888,-92.7538275840481,no_tremor
71,2274849,0.556,-0.6027676814547528,-0.17330166769094285,-0.8664081092381014,122.07229279960926,-27.1428532855868,-92.89192899713949,no_tremor
72,2274853,0.56,-0.5917432672833749,-0.19349162340066278,-0.8470373463722556,121.01922342605533,-26.7055689402835,-92.81045277829305,no_tremor
73,2274858,0.565,-0.5802443889113281,-0.21418299613817038,-0.8271498736139921,119.68268219502804,-26.171440392510277,-92.51287679663139,no_tremor
74,2274863,0.57,-0.5683169561194263,-0.23531060876005913,-0.8068314546040452,118.0738967885499,-25.544907810225244,-92.00413746276858,no_tremor
75,2274890,0.597,-0.5560099854188331,-0.25680628898554825,-0.7861700241975693,116.20587414132343,-24.831094406495197,-91.2905910846488,no_tremor
76,2274895,0.602,-0.5433752088502312,-0.278599345058778,-0.7652549363645624,114.0932847915056,-24.035746259898538,-90.3799618147081,no_tremor
77,2274899,0.606,-0.5304666460314867,-0.3006170725102361,-0.7441762001732594,111.75233074255635,-23.165166327444958,-89.2812764155002,no_tremor
78,2274904,0.611,-0.5173401438223331,-0.3227852871187173,-0.7230237127550653,109.20059808715041,-22.226143352664533,-88.00478620396447,no_tremor
79,2274930,0.637,-0.5040528888171742,-0.3450288785794568,-0.7018864981872159,106.45689584861702,-21.225876453625112,-86.5618766797844,no_tremor
80,2274934,0.641,-0.4906628985606573,-0.36727237894448844,-0.6808519610784352,103.54108269091039,-20.171896285610995,-84.96496550130452,no_tremor
81,2274949,0.656,-0.47722849789956034,-0.3894405396125285,-0.6600051633458333,100.47388333276443,-19.07198378360593,-83.22738964182518,no_tremor
82,2274964,0.671,-0.4638077872559167,-0.4114589104863103,-0.6394281322768446,97.27669667008648,-17.934087572000685,-81.3632827367768,no_tremor
83,2274969,0.676,-0.45045810985336177,-0.43325441486263966,-0.6191992075085349,93.97139775639972,-16.766241164187353,-79.38744381239918,no_tremor
84,2274974,0.681,-0.43723552507593944,-0.4547559136501228,-0.5993924340370305,90.58013591053745,-15.576481058313817,-77.31519876052195,no_tremor
85,2275021,0.728,-0.424194295205943,-0.4758947525971413,-0.5800770077889792,87.12513131305438,-14.372766775099532,-75.16225608421952,no_tremor
86,2275036,0.743,-0.4113863927787094,-0.49660528634401513,-0.561316779640408,83.62847251602105,-13.162903794333934,-72.94455858039274,no_tremor
87,2275051,0.758,-0.3988610356828516,-0.5168253732972692,-0.5431698230519388,80.11191731437427,-11.95447024618107,-70.67813273944607,no_tremor
88,2275056,0.763,-0.38666425687008993,-0.5364968355958007,-0.525688069693639,76.59669939081029,-10.75474811637283,-68.37893771379834,no_tremor
89,2275060,0.767,-0.3748385150637063,-0.555565878840263,-0.5089170165471615,73.10334303711434,-9.570659637804354,-66.06271572286252,no_tremor
90,2275065,0.772,-0.36342235215158825,-0.5739834668037714,-0.49289550700102425,69.65148808318463,-8.408709464261888,-63.74484572491923,no_tremor
91,2275070,0.777,-0.3524501020540142,-0.5917056470108036,-0.4776555874231304,66.25972695868617,-7.2749331503401695,-61.44020211321765,no_tremor
92,2275085,0.792,-0.3419516548325768,-0.6086938238153704,-0.463222439642367,62.945455596283765,-6.174852389790212,-59.163020103242616,no_tremor
93,2275090,0.797,-0.3319522787211754,-0.6249149763820997,-0.4496143887369958,59.72473967152776,-5.113437387879315,-56.9267693805686,no_tremor
94,2275095,0.802,-0.3224725016683385,-0.6403418197396044,-0.4368429845419361,56.61219746425147,-4.095076657762879,-54.744037475236944,no_tremor
95,2275100,0.807,-0.313528052926526,-0.6549529078128162,-0.42491315437094757,53.620900417594676,-3.123554434040114,-52.62642421564512,no_tremor
96,2275104,0.811,-0.30512986424129146,-0.6687326780382269,-0.4138234236150279,50.76229226248693,-2.202035790296082,-50.58444848987521,no_tremor
97,2275109,0.816,-0.29728412930026454,-0.6816714378169542,-0.4035662001283159,48.046127369531355,-1.333059437772581,-48.62746840653051,no_tremor
98,2275135,0.842,-0.28999241930404107,-0.6937652936623353,-0.39412811764383293,45.48042878963695,-0.51853807727568,-46.76361580428262,no_tremor
99,2275139,0.846,-0.2832518518130196,-0.7050160244524716,-0.38549043286577156,43.071466250282356,0.24023391775412067,-44.99974591153661,no_tremor
100,2275144,0.851,-0.2770553093940695,-0.7154309007107,-0.37762947035311945,40.82375418345254,0.9425657885108202,-43.34140280238548,no_tremor
101,2275149,0.856,-0.27139170402321305,-0.7250224523199003,-0.3705171088318422,38.74006967002031,1.588349012665074,-41.79280112700743,no_tremor
102,2275153,0.86,-0.26624628268093253,-0.7338081875402385,-0.36412130214353355,36.821489991716554,2.178029672424187,-40.356824411658266,no_tremor
103,2275158,0.865,-0.26160096909703173,-0.7418102666474358,-0.3584066276566435,35.06744928771382,2.712575018238138,-39.0350400296878,no_tremor
104,2275163,0.87,-0.25743473616160123,-0.7490551339351869,-0.35333485463604697,33.475813621740556,3.193434713403711,-37.827730747493646,no_tremor
105,2275167,0.874,-0.25372400312247084,-0.7555731122232646,-0.34886552479367594,32.04297358011529,3.6224972846447647,-36.73394255229593,no_tremor
106,2275328,1.035,-0.2504430513456952,-0.7613979643757969,-0.3449565370335449,30.763953341932787,4.002042350304807,-35.751548272799496,no_tremor
107,2275333,1.04,-0.2475644521372115,-0.7665664266598169,-0.3415647282692168,29.632534987380748,4.334689250710466,-34.87732630729724,no_tremor
108,2275338,1.045,-0.2450594999342845,-0.7711177190661613,-0.33864644215311,28.64139663100801,4.623342761186213,-34.10705357151597,no_tremor
109,2275343,1.05,-0.24289864410729226,-0.775093037983106,-0.33615807765076156,27.782262773433533,4.871136622071474,-33.43561156398694,no_tremor
110,2275348,1.055,-0.24105191269127768,-0.7785350368690345,-0.33405660965213596,27.046065053358532,5.081375668550426,-32.85710421773258,no_tremor
111,2275352,1.059,-0.23948932159272626,-0.7814873008197005,-0.33230007424593605,26.42311135816324,5.257477386498137,-32.364985968817024,no_tremor
112,2275377,1.084,-0.2381812631661699,-0.7839938211669575,-0.3308480118758266,25.903261026489535,5.4029137608863484,-31.952198232746216,no_tremor
113,2275382,1.089,-0.23709886849641754,-0.7860984764741354,-0.32966186232346933,25.476103656995463,5.521154320729742,-31.611312243363532,no_tremor
