sample,t_ms,t_s,ax,ay,az,gx,gy,gz,tremor
0,2045827,0.0,-0.5405234981257659,0.0069820269680789205,-0.877975088204821,-8.41665706132121,3.663214216131013,1.666298735077013,no_tremor
1,2045832,0.005,-0.5409742528135749,0.007613104393822073,-0.8795551661945383,-7.623450506744941,4.580605332901331,0.9260153224058778,no_tremor
2,2045837,0.01,-0.5416874366345447,0.008525105405572489,-0.8818691883066596,-6.651304853887126,5.50475028335359,0.10777358095680457,no_tremor
3,2045842,0.015,-0.5427415439948522,0.009763044363793145,-0.8850558782763946,-5.491204505549502,6.43333222031778,-0.7923140622246596,no_tremor
4,2045847,0.02,-0.5441843233227182,0.01132527866234491,-0.8891411418834168,-4.134780324044806,7.36396919071414,-1.7779857763423221,no_tremor
5,2045851,0.024,-0.5460359361320873,0.013179295927564515,-0.8940734321317599,-2.5744040307057654,8.294223685844424,-2.8527982111003714,no_tremor
6,2045856,0.029,-0.5482996108887959,0.015280196250142524,-0.899768252481817,-0.803281222877487,9.221613139925605,-4.020094363432585,no_tremor
7,2045861,0.034,-0.5509707519891858,0.01758228384602363,-0.9061371105060038,1.1844579273035083,10.143621386220214,-5.282971729498885,no_tremor
8,2045866,0.039,-0.5540422939101144,0.020043970620939783,-0.9131003962637164,3.3936712582724,11.057711052130161,-6.644251045585747,no_tremor
9,2045871,0.044,-0.5575069880656058,0.022628666736665963,-0.9205902577263501,5.828121472418766,11.961336841460946,-8.10644591680257,no_tremor
10,2045876,0.049,-0.5613578892081384,0.025303918835669566,-0.9285489034111738,8.490398246519657,12.851959613894874,-9.671733621961007,no_tremor
11,2045881,0.054,-0.5655880044028809,0.02804007965376478,-0.9369255226400733,11.38184658027523,13.72706112892444,-11.341927365869223,no_tremor
12,2045885,0.058,-0.5701896557994163,0.030809072980168693,-0.9456732817041038,14.502502341469153,14.58415927504386,-13.118450225090493,no_tremor
13,2045890,0.063,-0.5751538198736028,0.03358343207026143,-0.9547468959041545,17.851035927028093,15.420823556386715,-15.002310998854226,no_tremor
14,2045895,0.068,-0.5804695461522581,0.03633562172534018,-0.964100845418842,21.42470490132865,16.234690560213227,-16.994082133156855,no_tremor
15,2045900,0.073,-0.586123482472558,0.03903759732228025,-0.9736881468219634,25.21931639531518,17.023479082360907,-19.093879834540306,no_tremor
16,2045905,0.078,-0.5920995027616485,0.04166054481171011,-0.9834595584318103,29.22919995202053,17.785004547556902,-21.30134643317539,no_tremor
17,2045910,0.083,-0.5983784235453036,0.04417475323072839,-0.99336310962888,33.447191386449894,18.51719233175819,-23.615634995536023,no_tremor
18,2045914,0.087,-0.6049377945836433,0.04654958247279712,-1.003343868128109,37.86462809196904,19.218089579134762,-26.03539612730417,no_tremor
19,2045924,0.097,-0.6117517513665086,0.04875349917166772,-1.0133438821263052,42.47135607391466,19.88587511053278,-28.55876684864629,no_tremor
20,2045951,0.124,-0.61879092018199,0.05075416136680657,-1.0233022525152553,47.25574882888899,20.5188670442397,-31.183361368868194,no_tremor
21,2045956,0.129,-0.626022369165804,0.052518538216874605,-1.0331553037134198,52.20473802517111,21.115527792758755,-33.90626354207653,no_tremor
22,2045961,0.134,-0.6334096008994228,0.05401305489842007,-1.042836831007491,57.30385579353382,21.674466160549034,-36.724020762347145,no_tremor
23,2045965,0.138,-0.6409125837700004,0.0552037554908232,-1.0522784086811166,62.53728832806927,22.19443634543102,-39.63263906857387,no_tremor
24,2045970,0.143,-0.6484878205258761,0.05605647853548643,-1.0614097475616349,67.88794043125266,22.674333732440015,-42.62757927692387,no_tremor
25,2045975,0.148,-0.6560884533388046,0.056537041363500504,-1.070159093607138,73.33751060537533,23.11318745110121,-45.70375403131282,no_tremor
26,2045980,0.153,-0.6636644052702144,0.056611430385623766,-1.0784536612241922,78.86657627434218,23.51014974231456,-48.8555257494724,no_tremor
27,2045985,0.158,-0.6711625583654777,0.05624599542177585,-1.0862200964228088,84.45468870599029,23.864482265744765,-52.07670554673305,no_tremor
28,2045990,0.163,-0.6785269686917444,0.055407646855753674,-1.0933849658458645,90.08047719839216,24.175539601025207,-55.36055334917685,no_tremor
29,2045995,0.168,-0.6856991185180251,0.05406405494658628,-1.0998752682552766,95.72176209109506,24.4427503738396,-58.699779555629576,no_tremor
30,2046000,0.173,-0.6926182055469847,0.05218385100570163,-1.1056189652778432,101.3556761401069,24.66559666190056,-62.086548746666935,no_tremor
31,2046005,0.178,-0.6992214686951307,0.04973683034877183,-1.110545528154049,106.95879372351618,24.843592575124728,-65.51248603649049,no_tremor
32,2046010,0.183,-0.7054445494396734,0.04669415694942961,-1.1145864969382095,112.50726721698284,24.976263124517853,-68.96868670488557,no_tremor
33,2046014,0.187,-0.7112218872638911,0.04302856956952899,-1.1176760481220964,117.97696972239208,25.06312466810031,-72.44572973693084,no_tremor
34,2046019,0.192,-0.7164871472849805,0.03871458884319923,-1.1197515660604818,123.34364318849934,25.103668326279877,-75.93369585190055,no_tremor
35,2046024,0.197,-0.7211736777674927,0.03372872438989948,-1.1207542129374197,128.58305085507175,25.09734777201404,-79.42219053133296,no_tremor
36,2046029,0.202,-0.7252149949184066,0.028049680577579724,-1.1206294914033732,133.67113288320385,25.043572711757516,-82.90037246561185,no_tremor
37,2046034,0.207,-0.7285452921118397,0.02165855911213353,-1.1193277935114656,138.58416398862556,24.941709187478132,-86.35698773240298,no_tremor
38,2046039,0.212,-0.7310999704682378,0.014539056256590455,-1.1168049292490667,143.2989118537394,24.791087564825062,-89.78040990330292,no_tremor
39,2046044,0.217,-0.7328161874670062,0.006677652236907217,-1.113022627836859,147.792795046293,24.59101874469825,-93.15868615232053,no_tremor
40,2046048,0.221,-0.7336334199520769,-0.0019362096948575287,-1.1079490050628453,152.04403911403347,24.34081875756925,-96.47958931581483,no_tremor
41,2046075,0.248,-0.7334940374545215,-0.011309956985647936,-1.1015589902222773,156.03182945705743,24.039841482178357,-99.73067573055039,no_tremor
42,2046081,0.254,-0.7323438811815977,-0.021447736508176454,-1.0938347067126055,159.73645951135674,23.6875187843889,-102.89934855471579,no_tremor
43,2046090,0.263,-0.7301328433118179,-0.032350280180866935,-1.0847658009236243,163.13947272614234,23.283406916307694,-105.97292615680993,no_tremor
44,2046095,0.268,-0.7268154404291333,-0.044014789055020924,-1.0743497146821717,166.22379680645182,22.82723757930772,-108.93871504421321,no_tremor
45,2046100,0.273,-0.7223513740963663,-0.056434837225231564,-1.0625918970813912,168.97386873533884,22.318971675087656,-111.78408670530898,no_tremor
46,2046105,0.278,-0.7167060707958699,-0.06960029685158367,-1.049505952015982,171.37574918380855,21.758853483574622,-114.49655766192029,no_tremor
47,2046110,0.283,-0.7098511928380886,-0.08349728565673437,-1.035113718180638,173.41722504800924,21.14746284123781,-117.06387197219746,no_tremor
48,2046115,0.288,-0.7017651114223046,-0.09810813842915254,-1.0194452787224186,175.08789900876528,20.48576285896779,-119.47408538412266,no_tremor
49,2046119,0.292,-0.6924333328713287,-0.11341140426416488,-1.0025388982238705,176.37926518000572,19.77514081531539,-121.71565031338667,no_tremor
50,2046124,0.297,-0.6818488691754936,-0.129381871448296,-0.9844408852742309,177.28477009493935,19.01744008468259,-123.77750080487655,no_tremor
51,2046129,0.302,-0.6700125443779245,-0.14599062198982776,-0.9652053795863825,177.79985846736216,18.214981304881785,-125.64913663260054,no_tremor
52,2046134,0.307,-0.6569332290093746,-0.16320511778033145,-0.9448940634465988,177.92200335475826,17.37057144309866,-127.32070569608341,no_tremor
53,2046139,0.312,-0.6426279957257048,-0.18098932021005706,-0.9235757982360938,177.65072053401545,16.487499962182593,-128.7830838798956,no_tremor
54,2046144,0.317,-0.6271221904950687,-0.19930384473780285,-0.9013261878166912,176.98756707515025,15.569521885668658,-130.02795155630645,no_tremor
55,2046149,0.322,-0.6104494150961777,-0.2181061514283782,-0.8782270716918655,175.93612426145953,14.620828166423163,-131.0478659301341,no_tremor
56,2046154,0.327,-0.5926514182837175,-0.23735077182541767,-0.8543659519919418,174.50196515619294,13.646004336924854,-131.8363284516677,no_tremor
57,2046158,0.331,-0.5737778947011134,-0.2569895717434638,-0.8298353594379708,172.69260725729805,12.649978922533382,-132.38784655955996,no_tremor
58,2046163,0.336,-0.5538861924161743,-0.27697204867012576,-0.8047321644691222,170.5174508140362,11.637963503998698,-132.697989061471,no_tremor
59,2046168,0.341,-0.533040931762411,-0.29724566150215764,-0.7791568406422175,167.98770350285625,10.6153865984521,-132.7634345166771,no_tremor
60,2046173,0.346,-0.5113135399328593,-0.3177561893364749,-0.7532126882106187,165.11629227503016,9.587823671086712,-132.58201205339807,no_tremor
61,2046201,0.374,-0.4887817074430507,-0.33844811503839517,-0.7270050264530439,161.91776329516145,8.560925585157694,-132.1527341357248,no_tremor
62,2046206,0.379,-0.46552877409732324,-0.3592650283655109,-0.7006403638416832,158.40817098778564,7.5403476520677355,-131.47582088823336,no_tremor
63,2046211,0.384,-0.4416430533720021,-0.3801500426157209,-0.6742255554951802,154.60495729858636,6.531681173434052,-130.55271567954486,no_tremor
64,2046215,0.388,-0.41721710505860177,-0.4010462181980941,-0.6478669575311657,150.52682235463945,5.540389001311989,-129.38609174357958,no_tremor
65,2046220,0.393,-0.3923469665068841,-0.4218969862827234,-0.621669587903661,146.1935877682057,4.571746224549947,-127.9798496742156,no_tremor
66,2046225,0.398,-0.36713135287800713,-0.4426465657854073,-0.5957363031006953,141.62605386368722,3.630786672015064,-126.33910567989531,no_tremor
67,2046230,0.403,-0.34167083655675234,-0.46324036732619994,-0.5701669997265009,136.84585211538138,2.7222555533519803,-124.47017054993425,no_tremor
68,2046235,0.408,-0.3160670154039411,-0.4836253783815055,-0.5450578495402615,131.8752940702477,1.8505682619860642,-122.38051937163793,no_tremor
69,2046240,0.413,-0.29042167896288473,-0.5037505245528675,-0.5205005759960618,126.73721800448631,1.0197751527450662,-120.07875213869146,no_tremor
70,2046244,0.417,-0.2648359811438432,-0.5235670026479846,-0.4965817797397862,121.45483453295164,0.23353197568174786,-117.57454549295213,no_tremor
71,2046249,0.422,-0.23940962734860882,-0.543028582072407,-0.4733823198727405,116.05157235993391,-0.5049244113098016,-114.87859593415618,no_tremor
72,2046254,0.427,-0.21424008349264853,-0.5620918718355821,-0.4509767570871339,110.55092532910224,-1.1927954294165006,-112.00255491226346,no_tremor
73,2046259,0.432,-0.18942181394491991,-0.5807165512606636,-0.4294328640102597,104.9763018980227,-1.8277356011095962,-108.95895628676355,no_tremor
74,2046264,0.437,-0.16504555502918072,-0.5988655632361098,-0.40881120725867215,99.35087812657662,-2.4078630716506093,-105.76113669944864,no_tremor
75,2046269,0.442,-0.1411976303971217,-0.6165052695435072,-0.38916480480373294,93.69745522727327,-2.931766007459063,-102.42314946496585,no_tremor
76,2046274,0.447,-0.1179593142688527,-0.6336055684278689,-0.3705388612959684,88.03832267827265,-3.398504961777893,-98.95967263844247,no_tremor
77,2046279,0.452,-0.09540624821452594,-0.6501399751349028,-0.35297058300310574,82.39512784642021,-3.8076112226682155,-95.38591197130994,no_tremor
78,2046284,0.457,-0.07360791679691163,-0.6660856666193544,-0.3364890730032413,76.78875300717358,-4.159081103798505,-91.71749951442052,no_tremor
79,2046288,0.461,-0.05262718698464032,-0.6814234920282825,-0.3211153062595453,71.23920058202901,-4.453366111038693,-87.97038867223019,no_tremor
80,2046293,0.466,-0.032519915757763654,-0.6961379508851846,-0.30686218320658765,65.76548734567642,-4.691358922739276,-84.16074655483054,no_tremor
81,2046298,0.471,-0.0133346297416145,-0.7102171411501258,-0.29373465952173994,60.385548288991075,-4.87437516259104,-80.30484451715435,no_tremor
82,2046326,0.499,0.004887719994360851,-0.7236526795139157,-0.28172994885885644,55.11615076186669,-5.0041310206800365,-76.41894781661206,no_tremor
83,2046331,0.504,0.02211392565643243,-0.7364395964087921,-0.27083779450569334,49.97281945847284,-5.082716883039936,-72.5192053589508,no_tremor
84,2046336,0.509,0.038318611582059084,-0.7485762082944848,-0.26104080521172934,44.96977273661406,-5.112567246185812,-68.62154052958938,no_tremor
85,2046340,0.513,0.05348424386755057,-0.7600639698199761,-0.2523148498383717,40.11987066880951,-5.096427299248011,-64.74154411333683,no_tremor
86,2046345,0.518,0.06760106146680657,-0.7709073084788244,-0.24462950501983047,35.434575099040785,-5.037316636039753,-60.89437028385502,no_tremor
87,2046350,0.523,0.08066693051355996,-0.7811134443734654,-0.23794854968578102,30.92392183368513,-4.938490609361643,-57.09463660085205,no_tremor
88,2046355,0.528,0.09268712461678147,-0.7906921976788233,-0.23223050006827944,26.59650494377874,-4.8033998666811035,-53.356328898187414,no_tremor
89,2046360,0.533,0.10367403478598124,-0.7996557863441672,-0.22742917867239595,22.459473011194426,-4.635648618149588,-49.692711886283945,no_tremor
90,2046365,0.538,0.11364681344245364,-0.808018616493839,-0.22349431061233965,18.518537019762597,-4.438952190017758,-46.11624622847352,no_tremor
91,2046369,0.542,0.12263095766002413,-0.815797067884807,-0.22037214068701447,14.77798947586464,-4.217094411347621,-42.63851278287661,no_tremor
92,2046374,0.547,0.1306578373601628,-0.823009276655907,-0.21800606458017968,11.24073424155998,-3.9738853703038592,-39.27014463062571,no_tremor
93,2046379,0.552,0.1377641746728689,-0.8296749174641739,-0.21633726761379632,7.908326475737172,-3.713120058506775,-36.02076744041705,no_tremor
94,2046384,0.557,0.14399148108015813,-0.8358149869516418,-0.2153053645550802,4.781022003840126,-3.4385383982309583,-32.89894865007883,no_tremor
95,2046389,0.562,0.14938545929604502,-0.8414515903248331,-0.21484903407737477,1.8578353733886213,-3.1537871177499377,-29.912155877245308,no_tremor
96,2046394,0.567,0.15399537711549138,-0.8466077326619164,-0.21490664160378145,-0.8633942003809898,-2.8623839048088153,-27.066724901327735,no_tremor
97,2046399,0.572,0.15787342069109633,-0.8513071163918426,-0.21541684442442255,-3.3859298380394716,-2.567684227492768,-24.367837486689854,no_tremor
98,2046404,0.577,0.16107403487268301,-0.8555739462182254,-0.21631917317891527,-5.714057822573832,-2.2728511670711957,-21.819509242880134,no_tremor
99,2046408,0.581,0.1636532583699036,-0.8594327425908993,-0.21755458404111408,-7.853003148109908,-1.9808285607564124,-19.424587643463777,no_tremor
100,2046413,0.586,0.16566806156683178,-0.8629081646622023,-0.21906597623810217,-9.80884070496973,-1.6943177055111431,-17.184760251498968,no_tremor
101,2046418,0.591,0.16717569482396444,-0.8660248435045041,-0.22079866988236665,-11.588403020886611,-1.4157578282625731,-15.100573126640999,no_tremor
102,2046423,0.596,0.16823305504132174,-0.8688072262109411,-0.22270083949588948,-13.199185474725729,-1.1473104839905774,-13.171459314563453,no_tremor
103,2046448,0.621,0.16889607812173504,-0.8712794313529684,-0.22472389905730747,-14.649249886863222,-0.8908480017988446,-11.395777242128794,no_tremor
104,2046453,0.626,0.16921916475972693,-0.8734651161270349,-0.22682283490830543,-15.947127370178668,-0.647946059947197,-9.770858760566052,no_tremor
105,2046458,0.631,0.16925464667576737,-0.8753873553910195,-0.22895648341484498,-17.101721299033194,-0.4198804317051224,-8.293066492872335,no_tremor
106,2046463,0.636,0.16905229999807556,-0.8770685326735476,-0.23108775089590897,-18.122211222819214,-0.20762790119359675,-6.957860049308848,no_tremor
107,2046467,0.64,0.16865891194722937,-0.8785302431403587,-0.23318377400706045,-19.01795851748469,-0.011871299485529,-5.7598705759887645,no_tremor
108,2046472,0.645,0.16811790630049295,-0.8797932084231376,-0.23521601948995485,-19.79841453382071,0.1669914438564066,-4.692982998529294,no_tremor
109,2046478,0.651,0.16746903231669766,-0.8808772031563142,-0.23716032295632195,-20.473031965761063,0.3288343979556352,-3.750425218861742,no_tremor
110,2046482,0.655,0.16674812090851537,-0.8818009930238365,-0.23899686714835497,-21.051180125883448,0.47378710188525286,-2.9248634204187787,no_tremor
111,2046487,0.66,0.16598691087504797,-0.8825822840886967,-0.24071010089213463,-21.542064778866916,0.6022146963262844,-2.2085025353646492,no_tremor
112,2046492,0.665,0.16521294696868005,-0.8832376831611037,-0.24228860072593686,-21.954653146709894,0.7146950603117903,-1.5931908274235282,no_tremor
113,2046497,0.67,0.1644495504786921,-0.8837826689543603,-0.24372487793411143,-22.297604661980632,0.8119933512501395,-1.0705274460731233,no_tremor
114,2046502,0.675,0.16371586188072598,-0.8842315737778229,-0.24501513444639636,-22.57920800727661,0.895034393247794,-0.6319717137840679,no_tremor
115,2046507,0.68,0.16302695393401676,-0.8845975755200481,-0.2461589717725512,-22.80732494015241,0.9648733983279143,-0.2689528181126245,no_tremor
116,2046512,0.685,0.16239401241307708,-0.8848926996776707,-0.2471590578375045,-22.989341362381357,1.0226655380615723,0.027021506464395564,no_tremor
