sample,t_ms,t_s,ax,ay,az,gx,gy,gz,tremor
0,2602707,0.0,-0.10798420170359498,-0.8105762292695159,-0.5717859549064925,6.5885569087870355,4.875534568784945,-7.598519631916027,no_tremor
1,2602712,0.005,-0.10612168748936956,-0.8114024016954434,-0.5702966802875878,5.63633178581682,4.478115823627482,-6.543927035454498,no_tremor
2,2602717,0.01,-0.1035128286968328,-0.8125361297588789,-0.568155866114989,4.575733935873416,4.049758999764959,-5.393128838279197,no_tremor
3,2602721,0.014,-0.10007858063640417,-0.8139928092812273,-0.5652619235658923,3.4016560158496314,3.590884778895917,-4.142847992812398,no_tremor
4,2602726,0.019,-0.09587381734278302,-0.8157256295743192,-0.5616203738771963,2.109312960765076,3.102057108923581,-2.790154413134922,no_tremor
5,2602731,0.024,-0.09103034286629359,-0.8176540140447692,-0.557305279394195,0.694301673029174,2.5839835037645535,-1.3325112262560133,no_tremor
6,2602736,0.029,-0.08570040461156468,-0.8196899640359133,-0.5524158198766194,-0.847338549443629,2.0375154216284552,0.23217918755651318,no_tremor
7,2602741,0.034,-0.08002498687015404,-0.8217521107848714,-0.5470497241225082,-2.5190654112627358,1.4636487867388401,1.9055298528669102,no_tremor
8,2602746,0.039,-0.07412277884587519,-0.8237701040430647,-0.5412924741743663,-4.323773446775594,0.8635246915924621,3.688625065120443,no_tremor
9,2602751,0.044,-0.06809034137924905,-0.8256840179326186,-0.5352157677977855,-6.263734913431844,0.23843028453548878,5.581977992117279,no_tremor
10,2602755,0.048,-0.06200649229013973,-0.8274420400573054,-0.5288799131019113,-8.340542417582478,-0.4102001889252885,7.585490552336148,no_tremor
11,2602760,0.053,-0.05593730936768713,-0.828998054247644,-0.522337193230648,-10.555053963624413,-1.0807842629271132,9.698416121063222,no_tremor
12,2602765,0.058,-0.04994035817987891,-0.830309696450967,-0.5156349317925024,-12.907341137053036,-1.7715901617077552,11.919325619329904,no_tremor
13,2602770,0.063,-0.044067834472003874,-0.8313369787488094,-0.5088178795848097,-15.39664114555644,-2.4807359048723576,14.246077537962945,no_tremor
14,2602795,0.088,-0.038368731171300345,-0.8320413999334324,-0.5019299215405644,-18.021313448250716,-3.206188813904214,16.67579243857695,no_tremor
15,2602800,0.093,-0.03289024991601993,-0.8323854231875072,-0.4950152254085572,-20.778801700632386,-3.9457656679853392,19.204832454692987,no_tremor
16,2602805,0.098,-0.02767866679040621,-0.8323322141527836,-0.4881189686202244,-23.66560173208562,-4.69713378924743,21.828786289951758,no_tremor
17,2602810,0.103,-0.022779817434858456,-0.8318455577818488,-0.481287758185258,-26.67723625457056,-5.457813351725246,24.542460177977315,no_tremor
18,2602814,0.107,-0.018239321033088875,-0.8308898958689482,-0.47456982993693786,-29.808236975121154,-6.225181198815744,27.33987523072236,no_tremor
19,2602819,0.112,-0.014102625861094016,-0.8294304453473056,-0.46801508842311856,-33.052134748832245,-6.996476422412216,30.214271558503675,no_tremor
20,2602824,0.117,-0.010414932233145765,-0.8274333703677291,-0.46167502965259916,-36.40145836007864,-7.768807909748226,33.15811949373723,no_tremor
21,2602829,0.122,-0.00722103011994691,-0.824865989934792,-0.4556025753406803,-39.84774245536106,-8.5391640080693,36.163138189676154,no_tremor
22,2602833,0.126,-0.0045650763099901945,-0.8216970086364046,-0.44985183807215695,-43.3815450700261,-9.30442439705957,39.22032179350573,no_tremor
23,2602853,0.146,-0.002490327904962752,-0.8178967617016374,-0.4444778307413186,-46.99247509262711,-10.061374197199795,42.319973308947695,no_tremor
24,2602858,0.151,-0.0010388438033914693,-0.8134374679472373,-0.43953612979104995,-50.66922989572179,-10.806720280606616,45.45174616794334,no_tremor
25,2602863,0.156,-0.0002511626532416981,-0.808293485603885,-0.43508249945727234,-54.39964323354202,-11.537109691180058,48.60469342785893,no_tremor
26,2602868,0.161,-0.000165963867144912,-0.8024415668757251,-0.4311724829339562,-58.17074336963053,-12.249150025671126,51.76732440552908,no_tremor
27,2602878,0.171,-0.0008197172339953307,-0.795861107602008,-0.42786096576247246,-61.968821253680495,-12.939431578850416,54.9276684556243,no_tremor
28,2602882,0.175,-0.0022463261206850807,-0.7885343887041264,-0.42520171657994377,-65.77950841532926,-13.604551015059492,58.07334549733743,no_tremor
29,2602892,0.185,-0.004476769034123865,-0.7804468063078818,-0.42324691047099045,-69.58786408173629,-14.241136295592188,61.19164278798709,no_tremor
30,2602924,0.217,-0.007538744270052315,-0.7715870875850513,-0.42204664043978324,-73.37847085717512,-14.845872568705776,64.26959733526901,no_tremor
31,2602929,0.222,-0.0114563224177419,-0.7619474894905734,-0.4216484228669618,-77.13553813455236,-15.415528719627282,67.29408323638803,no_tremor
32,2602934,0.227,-0.016249611552146662,-0.7515239776968674,-0.422096703165537,-80.84301225588756,-15.94698428360366,70.25190314226111,no_tremor
33,2602939,0.232,-0.02193443998084672,-0.740316383152579,-0.4234323681370752,-84.48469231917095,-16.437256445018935,73.12988298091545,no_tremor
34,2602943,0.236,-0.028522061393812956,-0.728328533825681,-0.42569227170620116,-88.04435045169784,-16.883526874986924,75.91496904176589,no_tremor
35,2602948,0.241,-0.03601888717883975,-0.7155683593375567,-0.4289087807563374,-91.50585532863276,-17.283168190045576,78.59432651419927,no_tremor
36,2602953,0.246,-0.04442625051588846,-0.7020479663621731,-0.43310934770514214,-94.85329769581399,-17.633769836635935,81.15543857588312,no_tremor
37,2602958,0.251,-0.053740206654969126,-0.6877836828570257,-0.4383161162567655,-98.07111664647168,-17.93316321408682,83.58620512907375,no_tremor
38,2602963,0.256,-0.06395137351867766,-0.6727960694115224,-0.4445455664615952,-101.14422539777738,-18.179445840990955,85.87504028474062,no_tremor
39,2602968,0.261,-0.07504481645401972,-0.6571098962434913,-0.45180820481198825,-104.05813531369911,-18.371004347041247,88.01096769547006,no_tremor
40,2602972,0.265,-0.08699998058930176,-0.6407540846456686,-0.46010830461347474,-106.79907692535333,-18.506536036519815,89.98371283997139,no_tremor
41,2602982,0.275,-0.09979067383070661,-0.623761611983806,-0.46944370130428964,-109.3541167094516,-18.585068722586186,91.78379136548398,no_tremor
42,2602987,0.28,-0.1133851030597714,-0.6061693796809182,-0.4798056467611466,-111.71126840158576,-18.605978475948053,93.40259260062106,no_tremor
43,2602992,0.285,-0.12774596556817364,-0.5880180439925525,-0.49117872593522666,-113.85959764827037,-18.56900487326448,94.83245736254723,no_tremor
44,2602997,0.29,-0.1428305971917767,-0.5693518097883351,-0.5035408384187491,-115.78931884461423,-18.474263279626715,96.0667492025723,no_tremor
45,2603002,0.295,-0.15859117798329375,-0.5502181880063632,-0.516863246757596,-117.49188306467002,-18.322253666571424,97.09991826624592,no_tremor
46,2603007,0.3,-0.174974995591516,-0.5306677179394937,-0.5311106925048931,-118.96005606649548,-18.113865460254456,97.92755698822032,no_tremor
47,2603012,0.305,-0.19192476579084358,-0.5107536560457523,-0.5462415801556728,-120.18798544147242,-17.850377938403696,98.54644689726418,no_tremor
48,2603016,0.309,-0.20937900882044566,-0.49053163354764867,-0.5622082282110229,-121.17125607796746,-17.533455753748424,98.95459587242286,no_tremor
49,2603045,0.338,-0.22727247933766417,-0.47005928569431904,-0.5789571856866766,-121.90693322444542,-17.16513926089156,99.15126526860426,no_tremor
50,2603050,0.343,-0.24553664685636328,-0.44939585619561667,-0.5964296114063424,-122.39359256716,-16.74782946570474,99.13698642027201,no_tremor
51,2603054,0.347,-0.26410022252967413,-0.4286017809669614,-0.6145617124230038,-122.63133688257226,-16.28426759494745,98.91356613525579,no_tremor
52,2603069,0.362,-0.2828897270717606,-0.40773825589108914,-0.6332852369360595,-122.62179898402286,-15.777509480915056,98.48408090436423,no_tremor
53,2603079,0.372,-0.30183009354572315,-0.3868667937460648,-0.6525280161764659,-122.36813085191622,-15.230895147701448,97.85285967263884,no_tremor
54,2603083,0.376,-0.32084529775080983,-0.3660487757284775,-0.6722145489688937,-121.87497900852574,-14.648014150945766,97.02545514156789,no_tremor
55,2603088,0.381,-0.3398590081142136,-0.3453450031041871,-0.6922666220891383,-121.14844636387134,-14.032667347622937,96.00860369742038,no_tremor
56,2603093,0.386,-0.35879524641515104,-0.3248152544511548,-0.712603959139348,-120.19604091358259,-13.388825852710658,94.81017419007306,no_tremor
57,2603098,0.391,-0.37757905038406847,-0.30451785373911716,-0.7331448904583269,-119.0266118134494,-12.720587983887174,93.43910592035378,no_tremor
58,2603108,0.401,-0.3961371292147632,-0.2845092541532312,-0.7538070365340597,-117.65027349022486,-12.032135019211637,91.90533633122308,no_tremor
59,2603112,0.405,-0.41439850325238314,-0.2648436421537089,-0.7745079974394906,-116.07831857490046,-11.327686607670211,90.21971903610948,no_tremor
60,2603117,0.41,-0.4322951195178311,-0.2455725658066607,-0.7951660409220969,-114.32312056200409,-10.611456679959689,88.39393295229391,no_tremor
61,2603122,0.415,-0.44976243524756176,-0.22674459094999228,-0.8157007819072408,-112.39802720414495,-9.887610699632928,86.44038343443725,no_tremor
62,2603127,0.42,-0.4667399622234228,-0.20840498829230247,-0.8360338463027656,-110.31724574291862,-9.160225062516503,84.37209642043052,no_tremor
63,2603132,0.425,-0.48317176530365247,-0.1905954540974529,-0.8560895121082991,-108.09572115425748,-8.433249387142098,82.20260670758022,no_tremor
64,2603137,0.43,-0.499006909216507,-0.17335386669361705,-0.8757953209388983,-105.74900864837738,-7.710472336920532,79.94584157156929,no_tremor
65,2603141,0.434,-0.5141998483276095,-0.15671408066895073,-0.8950826531817292,-103.29314171352279,-6.99549147517071,77.61600102369846,no_tremor
66,2603169,0.462,-0.5287107547406977,-0.14070576027635376,-0.9138872601414185,-100.74449703234575,-6.2916874783951116,75.22743607315826,no_tremor
67,2603174,0.467,-0.5425057807570843,-0.12535425325780195,-0.9321497467354639,-98.11965763164062,-5.602202828407545,72.79452641731238,no_tremor
68,2603179,0.472,-0.555557252441204,-0.11068050599112855,-0.9498159986361214,-95.4352756456944,-4.929924889911542,70.33155901476955,no_tremor
69,2603184,0.477,-0.5678437918670266,-0.09670102052407469,-0.9668375482882777,-92.70793607170746,-4.277473089941577,67.85260898999817,no_tremor
70,2603189,0.482,-0.5793503665816148,-0.0834278536622249,-0.9831718750063717,-89.95402286786334,-3.647189780786669,65.37142426810773,no_tremor
71,2603194,0.487,-0.5900682659030769,-0.07086865781267614,-0.9987826353520823,-87.18958869522369,-3.0411343027793465,62.90131525221243,no_tremor
72,2603198,0.491,-0.5999950048190127,-0.05902676277126768,-1.0136398211517421,-84.43022954218874,-2.4610797647976916,60.45505074859194,no_tremor
73,2603203,0.496,-0.6091341574052894,-0.047901297104486235,-1.0277198437464756,-81.69096539982887,-1.9085121184040716,58.044761227391774,no_tremor
74,2603208,0.501,-0.6174951227884133,-0.037487347241473,-1.0410055443098645,-78.98612807893139,-1.3846312025465113,55.681850382822304,no_tremor
75,2603213,0.506,-0.6250928276862749,-0.02777615187491104,-1.0534861312678343,-76.3292571754785,-0.8903535614052921,53.376915827780856,no_tremor
76,2603218,0.511,-0.6319473704533624,-0.01875532878580984,-1.0651570469796448,-73.73300510195641,-0.42631696781257894,51.1396796244604,no_tremor
77,2603222,0.515,-0.6380836123117019,-0.010409130767648536,-1.0760197668657108,-71.20905200930571,0.00711329942535812,48.97892921644742,no_tremor
78,2603227,0.52,-0.6435307220636048,-0.0027187269395517856,-1.086081535086036,-68.76803132958878,0.40983628770394304,46.90246919156056,no_tremor
79,2603237,0.53,-0.6483216810641328,0.004337494585857688,-1.0953550416797249,-66.41946657243679,0.7820051248000364,44.91708417103254,no_tremor
80,2603242,0.535,-0.6524927555979584,0.010783606969799388,-1.1038580467754922,-64.17171990798803,1.124014501081458,43.028512991418516,no_tremor
81,2603247,0.54,-0.656082944082408,0.016645812320482938,-1.1116129580829937,-62.03195296394975,1.4364857282356898,41.24143422111612,no_tremor
82,2603252,0.545,-0.6591334067335811,0.02195210134264081,-1.118646368383535,-60.00610015370102,1.720249313735873,39.5594629333656,no_tremor
83,2603257,0.55,-0.6616868855093846,0.026731909548620866,-1.1249885601633662,-58.09885473663803,1.9763251194021343,37.98515854277908,no_tremor
84,2603262,0.555,-0.6637871222966963,0.031015774544204913,-1.1306729848783372,-56.31366769354026,2.205900321510963,36.52004340458331,no_tremor
85,2603267,0.56,-0.6654782834424954,0.03483499874670221,-1.1357357246076305,-54.65275938106656,2.410305538279946,35.16463177638229,no_tremor
86,2603292,0.585,-0.6668043988310678,0.03822132166024252,-1.140214944045916,-53.11714381174233,2.590989620494242,33.918468651724844,no_tremor
87,2603297,0.59,-0.6678088237552022,0.041206605532577836,-1.1441503408903015,-51.70666528897974,2.7494936967429897,32.78017789230167,no_tremor
88,2603302,0.595,-0.6685337317669057,0.04382253785982443,-1.1475826026811344,-50.420047010449245,2.887425110267926,31.747519009623336,no_tremor
89,2603307,0.6,-0.6690196464477565,0.04610035380264118,-1.1505528780213303,-49.25495113743009,3.0064318693658145,30.817451875907622,no_tremor
90,2603312,0.605,-0.6693050195428722,0.048070581142266935,-1.1531022697961681,-48.20804971317895,3.1081781630830587,29.98620857687398,no_tremor
91,2603317,0.61,-0.6694258621323562,0.04976280994969277,-1.1552713575342217,-47.27510570054727,3.1943213903206025,29.24937155652367,no_tremor
92,2603321,0.614,-0.6694154344976986,0.05120548867594311,-1.1570997554061158,-46.45106329761871,3.266491038013441,28.60195714637326,no_tremor
93,2603331,0.624,-0.6693039991328151,0.05242574790373234,-1.1586257115813712,-45.73014657857045,3.326269638323254,28.038503519296167,no_tremor
94,2603336,0.629,-0.6691186400092041,0.05344925253722545,-1.15988575378678,-45.10596539431324,3.3751759429515666,27.553162061181254,no_tremor
95,2603341,0.634,-0.6688831497868629,0.054300082753890165,-1.160914384961826,-44.57162735371056,3.414650380060096,27.139791111561717,no_tremor
96,2603346,0.639,-0.6686179852161244,0.0550006436076271,-1.1617438319139826,-44.11985459123944,3.4460428118345487,26.7920509855338,no_tremor
97,2603350,0.643,-0.6683402895409215,0.05557160276227005,-1.1624038488622839,-43.743103910402525,3.4706025921588193,26.50349915131338,no_tremor
98,2603355,0.648,-0.668063979320461,0.05603185545420144,-1.162921576739955,-43.43368877388436,3.4894709320502617,26.267684398840352,no_tremor
