sample,t_ms,t_s,ax,ay,az,gx,gy,gz,tremor
0,2669312,0.0,-0.1468017744009,-0.7892139331293275,-0.5586222422001673,-1.0417489854200233,-6.524173380343502,1.7673703108072787,no_tremor
1,2669317,0.005,-0.14672584709697853,-0.7857745317812275,-0.5573016874591606,-6.807689471087983,-6.797563935485544,8.029963773737489,no_tremor
2,2669322,0.01,-0.14687114524127406,-0.7808940981419679,-0.5556030908892956,-12.596745629436104,-7.0586206884821285,14.226521600166935,no_tremor
3,2669327,0.015,-0.1474073252178535,-0.774373001744351,-0.553576023748923,-18.392933912216304,-7.304340998163547,20.336186110748454,no_tremor
4,2669332,0.02,-0.14850645209432686,-0.766250465634366,-0.551364758164065,-24.179945744876672,-7.531661554709888,26.338293600170058,no_tremor
5,2669336,0.024,-0.1503088781182739,-0.756707846136215,-0.549148667609702,-29.941210426203323,-7.7374837055630685,32.2124886631209,no_tremor
6,2669341,0.029,-0.15291371961291328,-0.7459679483730975,-0.5470975194628415,-35.65996226758455,-7.918701181133884,37.938839940242126,no_tremor
7,2669346,0.034,-0.1563838948249928,-0.7342365977256965,-0.5453524827896177,-41.31931216797764,-8.072230114626866,43.49795695064059,no_tremor
8,2669351,0.039,-0.16075529943118796,-0.7216809972541787,-0.5440238590093928,-46.9023236682634,-8.195041202775133,48.871107505817946,no_tremor
9,2669356,0.044,-0.16604488363864472,-0.7084286582897275,-0.543195892881544,-52.3920933426331,-8.28419379916869,54.040334994965335,no_tremor
10,2669361,0.049,-0.17225624611038223,-0.6945744910242776,-0.5429330203155142,-57.77183516590783,-8.336871669587191,58.98857459457748,no_tremor
11,2669584,0.272,-0.17938303337658476,-0.6801894583903236,-0.5432852341873661,-63.02496824682345,-8.350420070806654,63.69976718925566,no_tremor
12,2669589,0.277,-0.18741083369277742,-0.6653281298564109,-0.5442920127898472,-68.13520705389841,-8.322383743290928,68.1589695146861,no_tremor
13,2669594,0.282,-0.1963181695263574,-0.6500344546895012,-0.5459849542538567,-73.08665302732143,-8.25054533901563,72.35245880394622,no_tremor
14,2669599,0.287,-0.20607700559808953,-0.6343458743226943,-0.5483894404600628,-77.86388633115156,-8.132963745291004,76.26783011407834,no_tremor
15,2669604,0.292,-0.21665302952930376,-0.6182961246349861,-0.5515256357164755,-82.45205648971063,-7.968011717617699,79.89408457446376,no_tremor
16,2669609,0.297,-0.22800585315020558,-0.6019170819124711,-0.555409054227292,-86.83697074416763,-7.754412196064958,83.22170699916373,no_tremor
17,2669613,0.301,-0.2400892153406885,-0.5852399386641318,-0.5600508601359477,-91.00517910176475,-7.4912726430697525,86.24273156960444,no_tremor
18,2669618,0.306,-0.2528512280269381,-0.5682959201676754,-0.5654580093904076,-94.94405518815684,-7.178116700712901,88.95079456882517,no_tremor
19,2669623,0.311,-0.2662346846898734,-0.5511166899426899,-0.5716333042870025,-98.6418721372999,-6.814912422360293,91.34117341484968,no_tremor
20,2669628,0.316,-0.28017743825914654,-0.5337345457303683,-0.5785754058082098,-102.08787286039438,-6.402096291466954,93.4108114950598,no_tremor
21,2669656,0.344,-0.29461284822908457,-0.5161824748062144,-0.5862788320428248,-105.27233412544439,-5.94059220714952,95.15832854455662,no_tremor
22,2669661,0.349,-0.3094702927566693,-0.49849411517606085,-0.594733960111327,-108.18662395404802,-5.431824604757735,96.58401653745076,no_tremor
23,2669666,0.354,-0.32467573903850144,-0.4807036543351733,-0.6039270420461006,-110.82325190795058,-4.877724910939493,97.68982126777115,no_tremor
24,2669671,0.359,-0.3401523637367427,-0.4628456874166022,-0.6138402406401229,-113.17591190302771,-4.28073062936826,98.47930998326085,no_tremor
25,2669676,0.364,-0.3558212143132078,-0.4449550499988003,-0.624451688515379,-115.23951725844407,-3.6437765230602404,98.95762560022541,no_tremor
26,2669681,0.369,-0.37160190166317125,-0.4270666364205054,-0.6357355720106369,-117.01022776343788,-2.970277585338625,99.13142817323141,no_tremor
27,2669686,0.374,-0.387413314287325,-0.4092152114154146,-0.6476622405614267,-118.48546861966966,-2.2641037444747214,99.00882442309614,no_tremor
28,2669691,0.379,-0.40317434429508997,-0.3914352207603422,-0.6601983417730514,-119.66394119041074,-1.5295465010644238,98.59928624240287,no_tremor
29,2669696,0.384,-0.41880461571472816,-0.37376060512988235,-0.6733069821823922,-120.54562555804344,-0.7712779348039209,97.91355920037178,no_tremor
30,2669701,0.389,-0.43422520584157576,-0.35622462027480845,-0.6869479136343051,-121.13177495791666,0.005697273166474347,96.9635621580787,no_tremor
31,2669705,0.393,-0.4493593506546357,-0.3388596658629511,-0.7010777451682446,-121.42490221880105,0.7960959818556007,95.76227918035691,no_tremor
32,2669710,0.398,-0.4641331256609784,-0.3216971247533446,-0.715650180251346,-121.42875839735073,1.5944159394611037,94.32364499190325,no_tremor
33,2669715,0.403,-0.478476093884095,-0.30476721405576923,-0.7306162790585083,-121.14830384608348,2.3949992861394094,92.66242527129427,no_tremor
34,2669720,0.408,-0.4923219130991298,-0.28809884901380783,-0.7459247452609381,-120.58967200227201,3.1920990965659177,90.79409310630687,no_tremor
35,2669725,0.413,-0.5056088948454005,-0.27171952050663284,-0.7615222364325599,-119.76012623012143,3.9799478211051555,88.7347029458838,no_tremor
36,2669730,0.418,-0.5182805082365025,-0.2556551867666529,-0.7773536967242762,-118.66801009183663,4.7528264841001375,86.50076337795853,no_tremor
37,2669734,0.422,-0.5302858221704346,-0.23993017973584116,-0.7933627099077819,-117.32269146518149,5.505133516833325,84.10911003856006,no_tremor
38,2669739,0.427,-0.5415798802479445,-0.22456712631646916,-0.8094918702835384,-115.73450096570221,6.231452132965588,81.57677991724493,no_tremor
39,2669744,0.432,-0.5521240035639102,-0.2095868845997591,-0.8256831683221553,-113.91466517011337,6.926615188590788,78.92088826884763,no_tremor
40,2669749,0.437,-0.5618860175637173,-0.19500849497018383,-0.8418783873133265,-111.87523517251967,7.5857665030218,76.15850927376621,no_tremor
41,2669776,0.464,-0.5708404003639332,-0.18084914577930852,-0.8580195067820673,-109.62901103671453,8.204417650076474,73.30656150931885,no_tremor
42,2669781,0.469,-0.5789683513183134,-0.16712415306186731,-0.8740491080480555,-107.18946273483255,8.778499271180614,70.38169920218932,no_tremor
43,2669786,0.474,-0.5862577801332834,-0.1538469535351541,-0.8899107771045044,-104.57064818189477,9.30440603107558,67.40021012460674,no_tremor
44,2669791,0.479,-0.5927032184328868,-0.14102910989397535,-0.9055495000315129,-101.78712898277887,9.779034458038716,64.37792087438172,no_tremor
45,2669796,0.484,-0.5983056572466985,-0.12868032720574818,-0.9209120464557641,-98.85388450175273,10.199813089057269,61.330110146526074,no_tremor
46,2669801,0.489,-0.6030723153482086,-0.11680847904523371,-0.9359473370794399,-95.7862248489666,10.564724553232747,58.27143047214089,no_tremor
47,2669806,0.494,-0.6070163446252101,-0.10541964190646623,-0.950606791926244,-92.59970335802909,10.872319438571186,55.21583877685801,no_tremor
48,2669811,0.499,-0.6101564796586696,-0.0945181364062648,-0.9648446565771163,-89.31002910574244,11.121721974563972,52.17653599715546,no_tremor
49,2669825,0.513,-0.6125166393825427,-0.08410657385706717,-0.978618304197586,-85.93297999956572,11.312627719763661,49.165915883582144,no_tremor
50,2669830,0.518,-0.6141254890731959,-0.07418590693445663,-0.9918885115306116,-82.48431693176293,11.44529357433588,46.195523010974505,no_tremor
51,2669835,0.523,-0.6150159709755928,-0.06475548338187748,-1.0046197072208787,-78.9796994725399,11.520520549012172,43.276019906730255,no_tremor
52,2669840,0.528,-0.6152248116462042,-0.05581310195475633,-1.016780190869671,-75.43460354672105,11.539629818814502,40.417163102292406,no_tremor
53,2669845,0.533,-0.6147920136438402,-0.04735507007667018,-1.0283423211492981,-71.86424150814517,11.504432674294941,37.627787814781925,no_tremor
54,2669850,0.538,-0.6137603386147794,-0.03937626293443917,-1.0392826712042196,-68.28348499385444,11.417195054701075,34.9158008792535,no_tremor
55,2669854,0.542,-0.612174788183677,-0.03187018395974509,-1.0495821495027962,-64.70679090962999,11.280597405312186,32.28818147970744,no_tremor
56,2669859,0.547,-0.6100820884457023,-0.024829026822003185,-1.0592260843379344,-61.148130872850146,11.097690643437184,29.750989169252023,no_tremor
57,2669864,0.552,-0.6075301833026032,-0.018243739184722503,-1.0682042703469514,-57.62092441976586,10.87184904222937,27.309378625908472,no_tremor
58,2669869,0.557,-0.604567741415865,-0.0121040885533793,-1.0765109757467182,-54.13797627246339,10.606720847317261,24.96762055932134,no_tremor
59,2669874,0.562,-0.6012436811621381,-0.006398730569771393,-1.0841449094519264,-50.71141795582646,10.30617742844663,22.72912816387235,no_tremor
60,2669900,0.588,-0.5976067176507215,-0.0011152800931124758,-1.0911091478370836,-47.35265405611919,9.974261737875574,20.596488503983583,no_tremor
61,2669905,0.593,-0.593704935568195,0.0037596146390365074,-1.0974110215770332,-44.07231341817621,9.615136799938213,18.571498215922723,no_tremor
62,2669910,0.598,-0.5895853913089306,0.008240194547409808,-1.1030619637001202,-40.88020558187811,9.233034892651226,16.655202915188987,no_tremor
63,2669915,0.603,-0.5852937474858024,0.012341508808359618,-1.108077320642918,-37.78528275246888,8.832208005030488,14.847939708207955,no_tremor
64,2669920,0.608,-0.5808739424588777,0.01607933046855494,-1.1124761286431517,-34.795607578818284,8.416880069796933,13.149382221639518,no_tremor
65,2669925,0.613,-0.5763678969657026,0.019470068628826265,-1.1162808582172101,-31.918326982318067,7.99120139151542,11.558587583000087,no_tremor
66,2669929,0.617,-0.571815259307694,0.022530677340658636,-1.1195171297460895,-29.15965224422199,7.559205626832727,10.0740448127751,no_tremor
67,2669934,0.622,-0.5672531898789427,0.02527856144471991,-1.1222134033653832,-26.524845525927756,7.124769634619395,8.693724119834664,no_tremor
68,2669939,0.627,-0.5627161851521916,0.02773147966058946,-1.1244006464523613,-24.018212965852808,6.691576501373,7.4151266275251295,no_tremor
69,2669944,0.632,-0.5582359405929752,0.02990744531176407,-1.1261119820553775,-21.64310446735745,6.263082056698926,6.235334096476548,no_tremor
70,2669949,0.637,-0.5538412513834404,0.03182462514196017,-1.1273823216431234,-19.401920263717333,5.842485215461115,5.151058251270113,no_tremor
71,2669954,0.642,-0.5495579493244793,0.033501236749653454,-1.1282479855845762,-17.2961243161263,5.4327025026055855,4.158689360733071,no_tremor
72,2669959,0.647,-0.5454088738653378,0.034955445239358014,-1.1287463148203318,-15.32626456295847,5.036347114290436,3.2543437658581333,no_tremor
73,2669969,0.657,-0.5414138748920309,0.03620525976168433,-1.1289152772620714,-13.49199998440038,4.655712827172826,2.433910098341971,no_tremor
74,2669973,0.661,-0.5375898446861844,0.037268430691180354,-1.1287930725644109,-11.792134371555797,4.292762980608034,1.693093990160497,no_tremor
75,2669978,0.666,-0.5339507763297019,0.03816234827358284,-1.128417739055184,-10.224656597773345,3.9491246330600576,1.0274611361400936,no_tremor
76,2669983,0.671,-0.5305078457580487,0.03890394366515031,-1.1278267667875994,-8.786787093177127,3.6260878531959664,0.43247862210889115,no_tremor
77,2669988,0.676,-0.5272695146398857,0.03950959338743607,-1.1270567208884887,-7.475030132045642,3.3246099702810477,-0.09644554347611795,no_tremor
78,2669993,0.681,-0.5242416512783308,0.03999502832803933,-1.1261428796127173,-6.285231463608066,3.0453244953413408,-0.5639247574670007,no_tremor
79,2669998,0.686,-0.5214276667964525,0.04037524852272698,-1.1251188917593675,-5.21264075182714,2.7885543400439325,-0.9745580883801693,no_tremor
80,2670021,0.709,-0.5188286640005201,0.0406644450431999,-1.1240164583381802,-4.251978236331176,2.554328899289252,-1.3328965774583519,no_tremor
81,2670026,0.714,-0.5164435965206793,0.040875930370285044,-1.1228650435618204,-3.3975049804370734,2.34240451836619,-1.643411682076609,no_tremor
82,2670031,0.719,-0.5142694361101251,0.041022078633838416,-1.1216916203273721,-2.6430960298626087,2.1522878329395496,-1.9104659736671905,no_tremor
83,2670040,0.728,-0.5123013463224179,0.041114277027986534,-1.1205204552655055,-1.9823157666586029,1.9832614518389364,-2.1382862036322314,no_tremor
84,2670045,0.733,-0.5105328611471887,0.041162889553303356,-1.1193729381112132,-1.408494708398614,1.8344114505932334,-2.330938851733055,no_tremor
85,2670050,0.738,-0.5089560675229007,0.0411772340039132,-1.118267459562747,-0.9148069737894626,1.7046561561655935,-2.4923082717262792,no_tremor
86,2670055,0.743,-0.5075617909189641,0.04116557283011032,-1.1172193409732782,-0.4943476121733527,1.5927757254655648,-2.626077546194489,no_tremor
87,2670060,0.748,-0.5063397833573146,0.04113511819210784,-1.1162408182164394,-0.14020897454538794,1.4974420468018663,-2.7357121550029935,no_tremor
88,2670065,0.753,-0.5052789133126503,0.04109205119845397,-1.1153410809350426,0.1544447135135255,1.4172485210365584,-2.8244465494165523,no_tremor
89,2670070,0.758,-0.5043673568945708,0.04104155500616233,-1.1145263671646715,0.3963054319621178,1.350739306209456,-2.8952737072557975,no_tremor
90,2670075,0.763,-0.5035927895867232,0.04098786115541488,-1.1138001120536078,0.5918529681372211,1.2964376349995521,-2.9509377245961983,no_tremor
