sample,t_ms,t_s,ax,ay,az,gx,gy,gz,tremor
0,784771,0.0,-0.21647631477136794,-0.18672254660979762,-1.031743888400104,-1.87418259904481,-46.063886514565674,-0.7274089524964807,no_tremor
1,784776,0.005,-0.2183806679054037,-0.18687612181616428,-1.0270016148145058,-2.2002385087104273,-66.11210388472523,-0.1298925052435193,no_tremor
2,784780,0.009,-0.22133523325940463,-0.1870739619574366,-1.019818949892589,-2.4993374943759696,-85.42607247998828,0.4346747807487759,no_tremor
3,784785,0.014,-0.225624176168434,-0.18731113423804688,-1.0096148035042054,-2.769417669752929,-103.91360177296237,0.9636014888750581,no_tremor
4,784790,0.019,-0.23139645724512534,-0.18757223680990934,-0.9961479091179112,-3.008542341786114,-121.48488117096322,1.4543389211586681,no_tremor
5,784795,0.024,-0.23868733751302643,-0.18783825654697747,-0.979440465377947,-3.2149178075947433,-138.05306614221715,1.904495843477289,no_tremor
6,784805,0.034,-0.2474666953785211,-0.18809164922744967,-0.9596513543735605,-3.386910974944618,-153.53487193123803,2.311852808674143,no_tremor
7,784835,0.064,-0.25767755599808334,-0.1883184514102719,-0.9369832744733967,-3.5230666617363346,-167.85117247464328,2.674376043424126,no_tremor
8,784840,0.069,-0.2692575841260769,-0.18850848420722877,-0.9116349692068042,-3.6221244065561966,-180.92760134315333,2.990230857423347,no_tremor
9,784845,0.074,-0.2821476438935299,-0.1886547600975044,-0.8837848966720325,-3.6830345979187213,-192.69515064307043,3.2577945011936875,no_tremor
10,784850,0.079,-0.2962931849052425,-0.18875273579421598,-0.85359109761478,-3.7049737061980244,-203.09076281587707,3.475668360606419,no_tremor
11,784855,0.084,-0.3116425378953868,-0.18879967179121004,-0.8211972945528165,-3.6873583807265717,-212.05790918366992,3.6426893311624693,no_tremor
12,785106,0.335,-0.32814434028827144,-0.18879415855259324,-0.7867401546676348,-3.6298581554405014,-219.54714791748628,3.757940164262268,no_tremor
13,785111,0.34,-0.3457450870818151,-0.18873579085613448,-0.7503556417500735,-3.5324064891690297,-225.5166529236541,3.8207585275528224,no_tremor
14,785121,0.35,-0.36438715567965047,-0.1886249522821989,-0.712183868509547,-3.3952098502185404,-229.93270413229365,3.8307444869811387,no_tremor
15,785125,0.354,-0.3840073610642777,-0.18846267458245755,-0.6723724822758411,-3.218754539053199,-232.77012909955943,3.787766118765125,no_tremor
16,785130,0.359,-0.4045359874827356,-0.18825054516451697,-0.6310788195325455,-3.003810930153337,-234.01268588523604,3.6919630037215008,no_tremor
17,785144,0.373,-0.4258962148764816,-0.1879906441405796,-0.5884710900726138,-2.751434811220674,-233.6533778145028,3.543747432624582,no_tremor
18,785149,0.378,-0.448003862643782,-0.18768549871762255,-0.5447288151345516,-2.4629655148500658,-231.69469181766436,3.343803236904092,no_tremor
19,785154,0.383,-0.47076738737320634,-0.187338047154654,-0.5000426946982961,-2.1400205860064343,-228.14875341474766,3.093082235598118,no_tremor
20,785163,0.392,-0.4940880857710402,-0.1869516075045402,-0.4546140352052722,-1.7844868176476123,-223.03739297426415,2.792798348158422,no_tremor
21,785168,0.397,-0.5178604660325944,-0.18652984833307112,-0.40865383506159797,-1.3985076189752785,-216.39211955479365,2.444419462457824,no_tremor
22,785200,0.429,-0.5419727597955799,-0.18607675991028483,-0.3623816010691867,-0.9844668473789183,-208.25400038224905,2.0496571727998196,no_tremor
23,785205,0.434,-0.5663075528911174,-0.18559662523855344,-0.31602395252778215,-0.5449694165181808,-198.67344579916445,1.6104545211301267,no_tremor
24,785215,0.444,-0.590742516954849,-0.18509399087023784,-0.2698130590621063,-0.08281916037501547,-187.7099013396057,1.128971892953356,no_tremor
25,785220,0.449,-0.6151512261697732,-0.1845736378570969,-0.22398495138696692,0.3990054457530761,-175.43145042842704,0.6075712438400531,no_tremor
26,785293,0.522,-0.6394040445144769,-0.1840405533988185,-0.17877773976433287,0.8973770544195943,-161.91433303807207,0.04879886848713178,no_tremor
27,785324,0.553,-0.6633690693482329,-0.1834999038299772,-0.13442977181067106,1.4090460724841463,-147.24238734559916,-0.5446330276073805,no_tremor
28,785328,0.557,-0.686913117396923,-0.18295700950907617,-0.09117775892247137,1.930667586383785,-131.50642280498283,-1.1698656470159434,no_tremor
29,785343,0.572,-0.7099027395695555,-0.18241732196069108,-0.04925489846521469,2.458828127353155,-114.80353385075679,-1.823913481626527,no_tremor
30,785348,0.577,-0.7322052517425595,-0.18188640329260952,-0.008889016729887782,2.990071915720843,-97.23636359328326,-2.503684447736753,no_tremor
31,785377,0.606,-0.7536897696961479,-0.18136990749819246,0.029699244630075332,3.520926307356303,-78.91232650329981,-3.206000020869021,no_tremor
32,785387,0.616,-0.7742282376314413,-0.180873562811122,0.06629817840769223,4.047926237134861,-59.942798475675524,-3.9276151866691564,no_tremor
33,785391,0.62,-0.7936964409761614,-0.18040315387427408,0.10070668013513503,4.56763752080871,-40.44228200168212,-4.665238094813475,no_tremor
34,785396,0.625,-0.8119749953734565,-0.17996450219195803,0.13273581958263272,5.076678942345548,-20.527553542975333,-5.4155493640180685,no_tremor
35,785401,0.63,-0.8289503047542417,-0.17956344321148873,0.1622103025457788,5.571743118728089,-0.31679961380211297,-6.175221033432346,no_tremor
36,785406,0.635,-0.8445154821716314,-0.17920579844242715,0.18896981216607758,6.049616196176841,20.071252437042528,-6.940935187885314,no_tremor
37,785416,0.645,-0.858571227621684,-0.17889734124951956,0.2128702209590945,6.507196488933501,40.51820336961672,-7.70940230155046,no_tremor
38,785421,0.65,-0.8710266574085538,-0.1786437553126874,0.23378466641518897,6.941512222011153,60.90684543991627,-8.477379345145927,no_tremor
39,785446,0.675,-0.8818000797621305,-0.17845058520073673,0.2516044844994267,7.34973857725796,81.12201509868854,-9.241687683830891,no_tremor
40,785451,0.68,-0.890819711409623,-0.17832317902587783,0.26623999662656783,7.729214258825163,101.0514298689368,-9.999230757010377,no_tremor
41,785455,0.684,-0.8980243296686601,-0.1782666237026951,0.2776211467454123,8.07745778133028,120.5865041373413,-10.747011482772914,no_tremor
42,785460,0.689,-0.9033638544055239,-0.1782856738900175,0.28569798606143115,8.392183638903003,139.62313838216213,-11.482149278118113,no_tremor
43,785470,0.699,-0.9067998539346548,-0.17838467620739598,0.2904410036909758,8.671318441791481,158.0624761224317,-12.201896540228244,no_tremor
44,785475,0.704,-0.9083059686780455,-0.17856749075740072,0.29184130221303456,8.913017022083883,175.81162264923103,-12.903654397954108,no_tremor
45,785480,0.709,-0.907868246214839,-0.1788374123285428,0.2899106177073034,9.115678424668491,192.7843194164491,-13.584987516553646,no_tremor
46,785485,0.714,-0.9054853812960277,-0.17919709388467647,0.28468118448238466,9.277961621837685,208.90156785301937,-14.243637721394919,no_tremor
47,785495,0.724,-0.9011688545368985,-0.1796484750523693,0.27620544534347125,9.398800721749785,224.09219633019788,-14.877536197257275,no_tremor
48,785499,0.728,-0.8949429638778902,-0.18019271829112518,0.26455560895525854,9.477419380838814,238.29336407606417,-15.484814019972742,no_tremor
49,785504,0.733,-0.8868447435543328,-0.180830155272536,0.24982305664417626,9.513344076794104,251.45099597087042,-16.063810789121,no_tremor
50,785514,0.743,-0.8769237662542421,-0.18156024570952004,0.23211760186693853,9.506415851621533,263.52014239276906,-16.613081157907175,no_tremor
51,785519,0.748,-0.8652418253704951,-0.18238155047949814,0.21156660655401358,9.456800093647574,274.4652586408924,-17.131399102170583,no_tremor
52,785529,0.758,-0.8518724957483891,-0.18329172040000735,0.18831395961184916,9.364993893861266,284.2603989736653,-17.61775983593171,no_tremor
53,785534,0.763,-0.8369005730548617,-0.1842875014771502,0.16251892402176152,9.23183048835746,292.8893209946704,-18.071379364911973,no_tremor
54,785538,0.767,-0.8204213938067992,-0.18536475689693463,0.13435486018332196,9.058480289219395,300.345497014833,-18.49169176793083,no_tremor
55,785543,0.772,-0.802540040146241,-0.18651850550200869,0.10400783438997846,8.84644801525345,306.63203010853033,-18.878344401695053,no_tremor
56,785570,0.799,-0.7833704355947382,-0.18774297601332107,0.07167512257235574,8.597565465220956,311.76147381485885,-19.231191327963945,no_tremor
57,785580,0.809,-0.7630343402071155,-0.1890316758281979,0.03756362067870698,8.313979534936328,315.7555557415778,-19.55028535196987,no_tremor
58,785585,0.814,-0.7416602556967866,-0.19037747285898346,0.0018881742443158378,7.998135175096938,318.6448066442933,-19.835869121272527,no_tremor
59,785589,0.818,-0.7193822530957131,-0.1917726885738846,-0.03513015923026617,7.652753127315671,320.46809784442166,-20.0883657473258,no_tremor
60,785594,0.823,-0.6963387372028936,-0.19320920016421816,-0.07326590057619778,7.280802457092792,321.272091110361,-20.308369371010652,no_tremor
61,785599,0.828,-0.6726711633747886,-0.19467854958500852,-0.1122909766971093,6.885468103342376,321.11060636206923,-20.49663600918996,no_tremor
62,785609,0.838,-0.648522723104349,-0.1961720570935594,-0.15197656993871803,6.470113859652728,320.04391377667577,-20.65407491097397,no_tremor
63,785614,0.843,-0.6240370153536389,-0.19768093684513213,-0.19209497275043677,6.038241378337075,318.13795807847697,-20.781740532812492,no_tremor
64,785619,0.848,-0.5993567207802735,-0.1991964121066621,-0.23242143078750743,5.593445942000602,315.4635239967202,-20.880825115594135,no_tremor
65,785628,0.857,-0.5746222958446189,-0.2007098277292525,-0.2727359570708867,5.139369881042638,312.09535307057286,-20.952651717922006,no_tremor
66,785633,0.862,-0.5499707033142563,-0.20221275767915345,-0.3128250992778448,4.679654629494538,308.11122315485954,-20.998667435470434,no_tremor
67,785638,0.867,-0.5255341949226687,-0.20369710565458735,-0.3524836417086405,4.217892499371225,303.5910030735439,-21.020436432282203,no_tremor
68,785657,0.886,-0.5014391609386217,-0.20515519709401323,-0.39151622302450956,3.757579302332308,298.61569577952156,-21.01963234547573,no_tremor
69,785662,0.891,-0.47780506021997815,-0.20657986118765898,-0.4297388505853411,3.3020689454871666,293.26648399460794,-20.998029611536488,no_tremor
70,785667,0.896,-0.45474344302133973,-0.20796450181269563,-0.4669802923017055,2.854531073322945,287.62379251733677,-20.957493295522173,no_tremor
71,785694,0.923,-0.4323570774528017,-0.2093031565986177,-0.5030833275746701,2.417912725814981,281.7663811178751,-20.899967070426086,no_tremor
72,785704,0.933,-0.4107391890756284,-0.21059054358036455,-0.5379058403051993,1.9949048421421118,275.77048117587003,-20.827459082756874,no_tremor
73,785714,0.943,-0.38997282164769786,-0.21182209512393366,-0.5713217391313699,1.587914267132455,269.7089880437788,-20.74202554875597,no_tremor
74,785718,0.947,-0.37013032542595425,-0.21299397904824616,-0.6032216928273764,1.1990417207630644,263.6507196874813,-20.64575205005405,no_tremor
75,785724,0.953,-0.3512729776320793,-0.21410310715561245,-0.6335136718979767,0.8300659828942127,257.65975063247396,-20.54073263081366,no_tremor
76,785733,0.962,-0.3334507377123648,-0.2151471317318622,-0.6621232905563486,0.4824343453483523,251.79482876636789,-20.429046933550776,no_tremor
77,785738,0.967,-0.31670213799778063,-0.2161244309559617,-0.6889939462943592,0.15725920684677727,246.10888119682437,-20.312735744354992,no_tremor
78,785743,0.972,-0.30105430847532966,-0.21703408450538425,-0.7140867570541473,-0.14467946186815903,240.64861415108953,-20.193775447957922,no_tremor
79,785791,1.02,-0.28652313278294717,-0.21787584088377882,-0.7373802985773141,-0.4229261749558072,235.45421080131013,-20.074052015372683,no_tremor
80,785818,1.047,-0.27311353132022753,-0.21865007807427814,-0.758870146871213,-0.677336992853413,230.55912986321647,-19.955335256077266,no_tremor
81,785827,1.056,-0.26081986646595146,-0.21935775902463694,-0.7785682329292949,-0.9080621327585695,225.9900067785723,-19.839254153182992,no_tremor
82,785832,1.061,-0.24962646411455325,-0.22000038324892163,-0.7965020189049834,-1.1155247123430172,221.76665817594372,-19.72727414697628,no_tremor
83,785837,1.066,-0.2395082448678415,-0.22057993557020297,-0.8127135068826334,-1.3003962322424287,217.90218905841306,-19.62067722275843,no_tremor
84,785842,1.071,-0.23043145713583274,-0.2210988328017742,-0.8272580932217762,-1.4635694083140123,214.40320079692037,-19.52054558983426,no_tremor
85,785856,1.085,-0.22235450313838745,-0.2215598689982029,-0.8402032831794654,-1.6061289563839163,211.27009656062737,-19.4277496232897,no_tremor
86,785861,1.09,-0.21522884744752746,-0.22196615979330928,-0.8516272821533213,-1.729320914299057,208.4974793355785,-19.342940597177222,no_tremor
87,785866,1.095,-0.20899999635187996,-0.2223210862620108,-0.8616174814526194,-1.8345210624596593,206.074636191484,-19.266548579271348,no_tremor
88,785871,1.1,-0.20360853501492454,-0.22262823868612772,-0.8702688580148593,-1.9232029770030203,203.98610096084772,-19.19878568986654,no_tremor
89,785880,1.109,-0.19899120816914434,-0.22289136056834347,-0.8776823089552074,-1.996906221236932,202.2122860007675,-19.139654754665717,no_tremor
90,785885,1.114,-0.19508202895349333,-0.22311429322474344,-0.8839629432730364,-2.0572051528266564,200.73017222263567,-19.088963209457532,no_tremor
