sample,t_ms,t_s,ax,ay,az,gx,gy,gz,tremor
0,974616,0.0,-0.32160937664084943,-0.12941205488896426,-1.0179367130011547,-2.1092497163269415,30.459585041118878,-7.6897755298620725,no_tremor
1,974621,0.005,-0.3206528334230621,-0.12941079208704523,-1.0214098878481606,-1.985067964683657,31.910031253206512,-9.795022933612383,no_tremor
2,974647,0.031,-0.31921093227216224,-0.12941774299127562,-1.0262007264317452,-1.8243506989932108,32.97432746849536,-11.876074280889705,no_tremor
3,974651,0.035,-0.3171755630271326,-0.12944004761410444,-1.0324023643165845,-1.623798995501378,33.620038498709874,-13.923026308538258,no_tremor
4,974666,0.05,-0.3145109681438713,-0.12948586207136156,-1.0398561132300916,-1.3801276856812221,33.81580781457249,-15.925881074133253,no_tremor
5,974680,0.064,-0.31123728315413435,-0.12956312792784055,-1.0482672467754879,-1.0900882018462332,33.531639379366666,-17.874610955610923,no_tremor
6,974685,0.069,-0.30740404608426874,-0.12967905096742713,-1.0573130316306487,-0.7504915507296092,32.73918160803206,-19.75922652691411,no_tremor
7,974690,0.074,-0.30307094795536127,-0.12984008168197422,-1.0667005449078792,-0.3582312061713466,31.412011035006824,-21.56984692906035,no_tremor
8,974695,0.079,-0.29829798929258683,-0.13005208976068336,-1.0761848059522237,0.0896942632225542,29.52591311833236,-23.29677228984533,no_tremor
9,974700,0.084,-0.29314212883225244,-0.13032054838837256,-1.0855663400469664,0.5961589852120909,27.059157477864844,-24.9305576812806,no_tremor
10,974704,0.088,-0.28765723853002156,-0.13065066183083007,-1.0946815759034156,1.1638881122119642,23.99276476429595,-26.462088042251466,no_tremor
11,974709,0.093,-0.2818953000081752,-0.1310474304651342,-1.103392713775918,1.795436765568989,20.310762283000717,-27.8826534342436,no_tremor
12,974719,0.103,-0.27590780168775636,-0.13151566768676337,-1.1115794709647222,2.4931696321695154,16.00042545331509,-29.18402394085801,no_tremor
13,974724,0.108,-0.2697469161006047,-0.13205998515171866,-1.1191331148935193,3.2592412056556235,11.05250217245465,-30.358523469459346,no_tremor
14,974729,0.113,-0.2634663425581052,-0.13268475923731052,-1.1259524612872476,4.095576620074809,5.46141717812876,-31.3991016688295,no_tremor
15,974739,0.123,-0.25712182697935626,-0.13339408754788712,-1.131941353666574,5.003852979619021,-0.7745464300698577,-32.2994031424605,no_tremor
16,974743,0.127,-0.2507714110842726,-0.13419174120455976,-1.137007189060694,5.985481044821178,-7.653091238370192,-33.05383311333496,no_tremor
17,974770,0.154,-0.2444754675064084,-0.1350811166378923,-1.1410601558673215,7.0415870944858945,-15.167777699392854,-33.657618681626005,no_tremor
18,974804,0.188,-0.23829656938428173,-0.13606518938959458,-1.1440129452567376,8.172994747514899,-23.307926781544975,-34.10686481194791,no_tremor
19,974809,0.193,-0.23229923264795738,-0.13714647174506747,-1.145780771855108,9.380206509633457,-32.058555117491245,-34.39860419484664,no_tremor
20,974814,0.198,-0.22654956014660468,-0.1383269756398113,-1.1462815926321062,10.663384823430224,-41.40034430307305,-34.53084015262081,no_tremor
21,974819,0.203,-0.2211148098602908,-0.13960818203689296,-1.1454364493579328,12.022332458039287,-51.30964558538932,-34.502581804466836,no_tremor
22,974828,0.212,-0.2160629045669158,-0.14099101773569997,-1.1431698843936386,13.456472170094926,-61.75852077969193,-34.31387076964585,no_tremor
23,974833,0.217,-0.2114618970458031,-0.142475840276916,-1.139410395734859,14.964825677907157,-72.71481988039449,-33.96579876962611,no_tremor
24,974838,0.222,-0.20737940272910163,-0.14406243124422843,-1.1340909078920023,16.545992099090725,-84.1422954540251,-33.460515592749594,no_tremor
25,974843,0.227,-0.20388201028112082,-0.14574999785709597,-1.127149242251156,18.198126107116504,-96.00075348854217,-32.80122700851488,no_tremor
26,974848,0.232,-0.20103467962164281,-0.14753718234294674,-1.1185285752878245,19.918916170127957,-108.24623990801125,-31.99218235884842,no_tremor
27,974857,0.241,-0.19890013623816025,-0.14942207821085896,-1.1081778762373378,21.705563346144036,-120.83126144377954,-31.038651702804938,no_tremor
28,974862,0.246,-0.1975382701540047,-0.15140225225144813,-1.0960523181076613,23.554761216166934,-133.7050389933658,-29.946892542561176,no_tremor
29,974893,0.277,-0.19700554758044456,-0.15347477087842723,-1.0821136576039363,25.4626776328239,-146.81379101891346,-28.724106311404338,no_tremor
30,974903,0.287,-0.197354443043596,-0.1556362293163244,-1.06633058083597,27.424939038719433,-160.10104398327314,-27.37838496074463,no_tremor
31,974908,0.292,-0.19863289958765273,-0.157882782126825,-1.0486790127147418,29.436618154135505,-173.50796637139524,-25.91864814056336,no_tremor
32,974917,0.301,-0.20088382442365874,-0.16021017364419768,-1.0291423887502653,31.492225834845158,-186.9737225857002,-24.354571616422234,no_tremor
33,974922,0.306,-0.20414462700865163,-0.16261376704346175,-1.007711888541069,33.585707851982704,-200.43584297091775,-22.69650769697312,no_tremor
34,974927,0.311,-0.20844680592494041,-0.16508857097810978,-0.9843866305994927,35.710447255641796,-213.83060636072247,-20.955398558292885,no_tremor
35,974937,0.321,-0.21381559006832734,-0.1676292629838704,-0.9591738283160183,37.85927286906335,-227.09343174342123,-19.14268345099246,no_tremor
36,974942,0.326,-0.22026963859031565,-0.1702302091377571,-0.9320889068784086,40.024474336252474,-240.15927583844044,-17.270200866647613,no_tremor
37,974947,0.331,-0.22782080285203304,-0.17288547977152297,-0.903155580883353,42.19782402321879,-252.9630335254423,-15.350086819638802,no_tremor
38,974952,0.336,-0.2364739524310139,-0.17558886134677687,-0.872405892264801,44.370605959110776,-265.43993816648947,-13.39467046320839,no_tremor
39,974961,0.345,-0.2462268660648257,-0.17833386488588923,-0.839880208064085,46.53365190182867,-277.52595891172444,-11.416368299838787,no_tremor
40,974976,0.36,-0.25707018738471654,-0.18111373160082428,-0.8056271775237324,48.677384521382386,-289.1581920886486,-9.427578265209485,no_tremor
41,974981,0.365,-0.2689874444295908,-0.18392143655686946,-0.7697036480293125,50.79186760721581,-300.27524376176257,-7.4405749622582285,no_tremor
42,974985,0.369,-0.2819551312548618,-0.18674969134031139,-0.7321745395654318,52.866863115402296,-310.817600545169,-5.467407294720355,no_tremor
43,974990,0.374,-0.2959428494548315,-0.1895909467663175,-0.6931126775906109,54.89189477096299,-320.72798579404713,-3.519799695009794,no_tremor
44,975017,0.401,-0.31091350706093557,-0.1924373966728688,-0.6525985845601298,56.85631782437352,-329.95169841491946,-1.6090580617527406,no_tremor
45,975022,0.406,-0.326823571994094,-0.19528098381389863,-0.6107202307202209,58.74939442768517,-338.4369317194411,0.25401857449205184,no_tremor
46,975033,0.417,-0.34362337696228235,-0.19811340880958034,-0.5675727452307557,60.560373946891815,-346.1350699958538,2.0592197451738663,no_tremor
47,975047,0.431,-0.3612574723442727,-0.2009261430525708,-0.5232580890929606,62.27857736998492,-353.0009607853835,3.7969977965665938,no_tremor
48,975057,0.441,-0.3796650231658455,-0.20371044641531413,-0.4778846917016929,63.89348481560459,-358.99316121639447,5.458534012025533,no_tremor
49,975062,0.446,-0.3987802457888199,-0.20645739054889134,-0.4315670530641921,65.39482501036277,-364.0741571311259,7.035796018962752,no_tremor
50,975067,0.451,-0.41853287947493656,-0.20915788848873484,-0.38442531381197986,66.77266550090927,-368.2105540936669,8.521585991493561,no_tremor
51,975076,0.46,-0.4388486876439249,-0.2118027311651693,-0.3365847950867151,68.0175023129352,-371.3732396652787,9.909579252294126,no_tremor
52,975081,0.465,-0.4596499834765962,-0.21438263124459683,-0.2881755102348667,69.12034776667576,-373.5375165686237,11.194352976020722,no_tremor
53,975086,0.47,-0.48085617453532603,-0.2168882745003036,-0.23933165004974427,70.07281520034797,-374.68320654490685,12.371404806841163,no_tremor
54,975091,0.475,-0.502384321266996,-0.2193103786400937,-0.19019104310720605,70.86719942885637,-374.7947248540313,13.437161323834223,no_tremor
55,975096,0.48,-0.5241497045762425,-0.22163975921587076,-0.14089459260049975,71.49655186523746,-373.86112549818944,14.388976417436401,no_tremor
56,975100,0.484,-0.5460663980564451,-0.22386740192376633,-0.09158569102838358,71.95474934868699,-371.87611738471344,15.225119775157603,no_tremor
57,975105,0.489,-0.5680478408865791,-0.2259845402878796,-0.04240961415909336,72.23655584992584,-368.83805180169355,15.944755813101455,no_tremor
58,975110,0.494,-0.5900074077925174,-0.22798273742047676,0.006487104098748642,72.33767635850671,-364.749881770841,16.547913527668285,no_tremor
59,975115,0.499,-0.6118589727859539,-0.2298539702798529,0.05495731393062747,72.25480239449979,-359.6190940713965,17.035447874007208,no_tremor
60,975143,0.527,-0.6335174635924473,-0.2315907146167,0.10285390647010878,71.98564872609877,-353.45761499749216,17.408993400530075,no_tremor
61,975148,0.532,-0.6548994037324205,-0.2331860286242854,0.15003048217382314,71.52898101281568,-346.28169121437776,17.67091098037775,no_tremor
62,975153,0.537,-0.6759234391201029,-0.23463363320257344,0.1963420269559035,70.88463422739672,-338.11174739949774,17.8242285770186,no_tremor
63,975163,0.547,-0.6965108458230802,-0.23592798672679846,0.2416455917084443,70.05352183073225,-328.97222266324417,17.872577053346642,no_tremor
64,975168,0.552,-0.7165860153305489,-0.23706435228423525,0.2858009703773129,69.0376357730237,-318.89138801131867,17.820122074348326,no_tremor
65,975172,0.556,-0.7360769133694923,-0.23803885550231585,0.3286713715184347,67.84003746509568,-307.90114731622657,17.67149316360287,no_tremor
66,975177,0.561,-0.7549155080415952,-0.23884853131921538,0.3701240782339975,66.46483990737092,-296.0368243981198,17.431710961120903,no_tremor
67,975182,0.566,-0.7730381628814391,-0.23949135832531726,0.41003109155705897,64.91718118876248,-283.33693886805463,17.10611370216718,no_tremor
68,975187,0.571,-0.790385990395999,-0.23996627961584976,0.4482697526807838,63.203189584792035,-269.8429733590381,16.700283899467138,no_tremor
69,975192,0.576,-0.8069051617551996,-0.24027320943181554,0.48472333987295924,61.329940504291145,-255.59913466600742,16.219976168301745,no_tremor
70,975197,0.581,-0.8225471685694427,-0.2404130252217949,0.5192816364366647,59.305405564785076,-240.65211113739662,15.671047086352218,no_tremor
71,975202,0.586,-0.83726903311628,-0.2403875451266766,0.5518414666398049,57.13839412204248,-225.05082840889145,15.059387925902438,no_tremor
72,975211,0.595,-0.8510334639691998,-0.24019949126857515,0.582307197111509,54.838487640361684,-208.84620525215885,14.390861033223807,no_tremor
73,975216,0.6,-0.8638089547405365,-0.23985243960863326,0.6105912017666834,52.41596736611018,-192.0909109475073,13.67124055894016,no_tremor
74,975221,0.605,-0.8755698245788566,-0.23935075751755147,0.6366142888455588,49.88173585515793,-174.8391252052095,12.906158165939464,no_tremor
75,975226,0.61,-0.8862962001526349,-0.23869953056513124,0.6603060891148874,47.247233001186295,-157.14630127932966,12.101054260406503,no_tremor
76,975231,0.615,-0.8959739400840974,-0.23790448036638198,0.6816054046413955,44.52434731283403,-139.06893256215383,11.261135208779406,no_tremor
77,975236,0.62,-0.9045945041245309,-0.23697187560852265,0.7004605177869795,41.72532329058915,-120.66432263922471,10.391336919632252,no_tremor
78,975262,0.646,-0.9121547707204894,-0.23590843861470334,0.7168294601664444,38.86266585578363,-101.99035854465372,9.496295084045776,no_tremor
79,975272,0.656,-0.9186568079292079,-0.23472124996510038,0.730680241245898,35.94904287725873,-83.10528679368576,8.58032227956323,no_tremor
80,975277,0.661,-0.9241076038020958,-0.23341765377660642,0.7419910360663997,32.99718691452107,-64.06749167610506,7.647392048674754,no_tremor
81,975282,0.666,-0.9285187632564009,-0.2320051662145013,0.7507503313141196,30.01979733550968,-44.93527524382404,6.701129958481698,no_tremor
82,975306,0.69,-0.931906179015066,-0.23049138965379606,0.7569570287098459,27.02944396551391,-25.766638391346202,5.744811530606444,no_tremor
83,975316,0.7,-0.93428968440802,-0.22888393462347748,0.7606205045334814,24.0384733874784,-6.619062400168296,4.781366801999388,no_tremor
84,975331,0.715,-0.9356926957670745,-0.22719035127239476,0.7617606240773009,21.058918954221582,12.450709691156547,3.813391145450552,no_tremor
85,975350,0.734,-0.936141851912146,-0.22541807161995886,0.7604077099427367,18.10241549461144,31.3868925046527,2.843161850919547,no_tremor
86,975355,0.739,-0.935666657888734,-0.22357436333175248,0.7566024633312515,15.180119596766307,50.134879071019974,1.872659850780124,no_tremor
87,975389,0.773,-0.9342991396845975,-0.22166629522864958,0.7503958377698154,12.302636232802438,68.64146332980721,0.9035958686886231,no_tremor
88,975394,0.778,-0.9320735160915995,-0.21970071423998644,0.74184886497916,9.479952359486585,86.85506463534604,-0.06255981172726578,no_tremor
89,975413,0.797,-0.9290258931530755,-0.21768423308271848,0.7310324327714959,6.7213779989249565,104.7259543155408,-1.0245448213908461,no_tremor
90,975422,0.806,-0.9251939857500677,-0.21562322761235983,0.7180270149134511,4.035495181722963,122.2064840853657,-1.9812703187537775,no_tremor
91,975427,0.811,-0.9206168698627679,-0.21352384255662885,0.7029223528021166,1.4301150230982107,139.25131582009215,-2.9317856412467203,no_tremor
92,975432,0.816,-0.9153347679299152,-0.21139200420584456,0.6858170886034574,-1.0877569042478277,155.81765182999794,-3.875242875514026,no_tremor
93,975442,0.826,-0.9093888685407915,-0.20923343858298477,0.6668183492451215,-3.511946841775593,171.86546434612848,-4.810862188272579,no_tremor
94,975451,0.835,-0.9028211804501258,-0.20705369363290657,0.6460412804017056,-5.837130804559594,187.35772243987944,-5.7378987082686015,no_tremor
95,975456,0.84,-0.8956744196322165,-0.2048581640335353,0.62360852941715,-8.058844365675851,202.26061408721785,-6.655611689789655,no_tremor
96,975466,0.85,-0.8879919268267211,-0.20265211732012348,0.5996496760231138,-10.17348448315879,216.5437605938319,-7.563236622094787,no_tremor
97,975471,0.855,-0.879817611825459,-0.20044072010701938,0.5743006097693149,-12.178303650481023,230.18042016481712,-8.45996087813171,no_tremor
98,975476,0.86,-0.8711959196620088,-0.1982290632742868,0.5477028533047696,-14.071396695259049,243.14767705729497,-9.344903419854269,no_tremor
99,975481,0.865,-0.8621718129447394,-0.1960221850498584,0.5200028310481243,-15.851680575142183,255.42661249308043,-10.217098995102022,no_tremor
100,975507,0.891,-0.8527907638574818,-0.19382509095958808,0.49135108336155564,-17.51886752816304,267.0024533082215,-11.075487170717555,no_tremor
101,975512,0.896,-0.8430987488588771,-0.19164276964355914,0.46190142708876275,-19.073431934682983,277.86469415619024,-11.918906447012164,no_tremor
102,975527,0.911,-0.8331422388395725,-0.18948020356362075,0.4318100642157773,-20.51657125109109,288.0071889658407,-12.746093589405925,no_tremor
103,975536,0.92,-0.8229681774315047,-0.1873423736813623,0.40123464143366855,-21.8501613951271,297.4282073216891,-13.55568819559256,no_tremor
104,975541,0.925,-0.8126239402916433,-0.18523425729891707,0.37033326448689574,-23.07670700787526,306.13045154141344,-14.346242395450835,no_tremor
105,975556,0.94,-0.8021572685022865,-0.18316081845086218,0.339263472344774,-24.199287087168813,314.121030534002,-15.116235462502848,no_tremor
106,975561,0.945,-0.7916161697581887,-0.18112699051974848,0.30818117741108003,-25.221496573370562,321.4113870742634,-15.864093004590247,no_tremor
107,975566,0.95,-0.7810487817805952,-0.1791376511043962,0.27723957917447517,-26.147384562609147,328.01717592758126,-16.58821029808955,no_tremor
108,975570,0.954,-0.7705031934497241,-0.17719758956591128,0.2465880598958042,-26.981389918592686,333.95809125455105,-17.28697923204625,no_tremor
109,975580,0.964,-0.7600272205115572,-0.175311468072696,0.21637107213179962,-27.728275148319725,339.2576428391219,-17.95881823309416,no_tremor
110,975585,0.969,-0.7496681343989131,-0.17348377732928,0.18672702912118708,-28.3930594953669,343.942881839633,-18.602204446098668,no_tremor
111,975589,0.973,-0.7394723446901457,-0.1717187884798678,0.15778721032509113,-28.9809522801843,348.04407790950495,-19.2157073466789,no_tremor
112,975635,1.019,-0.7294850379693787,-0.17002050290660572,0.12967469572650367,-29.497287569147947,351.5943506523302,-19.79802285964473,no_tremor
113,975645,1.029,-0.7197497782754315,-0.16839260177647056,0.10250334382399805,-29.947461266164854,354.6292594616346,-20.348006957218086,no_tremor
114,975650,1.034,-0.7103080767885681,-0.16683839720904614,0.07637682948940927,-30.336871667473982,357.1863568515791,-20.864707628553848,no_tremor
115,975655,1.039,-0.7011989406795048,-0.165360786820154,0.05138775878444564,-30.67086437956986,359.3047114149447,-21.34739407258018,no_tremor
116,975659,1.043,-0.6924584128989812,-0.16396221313799947,0.027616878215114708,-30.954682277418442,361.0244075511539,-21.795581990972906,no_tremor
117,975664,1.048,-0.6841191159831966,-0.16264462901503624,0.005132395624321287,-31.193420917061644,362.38603008478566,-22.209053951673937,no_tremor
118,975669,1.053,-0.6762098136881093,-0.1614094697249052,-0.01601057098222471,-31.39198956424685,363.4301428192036,-22.587873944697087,no_tremor
119,975684,1.068,-0.6687550045169419,-0.16025763200390944,-0.03577040178550634,-31.555077790175908,364.1967708856037,-22.932395446034263,no_tremor
120,975693,1.077,-0.6617745610471666,-0.1591894599292744,-0.05411922755259485,-31.687127428599684,364.72489736931044,-23.243262530175375,no_tremor
121,975698,1.082,-0.6552834284360776,-0.15820473727344864,-0.07104301498434579,-31.792309591503543,365.0519850116871,-23.521403816874724,no_tremor
122,975703,1.087,-0.6492913945781933,-0.15730268587929175,-0.08654147612983416,-31.87450640784378,365.2135336857235,-23.768019292936188,no_tremor
123,975712,1.096,-0.6438029430580342,-0.15648196969070163,-0.10062779537491325,-31.937297176809984,365.2426837706224,-23.984560305004276,no_tremor
124,975758,1.142,-0.6388171982434314,-0.1557407043356115,-0.11332817006507397,-31.983948697354375,365.1698745492934,-24.17270326657752,no_tremor
125,975763,1.147,-0.6343279695913501,-0.15507647253374104,-0.1246811635567127,-32.01740962495108,365.02256543588913,-24.334317852699225,no_tremor
126,975767,1.151,-0.6303238995584947,-0.15448634598432298,-0.1347368724603384,-32.04030878754565,364.82502632542736,-24.47143065274917,no_tremor
127,975772,1.156,-0.6267887165803665,-0.15396691465209142,-0.14355591312635088,-32.054957440544996,364.598201731485,-24.586185394525,no_tremor
128,975787,1.171,-0.6237015916060935,-0.15351432441611518,-0.15120823608434217,-32.06335544359943,364.3596516928127,-24.680800931833616,no_tremor
129,975792,1.176,-0.6210375938048898,-0.15312432385388597,-0.15777178116072543,-32.067201306925874,364.1235706978438,-24.757528214517713,no_tremor
