sample,t_ms,t_s,ax,ay,az,gx,gy,gz,tremor
0,1547956,0.0,-0.8884657772219593,-0.027747287398155962,0.39818869877963964,5.978261306214807,-2.8156462192910214,-11.092681792512845,no_tremor
1,1547961,0.005,-0.8943790853796395,-0.026277185510036855,0.3935215787477468,10.133299058910502,-6.044552662771558,-18.10211112388691,no_tremor
2,1547987,0.031,-0.9021853099386761,-0.02424423350610406,0.3872594229523981,14.338371265764046,-9.291141975870673,-25.11874954114766,no_tremor
3,1547992,0.036,-0.9118133303567528,-0.02160513522639165,0.37939153769508094,18.58053710522757,-12.544595649820112,-32.1178772216254,no_tremor
4,1548002,0.046,-0.922777630353508,-0.018422808028683808,0.37023778781403655,22.84633793535258,-15.793787973490339,-39.0743581664365,no_tremor
5,1548006,0.05,-0.9344194631183308,-0.014817918196519793,0.3602708802979023,27.12185850858365,-19.02733871076945,-45.962779911020164,no_tremor
6,1548011,0.055,-0.9460992128048324,-0.010923251188313296,0.3499669865718985,31.392793043385556,-22.23366905417809,-52.75759856126735,no_tremor
7,1548016,0.06,-0.9572844287920483,-0.006859076740782562,0.3397332878961347,35.64451597792109,-25.401060697873305,-59.43328840470934,no_tremor
8,1548026,0.07,-0.967566234013618,-0.0027252404129252724,0.329890862460579,39.862157167133745,-28.517717808338546,-65.96449523208045,no_tremor
9,1548031,0.075,-0.9766433563006638,0.001398016486465187,0.32068386587406883,44.030681213533875,-31.571831602165403,-72.32619238556721,no_tremor
10,1548035,0.079,-0.9842979342676459,0.005446156298871523,0.31229633564891457,48.1349705465381,-34.55164717330356,-78.49383843174309,no_tremor
11,1548040,0.084,-0.990373626093311,0.009366177735400568,0.30486809572474305,52.1599117900895,-37.44553215308606,-84.4435352482282,no_tremor
12,1548045,0.089,-0.9947589818408633,0.013113212446590061,0.2985071019333637,56.09048488735554,-40.242046738119164,-90.15218522172701,no_tremor
13,1548050,0.094,-0.9973758705231646,0.01664806928107997,0.2932981347157434,59.91185438571491,-42.93001458281178,-95.59764618525061,no_tremor
14,1548055,0.099,-0.998171819610328,0.019935596553209072,0.2893085711435077,63.60946222449901,-45.498594023406824,-100.75888267370357,no_tremor
15,1548060,0.104,-0.9971150936177883,0.02294366144777857,0.28659206217675426,67.16912131129756,-47.937349079127166,-105.61611204767384,no_tremor
16,1548070,0.114,-0.9941915790885604,0.025642564278372276,0.28519079617993126,70.57710911934126,-50.23631966422538,-110.15094402417077,no_tremor
17,1548075,0.119,-0.9894028089285203,0.028004746787881958,0.28513684683422486,73.82026048859586,-52.38609044196226,-114.34651216179375,no_tremor
18,1548079,0.123,-0.9827646745337985,0.030004693283823713,0.28645294868752313,76.88605876904496,-54.37785775654204,-118.18759588124448,no_tremor
19,1548084,0.128,-0.974306529850351,0.0316189543566775,0.289152929090725,79.76272441042777,-56.203494089727315,-121.66073166552486,no_tremor
20,1548111,0.155,-0.9640704979088051,0.03282624510446036,0.29324194593604813,82.43930008202037,-57.85560950185622,-124.75431217768775,no_tremor
21,1548116,0.16,-0.9521108610328095,0.03360758497062194,0.2987166274989397,84.90573140076962,-59.32760952890597,-127.45867215195852,no_tremor
22,1548121,0.165,-0.9384934621750034,0.03394645646294019,0.3055651757878425,87.15294235872685,-60.61374901783071,-129.76616005205415,no_tremor
23,1548126,0.17,-0.9232950749266923,0.03382896677963505,0.31376747210469785,89.1729045754079,-61.70918139485961,-131.67119464890288,no_tremor
24,1548131,0.175,-0.9066027192696653,0.03324400091450228,0.32329520881725726,90.95869955881089,-62.61000287851589,-133.1703058471182,no_tremor
25,1548136,0.18,-0.888512912785331,0.03218335795395492,0.33411206182578373,92.50457323523551,-63.313291169981454,-134.26215927674536,no_tremor
26,1548140,0.184,-0.8691308552220516,0.030641864535114794,0.34617391201893155,93.80598209419212,-63.8171381750245,-134.94756435292743,no_tremor
27,1548145,0.189,-0.8485695496078015,0.028617461130304937,0.3594291199537855,94.85963038423988,-64.12067633158814,-135.22946568486407,no_tremor
28,1548151,0.195,-0.8269488664768682,0.026111258161174586,0.37381885529002207,95.66349788619397,-64.22409813454458,-135.11291788529465,no_tremor
29,1548156,0.2,-0.8043945598869916,0.023127560049124828,0.3892774806637219,96.21685788162793,-64.12866846496111,-134.60504399266415,no_tremor
30,1548160,0.204,-0.7810372451441145,0.019673856251412044,0.40573298838786076,96.52028502736705,-63.836729348169406,-133.71497787013615,no_tremor
31,1548165,0.209,-0.757011348796048,0.01576077915585261,0.4231074874147551,96.57565294117019,-63.35169678694105,-132.45379108925607,no_tremor
32,1548170,0.214,-0.7324540416859857,0.011402029432530611,0.4413177372661275,96.38612140025278,-62.678049347041984,-130.8344049423477,no_tremor
33,1548175,0.219,-0.7075041657940933,0.006614270076278337,0.4602757250521342,95.95611315251446,-61.82130821522116,-128.87148835757097,no_tremor
34,1548180,0.224,-0.6823011653220392,0.0014169909192450203,0.47988928121377605,95.29128044024588,-60.78800850651573,-126.58134261508592,no_tremor
35,1548185,0.229,-0.6569840320483877,-0.00416765415320296,0.5000627292015698,94.39846143864283,-59.58566167098521,-123.98177388377586,no_tremor
36,1548189,0.233,-0.6316902744462987,-0.010115034686740305,0.5206975639241418,93.28562691855717,-58.22270894155439,-121.09195471741064,no_tremor
37,1548194,0.238,-0.606554919445416,-0.016398252967834304,0.54169315344702,91.96181755654155,-56.70846587471591,-117.93227576761734,no_tremor
38,1548199,0.243,-0.5817095550664305,-0.022988372082113007,0.5629474580836259,90.43707243670137,-55.05305816260876,-114.52418908725551,no_tremor
39,1548204,0.248,-0.557281421481683,-0.02985465950690066,0.5843577606914402,88.7223494183214,-53.26734903621461,-110.89004450941309,no_tremor
40,1548209,0.253,-0.5333925573738976,-0.03696484293803509,0.6058214016647985,86.82943817932389,-51.3628587340033,-107.05292069243131,no_tremor
41,1548237,0.281,-0.5101590077863076,-0.04428537500542408,0.6272365118056531,84.7708668848446,-49.3516766779007,-103.03645251909089,no_tremor
42,1548242,0.286,-0.48769009897812826,-0.051781703517693276,0.6485027359732944,82.55980356436947,-47.24636717659732,-98.86465662424422,no_tremor
43,1548247,0.291,-0.4660877851007469,-0.059418543896317705,0.669521940210869,80.20995339327222,-45.05986965766832,-94.56175688624714,no_tremor
44,1548252,0.296,-0.44544607076392767,-0.06716015052960017,0.6901988949954404,77.73545314354703,-42.80539460225833,-90.15201173233412,no_tremor
45,1548257,0.301,-0.4258505127496144,-0.074970583916525,0.7104419274264042,75.15076408147856,-40.49631650517253,-85.6595450625145,no_tremor
46,1548262,0.306,-0.4073778032605807,-0.08281397068957783,0.7301635355724669,72.4705645529861,-38.146065297504876,-81.10818249554744,no_tremor
47,1548267,0.311,-0.39009543618992804,-0.0906547538992831,0.749280958806132,69.70964342738051,-35.76801774045727,-76.52129450181349,no_tremor
48,1548272,0.316,-0.37406145699786875,-0.0984579312981679,0.7677166987107603,66.88279548211129,-33.375390323537125,-71.92164782795066,no_tremor
49,1548277,0.321,-0.35932429591132364,-0.10618927976202279,0.7853989859957644,64.00471971388687,-30.981135177403488,-67.33126644649161,no_tremor
50,1548281,0.325,-0.34592268333946685,-0.11381556441394147,0.8022621897558704,61.08992146116638,-28.597840443317356,-62.77130308547152,no_tremor
51,1548286,0.33,-0.33388564563880146,-0.12130473145241316,0.8182471663229804,58.152619122856805,-26.23763643069418,-58.26192221181553,no_tremor
52,1548291,0.335,-0.32323257867444893,-0.12862608410919127,0.8333015458529278,55.20665615901728,-23.912108746743755,-53.82219516165844,no_tremor
53,1548296,0.34,-0.3139733960155318,-0.13575044155743607,0.8473799556403159,52.26541896130955,-21.632219405878704,-49.47000793357889,no_tremor
54,1548301,0.345,-0.30610874807294153,-0.14265028093951374,0.860444179945508,49.341761084395905,-19.408236732282926,-45.22198198962625,no_tremor
55,1548305,0.349,-0.299630308034437,-0.14929986297331424,0.8724632568379944,46.44793423607997,-17.24967466734239,-41.09340824609593,no_tremor
56,1548310,0.354,-0.29452112006825293,-0.15567534181557094,0.8834135132050472,43.595526335598414,-15.165241892595727,-37.098194282717735,no_tremor
57,1548315,0.359,-0.2907560049425679,-0.16175486000357175,0.8932785396444742,40.79540686764697,-13.16280098372877,-33.24882465642159,no_tremor
58,1548320,0.364,-0.2883020179327532,-0.16751862936056114,0.9020491074604907,38.05767968530347,-11.249337625284392,-29.55633407567145,no_tremor
59,1548325,0.369,-0.2871189536495045,-0.17294899873805405,0.9097230304205169,35.39164334771075,-9.430939741434543,-26.030293075291965,no_tremor
60,1548330,0.374,-0.2871598922084858,-0.1780305093880677,0.9163049743180132,32.80575901657044,-7.712786237330135,-22.6788057309424,no_tremor
61,1548356,0.4,-0.288371780968898,-0.18274993862140063,0.9218062177323287,30.30762587648293,-6.099144901003896,-19.508518867092473,no_tremor
62,1548361,0.405,-0.2906960458934687,-0.1870963322294983,0.9262443676888373,27.903963985234864,-4.593378892211177,-16.524642141725028,no_tremor
63,1548366,0.41,-0.29406922643533134,-0.19106102594686278,0.9296430342036484,25.60060439991923,-3.1979611485491954,-13.730978333060698,no_tremor
64,1548371,0.415,-0.29842362775855147,-0.19463765603174607,0.9320314679412947,23.402486364080737,-1.9144959766879308,-11.129963105576273,no_tremor
65,1548375,0.419,-0.3036879840698509,-0.19782215886514612,0.933444165409707,21.313661283010124,-0.7437470683634537,-8.722713492514472,no_tremor
66,1548380,0.424,-0.3097881268881525,-0.2006127593214878,0.9339204462536049,19.337303163431972,0.314328819068759,-6.509084299916321,no_tremor
67,1548385,0.429,-0.3166476521996742,-0.20300994754839818,0.93350400727933,17.475725153826364,1.2605432581869487,-4.487731613585036,no_tremor
68,1548390,0.434,-0.3241885806265484,-0.20501644370457756,0.932242457850975,15.73040179293148,2.0964333326896454,-2.656182574851134,no_tremor
69,1548395,0.439,-0.33233200496507775,-0.20663715014439188,0.9301868412436386,14.10199655381959,2.8242152770801514,-1.0109105819355768,no_tremor
70,1548400,0.444,-0.3409987197191664,-0.20787909051137526,0.9273911464320607,12.590394255631356,3.4467352103309348,0.4525849305742916,no_tremor
71,1548404,0.448,-0.350109827563323,-0.20875133522106618,0.9239118146412532,11.194737902187626,3.9674175638910922,1.7396949820830552,no_tremor
72,1548409,0.453,-0.35958731801974186,-0.2092649128898391,0.9198072448008336,9.913469495634036,4.390211772367585,2.8566146509785986,no_tremor
73,1548414,0.458,-0.36935461402807096,-0.2094327074123081,0.9151373018376872,8.744374364359368,4.719537765229373,3.8102546321405653,no_tremor
74,1548419,0.463,-0.3793370825251264,-0.20926934061080293,0.9099628315223929,7.684628538338851,4.9602307675789685,4.60815157397842,no_tremor
75,1548424,0.468,-0.3894625056319752,-0.20879104067293436,0.9043451853614445,6.730848702482086,5.117485884581317,5.2583780067678605,no_tremor
76,1548429,0.473,-0.39966150956155977,-0.2080154969456085,0.8983457588048112,5.8791442597583385,5.196802905524043,5.76945265347574,no_tremor
77,1548433,0.477,-0.40986794890357264,-0.2069617020474784,0.892025545819441,5.1251710402530755,5.203931719626305,6.150251887144603,no_tremor
78,1548438,0.482,-0.42001924450544403,-0.2056497826732969,0.8854447126645432,4.464186198632497,5.144818688754389,6.40992306441322,no_tremor
79,1548443,0.487,-0.4300566737388878,-0.20410082086656672,0.878662193493202,3.891103849264978,5.0255542755815865,6.557800422542827,no_tremor
80,1548448,0.492,-0.4399256125098534,-0.2023366679031786,0.8717353101953851,3.4005509941345986,4.852322182556733,6.603324177491059,no_tremor
81,1548477,0.521,-0.4495757289257475,-0.20037975322900556,0.8647194186872238,2.9869233030791666,4.6313502189445765,6.555963403917406,no_tremor
82,1548482,0.526,-0.45896112906879105,-0.19825289110017905,0.8576675836368146,2.6444403096954407,4.368863080502251,6.4251432158605715,no_tremor
83,1548492,0.536,-0.4680404558325102,-0.19597908766377004,0.850630283390907,2.367199592170877,4.0710371993396315,6.220176699900704,no_tremor
84,1548497,0.541,-0.47677694225675504,-0.193581351179443,0.8436551466195642,2.1492295197512497,3.7439578013991177,5.95020198031971,no_tremor
85,1548502,0.546,-0.4851384212438719,-0.19108250792777362,0.8367867219184502,1.9845401646860235,3.393578297573742,5.624124717695615,no_tremor
86,1548506,0.55,-0.49309729395256524,-0.18850502610472702,0.8300662812999771,1.8671720061270007,3.025682132629367,5.2505662601296486,no_tremor
87,1548511,0.555,-0.5006304595428389,-0.1858708497004136,0.823531658173455,1.7912420851782251,2.6458472224305996,4.837817583335352,no_tremor
88,1548516,0.56,-0.5077192092804882,-0.18320124403685623,0.8172171200733414,1.7509873081669864,2.2594131208129045,4.393799075821413,no_tremor
89,1548521,0.565,-0.5143490882979396,-0.18051665431676236,0.8111532760560478,1.740804637464268,1.8714510680825753,3.9260261512486916,no_tremor
90,1548526,0.57,-0.520509728544814,-0.17783657822555407,0.8053670183595063,1.7552879534943666,1.4867370793167933,3.441580603261877,no_tremor
91,1548530,0.574,-0.5261946566413561,-0.17517945333762236,0.7998814976131384,1.7892614144236052,1.1097282292400272,2.947087558865537,no_tremor
92,1548535,0.579,-0.5314010804655482,-0.17256255980638885,0.7947161306038609,1.8378091795425997,0.7445422794751355,2.44869783441155,no_tremor
93,1548540,0.584,-0.53612965835483,-0.17000193856584003,0.7898866393487096,1.89630139937693,0.39494077276366435,1.9520754536517289,no_tremor
94,1548545,0.589,-0.5403842547807259,-0.16751232503802807,0.7854051199968192,1.9604164114300133,0.06431568808067079,1.4623900506943397,no_tremor
95,1548549,0.593,-0.5441716862562029,-0.16510709812673657,0.7812801398810586,2.026159115251058,-0.24432028802841288,0.9843138523671944,no_tremor
96,1548554,0.598,-0.5475014610618418,-0.16279824408358717,0.7775168608593112,2.0898755337147175,-0.5283398633147106,0.5220229139919161,no_tremor
97,1548560,0.604,-0.5503855161330533,-0.16059633466215767,0.7741171869229014,2.1482635991947396,-0.7855036528861665,0.07920226878774748,no_tremor
98,1548564,0.608,-0.5528379541457139,-0.15851051883199901,0.7710799339003878,2.1983802344987122,-1.0139591905344203,-0.34094535772220474,no_tremor
99,1548574,0.618,-0.554874783484166,-0.1565485272119566,0.7684010189444678,2.2376448295927425,-1.2122365714937844,-0.7356876227850432,no_tremor
100,1548599,0.643,-0.5565136633892532,-0.15471668830480861,0.7660736673546736,2.263839246580326,-1.3792409003818575,-1.102747789421284,no_tremor
101,1548604,0.648,-0.5577736561856956,-0.15301995557543469,0.7640886341579158,2.2751045170497486,-1.5142417518096278,-1.4402874575097995,no_tremor
102,1548608,0.652,-0.5586749881052594,-0.1514619444113774,0.762434437747021,2.269934426419276,-1.61685987714483,-1.7468871610135088,no_tremor
103,1548614,0.658,-0.5592388198854202,-0.1500449780305731,0.7610976027752541,2.2471662062787088,-1.6870514087695807,-2.0215251816667976,no_tremor
104,1548618,0.662,-0.5594870280542485,-0.14877014144361955,0.7600629094373196,2.2059685750569615,-1.7250898240032422,-2.2635549149835454,no_tremor
105,1548623,0.667,-0.5594419976137152,-0.14763734262369485,0.7593136462466875,2.145827379177525,-1.7315459371736004,-2.472681103767953,no_tremor
106,1548628,0.672,-0.5591264266911324,-0.1466453800761649,0.7588318634506298,2.066529093189047,-1.7072661923525625,-2.6489352293766157,no_tremor
107,1548633,0.677,-0.5585631436213139,-0.1457920160266785,0.758598624307324,1.9681424405740875,-1.6533495319516749,-2.7926503242030782,no_tremor
108,1548638,0.682,-0.5577749368317714,-0.14507405445923513,0.7585942515796847,1.8509983983582257,-1.5711231177739213,-2.9044354421195453,no_tremor
109,1548643,0.687,-0.5567843978163224,-0.1444874232345944,0.7587985667723652,1.7156688486621465,-1.4621171810381173,-2.9851499979544776,no_tremor
110,1548647,0.691,-0.5556137773901159,-0.1440272595063409,0.7591911198446384,1.5629441390854952,-1.328039275855094,-3.0358781630055276,no_tremor
111,1548653,0.697,-0.5542848553168274,-0.14368799763010198,0.7597514073647775,1.3938098112555266,-1.170748205889561,-3.0579034813563215,no_tremor
112,1548657,0.701,-0.5528188232859449,-0.14346345873518812,0.760459077322952,1.2094227528188515,-0.9922278856427449,-3.052683851485871,no_tremor
113,1548662,0.706,-0.5512361810972108,-0.14334694110265042,0.7612941190816318,1.0110870224909112,-0.7945613853388548,-3.0218269992901017,no_tremor
114,1548667,0.711,-0.5495566457854004,-0.14333131047531816,0.7622370372081435,0.8002295905730435,-0.5799053919621687,-2.9670665520331565,no_tremor
115,1548672,0.716,-0.5477990732982067,-0.1434090894194567,0.7632690081978549,0.5783762285047837,-0.35046529975956486,-2.8902388076378362,no_tremor
116,1548677,0.721,-0.5459813922299355,-0.1435725448690172,0.7643720193545733,0.34712777011343404,-0.10847112331278212,-2.7932602798879462,no_tremor
117,1548682,0.726,-0.5441205490202993,-0.14381377301543802,0.7655289893446285,0.1081369539511132,0.1438455931260763,-2.678106087796237,no_tremor
118,1548687,0.731,-0.5422324639558991,-0.14412478076039723,0.7667238701813285,-0.13691395912008916,0.40427371372346527,-2.546789247212232,no_tremor
119,1548691,0.735,-0.5403319972655314,-0.14449756302581088,0.7679417306261594,-0.3863346149527714,0.6706431551648823,-2.4013409149898233,no_tremor
120,1548696,0.74,-0.538432924581087,-0.14492417531279875,0.769168821211557,-0.6384468791807081,0.9408441080551514,-2.243791630447936,no_tremor
121,1548721,0.765,-0.5365479210436086,-0.1453968010152743,0.7703926212965373,-0.891603886561133,1.2128447182933757,-2.076153595231383,no_tremor
122,1548726,0.77,-0.5346885533667899,-0.14590781311782886,0.7716018687598674,-1.1442076936844192,1.4847071225255095,-1.9004040310265207,no_tremor
123,1548731,0.775,-0.5328652792223657,-0.1464498300325228,0.7727865731138703,-1.3947254183064046,1.7546017447907474,-1.7184696545219504,no_tremor
124,1548736,0.78,-0.531087453374767,-0.1470157654443058,0.7739380129825671,-1.6417037669254972,2.020819777247486,-1.5322123093971267,no_tremor
125,1548740,0.784,-0.529363340056556,-0.14759887213109174,0.7750487190278327,-1.8837818730422855,2.281783786562126,-1.343415794562295,no_tremor
126,1548745,0.789,-0.5277001311342876,-0.1481927797983962,0.7761124435251024,-2.1197023911722335,2.5360564083077404,-1.1537739254599553,no_tremor
127,1548750,0.794,-0.5261039696629844,-0.1487915270218155,0.7771241178860238,-2.3483208146104775,2.7823471135261113,-0.9648798610379833,no_tremor
128,1548755,0.799,-0.5245799784653287,-0.14938958742815317,0.7780797995000458,-2.5686130065248927,3.01951705408129,-0.7782167237772324,no_tremor
129,1548760,0.804,-0.5231322933991494,-0.1499818902725389,0.7789766093208799,-2.7796809534026368,3.246582016650859,-0.5951495345861075,no_tremor
130,1548765,0.809,-0.5217641009946948,-0.15056383558857567,0.7798126616571776,-2.9807567673710365,3.462713539019612,-0.4169184787696225,no_tremor
131,1548769,0.813,-0.5204776801529504,-0.15113130410486333,0.7805869876394718,-3.1712049797860673,3.667238266065806,-0.2446335139188697,no_tremor
132,1548774,0.818,-0.5192744475996749,-0.15168066213709713,0.7812994538270622,-3.3505231826127946,3.859635645193766,-0.07927032571975574,no_tremor
133,1548779,0.823,-0.5181550067886694,-0.15220876168267836,0.7819506773890281,-3.5183410861897775,4.039534080387555,0.07833236673687548,no_tremor
134,1548784,0.828,-0.5171191999434375,-0.15271293596590943,0.7825419392436205,-3.6744180721278146,4.206705679196551,0.2274741587429946,no_tremor
135,1548789,0.833,-0.5161661629197241,-0.1531909907067535,0.7830750964715906,-3.818639329143629,4.361059736954214,0.3675929672694319,no_tremor
136,1548793,0.837,-0.5152943825627581,-0.15364119141395063,0.7835524952339827,-3.951010668424728,4.502635106767392,0.49826370761234823,no_tremor
137,1548799,0.843,-0.5145017562223291,-0.15406224703202373,0.7839768853266025,-4.0716521239763095,4.6315916021679815,0.6191956530217516,no_tremor
138,1548803,0.847,-0.5137856530757383,-0.154453290298526,0.7843513373951668,-4.180790451991508,4.7482005730405294,0.7302284961487321,no_tremor
139,1548808,0.852,-0.5131429768926249,-0.1548138551893136,0.7846791637206615,-4.278750650768295,4.852834787208099,0.8313271383511256,no_tremor
140,1548813,0.857,-0.512570229856046,-0.155143851841863,0.7849638433671964,-4.365946628008179,4.945957742399265,0.9225752420504836,no_tremor
141,1548818,0.862,-0.5120635770304088,-0.15544353934586752,0.7852089523677608,-4.442871144851868,5.028112526986216,1.0041675919134552,no_tremor
142,1548843,0.887,-0.5116189110385511,-0.15571349677324486,0.7854180995089487,-4.510085166013715,5.0999103419351,1.076401321861739,no_tremor
143,1548848,0.892,-0.5112319164777483,-0.1559545927848294,0.7855948681650171,-4.568206743842524,5.162018789623779,1.1396660763852393,no_tremor
144,1548853,0.897,-0.5108981335692301,-0.15616795410069043,0.7857427645246376,-4.617899562362126,5.215150027524954,1.194433186838846,no_tremor
145,1548857,0.901,-0.5106130205008864,-0.15635493306218967,0.7858651724500447,-4.659861266734684,5.2600488778345875,1.2412439575045864,no_tremor
146,1548862,0.906,-0.51037201389179,-0.15651707445668764,0.785965315107686,-4.694811705144015,5.297480980184494,1.2806971733057968,no_tremor
147,1548867,0.911,-0.5101705867827676,-0.1566560817302591,0.7860462234119403,-4.7234812139205715,5.328221074954969,1.3134359615841962,no_tremor
