sample,t_ms,t_s,ax,ay,az,gx,gy,gz,tremor
0,1228977,0.0,-0.8133538332239227,-0.03688316263295255,0.5231809570959889,-1.3362798360810086,2.380721311791742,3.2051742110061787,no_tremor
1,1228988,0.011,-0.8219453753493059,-0.03406796958772605,0.518068656790979,1.5853787811821025,0.108082301115389,-3.1581986563578353,no_tremor
2,1228999,0.022,-0.8337371657392697,-0.030165198004661806,0.5110271530621835,4.591529600654105,-2.218661724436364,-9.75308789482859,no_tremor
3,1229011,0.034,-0.8488381311538583,-0.025087837719420268,0.5019466989732315,7.721296504691493,-4.6121802863233965,-16.641218724789912,no_tremor
4,1229022,0.045,-0.8666406448231955,-0.018967435341344145,0.4911239513463131,11.007327788633152,-7.0794585352138695,-23.867786677994562,no_tremor
5,1229033,0.056,-0.8861237914064702,-0.01206617846915879,0.4790910444718178,14.47304225139654,-9.62029864789518,-31.45610313088123,no_tremor
6,1229044,0.067,-0.9061466956930435,-0.004690980531283447,0.46645150431008914,18.130392921462676,-12.226245847716681,-39.403374334566,no_tremor
7,1229056,0.079,-0.9256133986491374,0.00285377968112502,0.45379024665488343,21.978295457814554,-14.88003089579758,-47.67791900187651,no_tremor
8,1229165,0.188,-0.9435341878503094,0.01028245203183363,0.4416425568447569,26.001825744772177,-17.555587488902006,-56.218043241302105,no_tremor
9,1229177,0.2,-0.9590342660411482,0.017328821208249204,0.430492534803949,30.172236706069146,-20.218661907712903,-64.93268017397965,no_tremor
10,1229188,0.211,-0.9713459195115186,0.02374247893749852,0.42078017237252147,34.447781651449276,-22.827986498652628,-73.70377361881586,no_tremor
11,1229221,0.244,-0.9798016911767535,0.02928634397403706,0.4129070045048653,38.77526825878934,-25.33694398294682,-82.39025748023488,no_tremor
12,1229232,0.255,-0.9838340967863376,0.033737121033663074,0.4072371642028918,43.09221283943255,-27.69561303303783,-90.83337306906715,no_tremor
13,1229244,0.267,-0.9829816726310672,0.03688865309259695,0.40409399261720197,47.329426616828364,-29.853061442012674,-98.8629883148478,no_tremor
14,1229255,0.278,-0.9768990341914027,0.03855738007472857,0.403753592094327,51.413849274327724,-31.759742096083478,-106.30454172512094,no_tremor
15,1229266,0.289,-0.9653682450496176,0.038588913314241496,0.4064369477658023,55.27145030254947,-33.36984726205332,-112.98622860631139,no_tremor
16,1229277,0.3,-0.9483091123537017,0.03686477083989751,0.41230206458227203,58.83004030423845,-34.64348669846623,-118.74606818570308,no_tremor
17,1229289,0.312,-0.9257865618210466,0.03330845287041258,0.4214372423065091,62.02186425885408,-35.548573023083925,-123.43852600079714,no_tremor
18,1229300,0.323,-0.8980138054802717,0.027890206907616837,0.4338562592722809,64.7858804433217,-36.06232103086167,-126.9404088359642,no_tremor
19,1229311,0.334,-0.8653505319947651,0.02063000963663529,0.44949590877715384,67.06965887039416,-36.17229348745563,-129.15579748076328,no_tremor
20,1229345,0.368,-0.8282958090135414,0.011598466550110138,0.46821605471973493,68.83085994864068,-35.876952982727424,-130.01983536827967,no_tremor
21,1229357,0.38,-0.7874757905248007,0.0009154959142637174,0.4898021584940774,70.03827666320034,-35.185707534887314,-129.5012480424623,no_tremor
22,1229368,0.391,-0.7436266634450918,-0.011253178209164412,0.51397008272191,70.6724424886195,-34.11846570025584,-127.60352832526986,no_tremor
23,1229379,0.402,-0.6975735292584798,-0.024701547847712488,0.5403728965806648,70.7258244340939,-32.70474276871824,-124.36478354816485,no_tremor
24,1229390,0.413,-0.6502060848845862,-0.03919054032146021,0.5686093797472734,70.20263727933958,-30.98238234176791,-119.85630141257059,no_tremor
25,1229402,0.425,-0.6024520492802147,-0.05445649460567649,0.5982339268915782,69.11832955210326,-28.995978300538077,-114.17994526937576,no_tremor
26,1229413,0.436,-0.5552493041681672,-0.07022036520814524,0.6287675715712936,67.49880063932156,-26.79510043771012,-107.46453312512253,no_tremor
27,1229424,0.447,-0.5095177063239538,-0.08619708197980268,0.659709863472768,65.37940936211938,-24.432437839899933,-99.86138512371832,no_tremor
28,1229435,0.458,-0.466131504474369,-0.10210450928018945,0.6905513389567794,62.80382830401749,-21.961970217094613,-91.53924228765813,no_tremor
29,1229480,0.503,-0.4258932685949804,-0.1176715205786988,0.7207863159013552,59.82278864199516,-19.43725532849264,-82.67876761738698,no_tremor
30,1229491,0.514,-0.38951021929301166,-0.13264482665581342,0.7499257144617231,56.49275093366721,-16.909885910060268,-73.46684240098766,no_tremor
31,1229503,0.526,-0.35757382200258025,-0.14679435207449282,0.7775095590385673,52.874530081855696,-14.428136663959616,-64.0908676571292,no_tremor
32,1229514,0.537,-0.3305434588933803,-0.15991712576827588,0.803118773079909,49.03189715345957,-12.035806231095671,-54.733272738694296,no_tremor
33,1229525,0.548,-0.30873488133808036,-0.17183981363384088,0.826385864155614,45.03017607007377,-9.771263535303826,-45.56641923251217,no_tremor
34,1229536,0.559,-0.2923139671792088,-0.18242014789770084,0.8470041260913754,40.93484986000669,-7.666719604803957,-36.74806845911429,no_tremor
35,1229547,0.57,-0.28129607323096295,-0.19154757690956536,0.8647350498585067,36.8101906493379,-5.747748436096715,-28.417555831536305,no_tremor
36,1229590,0.613,-0.2755510062755303,-0.19914345736542308,0.8794137137935183,32.71793093271154,-4.033067379470989,-20.692785210450573,no_tremor
37,1229602,0.625,-0.27481335233393506,-0.20516104177650127,0.8909519957132994,28.716000300240186,-2.534565294222967,-13.668120867857386,no_tremor
38,1229613,0.636,-0.27869761853078645,-0.20958539705840543,0.8993395051326387,24.85735921425849,-1.2575470256014412,-7.413213857109854,no_tremor
39,1229624,0.647,-0.2867173756763622,-0.21243325704007024,0.9046421784645036,21.18896643129556,-0.2011532014543181,-1.9727550670805227,no_tremor
40,1229635,0.658,-0.29830737312619665,-0.21375269434369368,0.9069985281216539,17.75091731130139,0.6410857387216709,2.632897059198454,no_tremor
41,1229646,0.669,-0.3128474598374524,-0.2136224164180762,0.9066136001216007,14.575786702984189,1.2805981498031762,6.406304973062193,no_tremor
42,1229658,0.681,-0.32968710192167955,-0.2121504545366284,0.9037507778037913,11.688203526411662,1.7330540443918492,9.370876932052203,no_tremor
43,1229669,0.692,-0.34816933352452034,-0.20947202384099875,0.8987216677114142,9.104675393077232,2.017607481340975,11.568267523913548,no_tremor
44,1229680,0.703,-0.36765309695721204,-0.20574638486646757,0.8918744099965323,6.833670808280028,2.1561159446419396,13.055401436287935,no_tremor
45,1229723,0.746,-0.3875330979170401,-0.20115262820937385,0.8835808611805877,4.875954012362863,2.1723467771836127,13.901267291028722,no_tremor
46,1229735,0.758,-0.4072565040328166,-0.19588442537365613,0.8742231918856692,3.2251542554931376,2.091177291537401,14.183620498415397,no_tremor
47,1229746,0.769,-0.4263360369441625,-0.1901439233397557,0.8641805127876282,1.868538538770758,1.9377984238533719,13.985722179148924,no_tremor
48,1229757,0.78,-0.4443592383267804,-0.1841350823763067,0.8538161708240957,0.7879458848486824,1.736940619777048,13.393227552302656,no_tremor
49,1229768,0.791,-0.4609939132450986,-0.17805683990965915,0.8434663290783091,-0.03916670809402867,1.5121494298105331,12.491322407321173,no_tremor
50,1229779,0.802,-0.47598994983286824,-0.17209651296905704,0.833430354417393,-0.638620289160234,1.2851407043139984,11.362189593975295,no_tremor
51,1229791,0.814,-0.489177865008793,-0.16642382856626683,0.8239633994291561,-1.0384049864351015,1.0752594835108602,10.082867879066393,no_tremor
52,1229834,0.857,-0.5004645253444504,-0.1611859067990621,0.8152714022429963,-1.2676144315578406,0.8990563245121498,8.723542996752323,no_tremor
53,1229838,0.861,-0.5098265470779026,-0.15650343079124732,0.8075085634140189,-1.3554641069183904,0.7699851024451517,7.346286646075115,no_tremor
54,1229843,0.866,-0.5173019034983783,-0.15246813597291778,0.8007772114356676,-1.3304241347070973,0.6982202045222159,6.004235847300475,no_tremor
55,1229848,0.871,-0.5229802737418233,-0.14914165180277247,0.7951298472280889,-1.2194862719374753,0.6905885915089821,4.741184723922247,no_tremor
56,1229853,0.876,-0.5269926598373936,-0.14655564155604262,0.79057306548576,-1.0475748543867587,0.7506118041965547,3.5915451188936562,no_tremor
57,1229858,0.881,-0.5295007781296881,-0.14471311583368865,0.7870729859237167,-0.8371030761479525,0.8786524216797236,2.5806223426955803,no_tremor
58,1229863,0.886,-0.530686694670449,-0.14359074500969365,0.7845617885208226,-0.6076695422223553,1.0721571370180922,1.7251476321191532,no_tremor
59,1229868,0.891,-0.530743120832613,-0.14314196472118138,0.782944932321928,-0.37588532072357994,1.3259844548028077,1.0340085542273951,no_tremor
60,1229873,0.896,-0.5298647163828317,-0.14330065536450354,0.7821086456042861,-0.155318415192468,1.6328002240929662,0.5091213420920501,no_tremor
61,1229878,0.901,-0.528240665482797,-0.14398517926703802,0.7819273040307103,0.0434595632218589,1.9835202473465507,0.1463940013350833,no_tremor
62,1229882,0.905,-0.5260487008439906,-0.14510257488040135,0.7822703597494084,0.21274072948313566,2.3677772194440614,-0.0632646980809649,no_tremor
63,1229887,0.91,-0.5234506577358933,-0.14655273240616246,0.7830085443799729,0.347478373172059,2.774389927135895,-0.1329281961194734,no_tremor
64,1229892,0.915,-0.5205895483684926,-0.1482324057671861,0.7840191380009246,0.44502990914423274,3.1918158532244463,-0.07865789802682242,no_tremor
65,1229897,0.92,-0.5175880638200487,-0.1500389479605191,0.7851901698984229,0.5048599813698449,3.608573117125279,0.08144396829093231,no_tremor
66,1229902,0.925,-0.5145483400553577,-0.1518736873420784,0.7864234901509107,0.528217841721945,4.013622698475353,0.32811585405084215,no_tremor
67,1229907,0.93,-0.5115527706988413,-0.15364488893995742,0.787636719509496,0.51780250261871,4.396705951170394,0.6417391233845785,no_tremor
68,1229912,0.935,-0.5086656149882305,-0.15527026612489764,0.7887641445284062,0.47742802251678873,4.748634913445426,1.0030510891022129,no_tremor
69,1229917,0.94,-0.5059351362118499,-0.1566790235613322,0.7897566726542812,0.41169950390973864,5.061534034063878,1.3937613326889746,no_tremor
70,1229922,0.945,-0.5033960137734647,-0.15781342289315153,0.7905809964527514,0.32570822130178106,5.329032400383503,1.797065425783504,no_tremor
71,1229926,0.949,-0.5010717991532577,-0.1586298693189205,0.7912181369635273,0.22475219582218298,5.546406072255279,2.1980516668472876,no_tremor
72,1229951,0.974,-0.49897722944991063,-0.1590995217248876,0.7916615438901135,0.11408687416000665,5.710670852249774,2.5839981399244363,no_tremor
73,1229956,0.979,-0.49712026729759917,-0.15920843318858532,0.7919149262780881,-0.0012905231383738376,5.820626292380115,2.944559511968725,no_tremor
74,1229960,0.983,-0.4955037956710938,-0.15895723413426852,0.791989973567487,-0.11682014859812054,5.876851421140449,3.2718458073909247,no_tremor
75,1229965,0.988,-0.4941269511470928,-0.15836037831980193,0.7919041060752796,-0.22852009287879327,5.881651740769153,3.560398972061713,no_tremor
76,1229970,0.993,-0.49298612119831847,-0.15744498221912717,0.7916783689293021,-0.3330873250687026,5.838956374346848,3.807076836573611,no_tremor
77,1229975,0.998,-0.4920756563176209,-0.15624930021071654,0.7913355567123448,-0.42795918027174984,5.754164658381219,4.0108573284307605,no_tremor
78,1229980,1.003,-0.4913883576710237,-0.15482088973167207,0.7908986293475224,-0.5113367119084878,5.633943174246838,4.172578031490455,no_tremor
79,1229984,1.007,-0.4909157996753966,-0.15321453079720385,0.7903894542013147,-0.5821721956526914,5.485976827980074,4.29462755745652,no_tremor
80,1229990,1.013,-0.4906485386522762,-0.15148997208211284,0.7898278857943217,-0.6401239689959312,5.318680516781467,4.380605999485456,no_tremor
81,1229995,1.018,-0.4905762470478733,-0.14970958063334647,0.7892311735623241,-0.6854828113532462,5.140880615445918,4.434972167335961,no_tremor
82,1229999,1.022,-0.490687800401852,-0.14793597410318693,0.7886136704217366,-0.7190753309878299,4.96147771289171,4.462695345786296,no_tremor
83,1230004,1.027,-0.49097133338662663,-0.14622971337588128,0.7879868010149653,-0.7421511715146208,4.789103704101075,4.468928754861599,no_tremor
84,1230009,1.032,-0.49141427320754283,-0.1446471301437659,0.7873592388844499,-0.7562618280239014,4.631787432788768,4.458720303929228,no_tremor
85,1230014,1.037,-0.49200335407068063,-0.1432383590634973,0.7867372367328209,-0.7631389820159643,4.496643390736704,4.436773324381603,no_tremor
86,1230019,1.042,-0.4927246151999385,-0.14204563817392335,0.7861250534064036,-0.7645793553586139,4.389597439440498,4.4072659284652715,no_tremor
87,1230029,1.052,-0.4935633864113112,-0.14110193455461165,0.7855254249653524,-0.7623414500879966,4.3151623136312764,4.3737330002632815,no_tremor
88,1230033,1.056,-0.49450426862931157,-0.14042994457407884,0.7849400344126006,-0.758057768893699,4.276273992247274,4.339010005453368,no_tremor
89,1230038,1.061,-0.49553112094284124,-0.14004150887267117,0.7843699441517394,-0.7531646532245657,4.274197936754117,4.305233115388431,no_tremor
90,1230043,1.066,-0.4966270698207949,-0.1399374705254836,0.7838159655687632,-0.748850813566688,4.308511767695468,4.273886060036065,no_tremor
91,1230048,1.071,-0.4977745589518729,-0.14010798985293194,0.7832789499037395,-0.7460248025205809,4.37716819690718,4.245881288123329,no_tremor
92,1230073,1.096,-0.498955458921358,-0.14053331081582665,0.7827599928796724,-0.7453009590669848,4.4766385842311704,4.221661848628396,no_tremor
93,1230078,1.101,-0.5001512538526567,-0.14118495231571102,0.782260552093616,-0.7470027432508084,4.602132778581253,4.201310932285706,no_tremor
94,1230082,1.105,-0.5013433168765635,-0.1420272744918001,0.7817824811496709,-0.751181976076663,4.7478850833971675,4.1846579017498104,no_tremor
95,1230087,1.11,-0.5025132780875604,-0.14301934775062433,0.7813279883597478,-0.7576522677713523,4.907490539603282,4.171372390628242,no_tremor
96,1230092,1.115,-0.5036434783071791,-0.1441170334866883,0.7808995309880623,-0.7660345939347424,5.074271697178576,4.1610411640837786,no_tremor
97,1230097,1.12,-0.5047174906041964,-0.1452751719934246,0.78049965873936,-0.7758122691772209,5.241654020413852,4.153225500637131,no_tremor
