sample,t_ms,t_s,ax,ay,az,gx,gy,gz,tremor
0,1335039,0.0,-0.8875953511282396,-0.011276121829271415,0.4207302490305966,-10.141009634916049,3.8539026684311204,10.229581392805136,no_tremor
1,1335064,0.025,-0.8900142526422384,-0.010452495437340309,0.4189058037431531,-9.557522419670214,3.7711195239382835,9.092838283914872,no_tremor
2,1335069,0.03,-0.8935119956300959,-0.009239547893065626,0.41626144582675656,-8.834591621620007,3.6409659131662604,7.7382629502901406,no_tremor
3,1335074,0.035,-0.898265037846321,-0.007559781809025442,0.41265791613139513,-7.965320436301238,3.460063379496998,6.15750035072344,no_tremor
4,1335079,0.04,-0.9042732544617822,-0.0053940963475760315,0.4080875707858984,-6.943347899490966,3.2251810046129488,4.343236060477908,no_tremor
5,1335083,0.044,-0.9114201484075358,-0.002764227245903522,0.4026298855373652,-5.762925036540967,2.9332688972424523,2.2893051204958086,no_tremor
6,1335088,0.049,-0.9195433006410196,0.0002901685915648344,0.3963988619237558,-4.418989958330274,2.5814915524752844,-0.009204210356244389,no_tremor
7,1335093,0.054,-0.9284785450180136,0.0037266904546275174,0.3895098991161027,-2.907241135661067,2.1672607504559114,-2.555853116640921,no_tremor
8,1335098,0.059,-0.9380786695458074,0.007507108176786282,0.38206569858285644,-1.2242080501844756,1.6882676610102672,-5.352762610927639,no_tremor
9,1335103,0.064,-0.9482168454054087,0.011599045448107706,0.37415364128445466,0.6326816064692818,1.142513820990379,-8.400532928679668,no_tremor
10,1335107,0.068,-0.9587833954912937,0.015975222959617872,0.3658482063189888,2.6650390316660024,0.5283406544134888,-11.69817318033105,no_tremor
11,1335112,0.073,-0.9696807899017682,0.020611927829469752,0.3572147633208024,4.873456563495567,-0.15554278752115597,-15.243042447604482,no_tremor
12,1335117,0.078,-0.980819014202022,0.025487484600136653,0.348313118547579,7.25745593727096,-0.9100341776866263,-19.0308034303048,no_tremor
13,1335122,0.083,-0.9921119872062533,0.030581002639973782,0.339200296689389,9.815443383890024,-1.7356146491492546,-23.05538964751399,no_tremor
14,1335127,0.088,-1.0034750660139653,0.035871445554163765,0.3299325222707928,12.544672378615298,-2.6323281862656622,-27.30898707340711,no_tremor
15,1335132,0.093,-1.0148234594181655,0.04133698313706447,0.3205665293867807,15.441214805527071,-3.599763912352176,-31.78203094311179,no_tremor
16,1335137,0.098,-1.026071335582141,0.04695456627436916,0.3111603565871433,18.49994124398486,-4.6370414835937,-36.46321829867005,no_tremor
17,1335141,0.102,-1.0371314385381891,0.05269966981725676,0.30177376320858823,21.714511008096736,-5.742799765929583,-41.33953666007583,no_tremor
18,1335146,0.107,-1.0479150706649896,0.05854615993488643,0.29246837200186937,25.0773724773487,-6.915188941003696,-46.39630900263844,no_tremor
19,1335151,0.112,-1.058332336773723,0.06446625387256794,0.28330761424959594,28.57977414505331,-8.151866161417887,-51.617255000756984,no_tremor
20,1335156,0.117,-1.0682925751201588,0.0704305492696736,0.2743565313381758,32.21178668097732,-9.449994853575419,-56.984568260939454,no_tremor
21,1335161,0.122,-1.077704921866118,0.07640810698176241,0.2656814707882929,35.962336156952965,-10.806247743612394,-62.479009015460655,no_tremor
22,1335186,0.147,-1.086478969968593,0.08236657608428907,0.25734970381987704,39.819248422535416,-12.216813653089208,-68.08001148615277,no_tremor
23,1335191,0.152,-1.0945254930100354,0.08827235290779246,0.2494289842943414,43.76930444700525,-13.677408075248914,-73.76580486503345,no_tremor
24,1335196,0.157,-1.101757210637122,0.09409076801127428,0.24198706421508184,47.7983062736528,-15.183287505323289,-79.51354661562914,no_tremor
25,1335201,0.162,-1.1080895762347938,0.0997862962936131,0.23509117801036142,51.89115307490499,-16.729267469113665,-85.29946660446556,no_tremor
26,1335205,0.166,-1.1134415700878477,0.10532278623275394,0.22880750594094165,56.03192666108262,-18.309744179532764,-91.09902044540841,no_tremor
27,1335210,0.171,-1.1177364831444456,0.11066370470948834,0.22320062574358135,60.203985681316304,-19.918719749786902,-96.88705037750536,no_tremor
28,1335215,0.176,-1.1209026779387725,0.11577239413497589,0.21833296077608555,64.3900676580367,-21.549830897084146,-102.6379519825104,no_tremor
29,1335220,0.181,-1.1228743144536286,0.1206123387350356,0.21426423231000247,68.57239791407164,-23.19638107367425,-108.3258450649912,no_tremor
30,1335225,0.186,-1.1235920298291067,0.12514743690080718,0.21105092312364188,72.73280438358874,-24.851375955882908,-113.92474705577591,no_tremor
31,1335230,0.191,-1.1230035619279999,0.12934227653084843,0.20874575911611803,76.85283724476406,-26.507562201896604,-119.40874735257943,no_tremor
32,1335235,0.196,-1.1210643079021354,0.13316241029083878,0.20739721525045848,80.91389227255391,-28.15746935273631,-124.75218107600074,no_tremor
33,1335239,0.2,-1.117737810097564,0.1365746277236298,0.20704905171379967,84.89733678405581,-29.79345469817765,-129.92980079163684,no_tremor
34,1335244,0.205,-1.1129961629064327,0.13954722116840804,0.20773988573873728,88.7846370369777,-31.407750863794735,-134.91694482718728,no_tremor
35,1335249,0.21,-1.1068203355214374,0.14205024250260964,0.20950280405124205,92.55748594395929,-32.9925158033222,-139.6897008953536,no_tremor
36,1335254,0.215,-1.0992004069648704,0.1440557478104136,0.21236502038964222,96.19792998160236,-34.53988481011897,-144.22506381868618,no_tremor
37,1335259,0.22,-1.0901357112291734,0.14553802721217204,0.21634758197083273,99.688494202047,-36.042024100242934,-148.50108624164386,no_tremor
38,1335264,0.225,-1.0796348918536107,0.14647381726531106,0.2214651281614604,103.01230429461742,-37.491185473026235,-152.49702130758928,no_tremor
39,1335269,0.23,-1.0677158667405653,0.14684249357607745,0.22772570394371994,106.15320469180519,-38.879761525813706,-156.1934563726683,no_tremor
40,1335273,0.234,-1.0544057054475533,0.14662624154941828,0.2351306300513735,109.09587176359896,-40.200340888254864,-159.57243692288745,no_tremor
41,1335278,0.239,-1.0397404225358944,0.1458102035506811,0.2436744308987924,111.8259211942702,-41.44576294733492,-162.61757995433965,no_tremor
42,1335283,0.244,-1.0237646917749563,0.14438260114773402,0.25334482064390984,114.33000868547747,-42.60917155445324,-165.3141761687439,no_tremor
43,1335310,0.271,-1.006531487062069,0.1423348315316454,0.26412274692708543,116.59592317937297,-43.684067235376205,-167.6492804260711,no_tremor
44,1335315,0.276,-0.9881016567978826,0.13966153766426592,0.2759824910308908,118.61267184682013,-44.664357456826394,-169.6117899820488,no_tremor
45,1335320,0.281,-0.9685434391213241,0.13636065215250995,0.28889182244571476,120.37055614244342,-45.54440453458885,-171.1925101212879,no_tremor
46,1335325,0.286,-0.9479319258118138,0.1324334152720413,0.302812205155081,121.86123829447429,-46.31907079382862,-172.3842068781838,no_tremor
47,1335329,0.29,-0.9263484827798827,0.1278843679250562,0.317699052421426,123.07779767489566,-46.98376061128604,-173.18164661782063,no_tremor
48,1335334,0.295,-0.9038801349106786,0.12272132059761398,0.3335020264758787,124.01477658175845,-47.53445898147168,-173.58162232582248,no_tremor
49,1335339,0.3,-0.8806189226641261,0.11695529957877294,0.350165379277459,124.66821505698583,-47.96776625647475,-173.58296652747168,no_tremor
50,1335344,0.305,-0.8566612373495044,0.11060047182537536,0.36762833037538073,125.03567445695182,-48.28092871326846,-173.1865508227469,no_tremor
51,1335348,0.309,-0.8321071414460272,0.10367404991529246,0.3858254778526781,125.11624958802379,-48.471864605195435,-172.39527208715725,no_tremor
52,1335353,0.314,-0.8070596797801953,0.09619617854150993,0.4046872383280593,124.91056931375397,-48.539185358320495,-171.21402545018327,no_tremor
53,1335358,0.319,-0.7816241868248234,0.08818980397283663,0.4241403120291633,124.42078563375489,-48.48221158248332,-169.64966422496235,no_tremor
54,1335363,0.324,-0.7559075948714579,0.07968052785736386,0.444108169009989,123.6505513267244,-48.30098358516446,-167.7109470257723,no_tremor
55,1335368,0.329,-0.730017747357623,0.07069644668475157,0.4645115526552234,122.60498634254384,-47.99626610619785,-165.40847237555832,no_tremor
56,1335373,0.334,-0.7040627212095067,0.06126797816428511,0.4852689966838486,121.2906332219345,-47.56954703356818,-162.7546011760165,no_tremor
57,1335378,0.339,-0.6781501616941766,0.051427675726266976,0.5062973519262395,119.71540191750816,-47.02302991490468,-159.76336748895866,no_tremor
58,1335383,0.344,-0.6523866329662642,0.04121003232040629,0.5275123191986119,117.8885044871829,-46.35962014595641,-156.4503781608334,no_tremor
59,1335387,0.348,-0.6268769872432919,0.030651274669110752,0.5488289846348726,115.82038022915665,-45.58290479614005,-152.8327019132515,no_tremor
60,1335392,0.353,-0.6017237553504976,0.019789149135894333,0.5701623538608985,113.5226119259514,-44.697126120717584,-148.92874862174924,no_tremor
61,1335397,0.358,-0.5770265612372386,0.008662700387003874,0.5914278814154251,111.0078339627295,-43.707148906900116,-144.7581396130259,no_tremor
62,1335402,0.363,-0.5528815629775667,-0.0026879559462007277,0.612541991841324,108.28963318190925,-42.61842190491052,-140.34156992769846,no_tremor
63,1335407,0.368,-0.5293809227200961,-0.014221865359384103,0.6334225888951184,105.38244343219186,-41.43693370260713,-135.70066362148614,no_tremor
64,1335435,0.396,-0.5066123080387568,-0.025897470033989407,0.653989549352863,102.3014348651033,-40.16916351082426,-130.85782331153302,no_tremor
65,1335440,0.401,-0.484658427145894,-0.037672846525968195,0.6741651979316057,99.06239912213397,-38.822027431140036,-125.83607530944954,no_tremor
66,1335445,0.406,-0.4635966004416766,-0.04950594419579772,0.6938747599135753,95.68163162888179,-37.40282086915716,-120.65891180091813,no_tremor
67,1335450,0.411,-0.4434983708550519,-0.061354822941732334,0.7130467881832238,92.1758122524614,-35.91915782285876,-115.35013160896766,no_tremor
68,1335454,0.415,-0.4244291553481109,-0.07317788875837831,0.7316135615903041,88.56188557525914,-34.37890781105251,-109.93368109992872,no_tremor
69,1335459,0.42,-0.4064479397940016,-0.08493412561538542,0.7495114518381522,84.8569419978662,-32.79013121655971,-104.43349676458126,no_tremor
70,1335464,0.425,-0.3896070192068553,-0.09658332213504874,0.7666812564445351,81.07810082087101,-31.16101381379882,-98.87335095069712,no_tremor
71,1335469,0.43,-0.37395178501795545,-0.10808629154072959,0.7830684957035806,77.24239637938189,-29.49980123841907,-93.27670215048089,no_tremor
72,1335474,0.435,-0.35952056077102146,-0.11940508335003937,0.7986236719670403,73.36666821945293,-27.814734139066523,-87.66655116032616,no_tremor
73,1335479,0.44,-0.3463444872619154,-0.13050318529992733,0.8133024899458009,69.46745621349241,-26.113984726215556,-82.065304328619,no_tremor
74,1335484,0.445,-0.3344474577813007,-0.14134571401916318,0.827066037099821,65.56090141389564,-24.40559539817229,-76.49464498896747,no_tremor
75,1335489,0.45,-0.32384610373671674,-0.15189959301296543,0.8398809235334825,61.66265334210368,-22.697420079983523,-70.97541404419138,no_tremor
76,1335494,0.455,-0.31454983053507735,-0.16213371660284856,0.8517193811445453,57.78778430532247,-20.997068859694107,-65.52750052630252,no_tremor
77,1335498,0.459,-0.3065609031986118,-0.17201909858010436,0.8625593220918093,53.950711226809865,-19.311856450987353,-60.169742814553274,no_tremor
78,1335503,0.464,-0.2998745807676263,-0.1815290044849738,0.872384356953112,50.16512536984853,-17.64875495239951,-54.9198410500307,no_tremor
79,1335508,0.469,-0.2944792981144489,-0.1906390666071648,0.8811837732438488,46.4439302319381,-16.01435130968767,-49.794281142021724,no_tremor
80,1335513,0.474,-0.2903568933592426,-0.19932738100437736,0.8889524752571151,42.79918778565192,-14.414809818053106,-44.80827061940363,no_tremor
81,1335517,0.478,-0.2874828786467214,-0.20757458604396453,0.8956908864683935,39.24207314738576,-12.855839925143885,-39.97568644218465,no_tremor
82,1335522,0.483,-0.28582675162052296,-0.21536392218246514,0.9014048160180518,35.782837666564944,-11.342669517136638,-35.30903475786047,no_tremor
83,1335527,0.488,-0.2853523445259031,-0.2226812729034518,0.9061052910407232,32.430780347367595,-9.880023793012553,-30.81942246758439,no_tremor
84,1335532,0.493,-0.28601820748749335,-0.22951518693107667,0.9098083568486878,29.194227443644976,-8.472109759253982,-26.516540359424376,no_tremor
85,1335559,0.52,-0.2877780221525433,-0.23585688202156882,0.912534847193485,26.080520005651778,-7.1226063091123875,-22.408657470202115,no_tremor
86,1335564,0.525,-0.2905810415690177,-0.24170023080803552,0.9143101270231135,23.096009103597442,-5.834659786484931,-18.50262625322157,no_tremor
87,1335569,0.53,-0.29437255189715567,-0.24704172933768823,0.9151638103183297,20.246058405730235,-4.610884872150809,-14.803898054558518,no_tremor
88,1335574,0.535,-0.2990943513562353,-0.25188044909413215,0.9151294557283801,17.535053744964532,-3.4533705659171487,-11.316548331364075,no_tremor
89,1335579,0.54,-0.30468524170782474,-0.25621797343416985,0.9142442428330914,14.966419266804964,-2.3636909691075574,-8.043310979247673,no_tremor
90,1335584,0.545,-0.3110815275805392,-0.26005831948170444,0.9125486319354257,12.542639713988258,-1.342920498858616,-4.985621074505892,no_tremor
91,1335589,0.55,-0.31821751903922346,-0.2634078466082442,0.9100860103378178,10.26528837255694,-0.3916530940573905,-2.14366528561266,no_tremor
92,1335594,0.555,-0.32602603297384936,-0.2662751526910169,0.9069023280778794,8.13506018175918,0.4899750905616316,0.48356082990911103,no_tremor
93,1335599,0.56,-0.33443888910974706,-0.26867095937667074,0.9030457260948578,6.151809496176291,1.3022600533972581,2.8981894520665703,no_tremor
94,1335603,0.564,-0.34338739670348517,-0.27060798759092836,0.8985661597681246,4.31459198156963,2.045901955286357,5.10341187005563,no_tremor
95,1335608,0.569,-0.35280282827365267,-0.2721008245222615,0.8935150207140019,2.6217101249198493,2.721975347762501,7.103405422919034,no_tremor
96,1335613,0.574,-0.3626168770121567,-0.2731657832715741,0.8879447596493338,1.0707618431862918,3.331898177175582,8.9032568265337,no_tremor
97,1335618,0.579,-0.37276209482147693,-0.27382075630279246,0.881908513032541,-0.34130831676781814,3.8774000810626212,10.508882690101922,no_tremor
98,1335623,0.584,-0.383172308220574,-0.27408506375616654,0.8754597360799972,-1.6181558844604766,4.3604904387096814,11.926948004633271,no_tremor
99,1335628,0.589,-0.39378300965185475,-0.2739792976039878,0.8686518446326871,-2.7639815640406753,4.783426574024615,13.16478335945686,no_tremor
100,1335632,0.593,-0.4045317219996605,-0.27352516254549175,0.861537868220079,-3.7834751968257874,5.148682439949555,14.230301610881419,no_tremor
101,1335637,0.598,-0.41535833439470216,-0.2727453144622169,0.8541701165385298,-4.681759044692209,5.45891804384181,15.13191468945296,no_tremor
102,1335642,0.603,-0.4262054076285183,-0.27166319719442666,0.8465998614324773,-5.464330833033634,5.716949806715103,15.878451188514886,no_tremor
103,1335647,0.608,-0.4370184477397417,-0.2703028783591785,0.8388770363387797,-6.137006972671759,5.925721989886144,16.47907532734541,no_tremor
104,1335652,0.613,-0.4477461465644878,-0.2686888849151865,0.8310499550268257,-6.705866359286953,6.088279273445406,16.943207828541556,no_tremor
105,1335657,0.618,-0.45834058827349694,-0.26684603919088484,0.823165051336946,-7.17719512578838,6.207740534004426,17.280449193686213,no_tremor
106,1335682,0.643,-0.46875742115799396,-0.2647992961303775,0.8152666414838347,-7.55743269692167,6.287273845347278,17.50050580544777,no_tremor
107,1335686,0.647,-0.47895599418615004,-0.26257358257489904,0.8073967103453771,-7.8531194668817905,6.330072714545339,17.6131192290743,no_tremor
108,1335691,0.652,-0.48889945814557456,-0.26019363947799323,0.7995947229916681,-8.070846391344041,6.339333565415868,17.62799903266408,no_tremor
109,1335696,0.657,-0.49855483152445973,-0.2576838680384099,0.7918974625108186,-8.217206756809121,6.318234486893571,17.5547593953607,no_tremor
110,1335701,0.662,-0.5078930316641896,-0.25506818081106253,0.7843388949469187,-8.298750363440435,6.269915271592794,17.40285972767712,no_tremor
111,1335705,0.666,-0.5168888721234602,-0.25236985891159625,0.7769500618825418,-8.32194033271003,6.197458776113363,17.18154948908985,no_tremor
112,1335710,0.671,-0.525521027601706,-0.24961141645788384,0.7697590008869055,-8.293112727705298,6.103873637149029,16.899817353685805,no_tremor
113,1335715,0.676,-0.5337719681507708,-0.24681447338967635,0.7627906937292153,-8.218439151400968,5.992078374814943,16.566344843208288,no_tremor
114,1335720,0.681,-0.5416278647374058,-0.24399963777506112,0.7560670419404898,-8.103892466031434,5.864886906902183,16.189464517174308,no_tremor
115,1335725,0.686,-0.5490784684919976,-0.2411863986496923,0.7496068690078479,-7.9552157540666775,5.724995486952831,15.777122781476443,no_tremor
116,1335729,0.69,-0.5561169661841513,-0.23839303034334453,0.7434259482106892,-7.777894617353435,5.5749710678683435,15.336847350033656,no_tremor
117,1335734,0.695,-0.5627398146020576,-0.23563650913065856,0.7375370548633663,-7.577132885430327,5.4172410830771485,14.875719368577496,no_tremor
118,1335739,0.7,-0.5689465565831192,-0.23293244290247392,0.7319500415163535,-7.3578317771964326,5.254084629913737,14.40035018532807,no_tremor
119,1335744,0.705,-0.5747396214549279,-0.23029501439536096,0.7266719344881145,-7.12457253273967,5.087625035475705,13.916862729775692,no_tremor
120,1335749,0.71,-0.5801241126080985,-0.2277369383454104,0.721707049951951,-6.881602505171569,4.919823784434246,13.430877437928912,no_tremor
121,1335754,0.715,-0.5851075848473198,-0.2252694327544774,0.7170571276841318,-6.6328246767581405,4.752475790973148,12.947502640536724,no_tremor
122,1335759,0.72,-0.5896998140663867,-0.22290220427969812,0.7127214804890497,-6.381790540186898,4.587206002277832,12.471329310240547,no_tremor
123,1335764,0.725,-0.5939125616778381,-0.22064344758646948,0.7086971572512479,-6.131696264561036,4.425467327279093,12.006430044261341,no_tremor
124,1335769,0.73,-0.5977593361068461,-0.21849985834633767,0.7049791175202023,-5.885382046091742,4.268539889751787,11.556362140901031,no_tremor
125,1335773,0.734,-0.6012551535384348,-0.21647665941807273,0.7015604155094035,-5.6453345247408855,4.117531607468816,11.124174610940424,no_tremor
126,1335778,0.739,-0.6044162999909505,-0.21457763962481685,0.6984323913846725,-5.41369213014046,3.9733800977700584,10.712418949208976,no_tremor
127,1335803,0.764,-0.6072600966788271,-0.21280520443330686,0.6955848677264796,-5.192253203727777,3.83685590448845,10.323163477363428,no_tremor
128,1335808,0.769,-0.6098046705237352,-0.21116043775174653,0.6930063490767524,-4.982486730131982,3.708567032050602,9.958011056125947,no_tremor
129,1335813,0.774,-0.6120687315721285,-0.20964317398754687,0.6906842225225673,-4.785545499601653,3.5889647600724937,9.618119953103799,no_tremor
130,1335818,0.779,-0.6140713589735519,-0.20825207943921986,0.688604957328268,-4.602281513767523,3.4783506962680795,9.304227639368776,no_tremor
131,1335823,0.784,-0.6158317970619279,-0.2069847420322956,0.6867543017046662,-4.4332634379790745,3.376885007800683,9.016677272993643,no_tremor
132,1335827,0.788,-0.6173692629575879,-0.20583776834369463,0.6851174748984813,-4.278795893957554,3.2845957525762284,8.755446610662863,no_tremor
133,1335832,0.793,-0.6187027669706352,-0.2048068867922945,0.6836793528948992,-4.13894037626982,3.2013892134946778,8.520179070173922,no_tremor
134,1335837,0.798,-0.6198509469384137,-0.20388705580750427,0.682424646148007,-4.013537565171879,3.1270611209943606,8.310216648094954,no_tremor
135,1335842,0.803,-0.6208319174747947,-0.20307257572546353,0.6813380678846012,-3.9022307969671672,3.0613086328830588,8.124634378465853,no_tremor
136,1335847,0.808,-0.6216631349503136,-0.20235720310726515,0.6804044916634151,-3.8044904416509002,3.0037429262461592,7.962275999882234,no_tremor
137,1335851,0.812,-0.6223612788631661,-0.2017342661286589,0.6796090970115378,-3.7196389266444014,2.9539022451237056,7.821790479034727,no_tremor
138,1335856,0.817,-0.6229421501041584,-0.20119677965916866,0.6789375021007769,-3.6468761348220347,2.911265240235336,7.701669019019711,no_tremor
139,1335861,0.822,-0.6234205864651345,-0.20073755863310652,0.6783758825680412,-3.5853048945568173,2.8752644328821724,7.600282161632914,no_tremor
140,1335866,0.827,-0.6238103955898324,-0.20034932831727245,0.6779110757256366,-3.5339562693423465,2.8452996328393154,7.515916575553682,no_tremor
141,1335871,0.832,-0.6241243054165329,-0.20002483010048772,0.6775306695508663,-3.4918143455308237,2.820751137971508,7.446811107250337,no_tremor
