sample,t_ms,t_s,ax,ay,az,gx,gy,gz,tremor
0,404039,0.0,-0.5049134514938388,-0.27303161300836576,0.7734291263598316,0.33896558485694855,-0.6102755073239056,0.7075031839812034,no_tremor
1,404044,0.005,-0.5023848567720705,-0.2728990512603499,0.7752869392286407,-1.9876646470534394,-0.10008910549306597,3.8390281200162413,no_tremor
2,404049,0.01,-0.4989834886246136,-0.27266249609298404,0.7777537271422177,-4.410224078694557,0.42630973271573064,7.044391696109945,no_tremor
3,404074,0.035,-0.49469728548708586,-0.27228035063437744,0.7808148703669685,-6.924028131288178,0.9674717339176716,10.316280552568541,no_tremor
4,404079,0.04,-0.4896932983015668,-0.2717203140457003,0.7843233739898448,-9.523504749718464,1.5217845665760354,13.646581956607788,no_tremor
5,404084,0.045,-0.48422271468774497,-0.2709618529210512,0.7880737889812278,-12.20217769867918,2.087475260973385,17.026380647171138,no_tremor
6,404089,0.05,-0.4785403989737854,-0.2699938583696498,0.791862482532227,-14.952658029736225,2.6626141542921324,20.44596396655008,no_tremor
7,404093,0.054,-0.47286558445309673,-0.26881130977996076,0.7955159320188004,-17.766644493067705,3.245120446319877,23.894836045521053,no_tremor
8,404098,0.059,-0.46737237363789713,-0.26741268450715505,0.7988966347252516,-20.634933599382546,3.83276944787512,27.361741716190096,no_tremor
9,404103,0.064,-0.4621944919600128,-0.2657984291238142,0.801898691040709,-23.547439953681252,4.423201599254729,30.83470071472798,no_tremor
10,404108,0.069,-0.4574342330285062,-0.26397023881668435,0.8044406190901733,-26.493227381791645,5.013933328055329,34.301052604605324,no_tremor
11,404113,0.074,-0.45317097076721635,-0.26193081668161067,0.8064587624769327,-29.46055125204587,5.602369803691102,37.747512699122176,no_tremor
12,404118,0.079,-0.44946777563535134,-0.25968387205247984,0.8079022816858422,-32.43691225787913,6.185819629691168,41.16023908926988,no_tremor
13,404122,0.083,-0.44637606401405955,-0.25723421516590694,0.8087297074164538,-35.40912177238328,6.76151149467316,44.52491068948673,no_tremor
14,404127,0.088,-0.4439386634492602,-0.25458787397725136,0.8089067234534602,-38.363378711899635,7.326612778796988,47.826816000783914,no_tremor
15,404264,0.225,-0.44219173301514775,-0.2517521986980531,0.8084048243238402,-41.28535765154795,7.878250083960387,51.0509520599388,no_tremor
16,404269,0.23,-0.44116590372275766,-0.24873594028654936,0.807200560594755,-44.16030772474586,8.413531622820093,54.182132802262416,no_tremor
17,404274,0.235,-0.4408869076243996,-0.24554929893868882,0.8052751632851733,-46.973161625091855,8.929571365568018,57.205105834585474,no_tremor
18,404278,0.239,-0.44137588217473434,-0.24220394283191268,0.8026144036682428,-49.70865383327051,9.42351480685749,60.104676424803166,no_tremor
19,404283,0.244,-0.4426494755375252,-0.23871299889025663,0.7992085919134453,-52.35144702670323,9.892566178373468,62.865837381811154,no_tremor
20,404288,0.249,-0.4447198362483276,-0.23509101767934107,0.7950526503741551,-54.88626549018467,10.334016891043195,65.47390341378483,no_tremor
21,404293,0.254,-0.4475945422701554,-0.2313539144419715,0.7901462188439435,-57.29803421643476,10.745274939160598,67.91464848658775,no_tremor
22,404319,0.28,-0.45127650578150935,-0.2275188880877704,0.7844937631965284,-59.57202225537669,11.123894933714247,70.17444463673752,no_tremor
23,404324,0.285,-0.4557638778131691,-0.2236043197920662,0.7781046680131152,-61.69398873760388,11.467608355180154,72.24040061748602,no_tremor
24,404329,0.29,-0.46104996886110305,-0.21962965277942745,0.7709932998317698,-63.650329863696115,11.774353532338573,74.10049867563313,no_tremor
25,404334,0.295,-0.46712319634387117,-0.21561525485704372,0.7631790316900537,-65.42822502134216,12.042304771720218,75.74372768003295,no_tremor
26,404339,0.3,-0.4739670662580517,-0.21158226529811777,0.7546862224332023,-67.01578007051096,12.269899990565122,77.16021075900186,no_tremor
27,404344,0.305,-0.4815601939750818,-0.20755242773666538,0.7455441463114594,-68.40216572533018,12.455866149660377,78.3413255560993,no_tremor
28,404349,0.31,-0.48987636740439766,-0.20354791081692358,0.7357868699984422,-69.57774886126897,12.599241741528738,79.27981518052677,no_tremor
29,404464,0.425,-0.49888465445566704,-0.19959111844664218,0.7254530755195341,-70.53421449087104,12.699395563131363,79.96988790875143,no_tremor
30,404469,0.43,-0.5085495557016473,-0.19570449163944015,0.7145858288025918,-71.26467609388786,12.756040997036727,80.40730369703512,no_tremor
31,404474,0.435,-0.5188312022793029,-0.19191030409702658,0.7032322947155202,-71.76377199368585,12.769245065747512,80.58944561974398,no_tremor
32,404479,0.44,-0.529685598328725,-0.18823045386666593,0.6914434005556368,-72.0277455905505,12.739431646662643,80.51537449682543,no_tremor
33,404484,0.445,-0.5410649066417238,-0.1846862535942012,0.679273450993804,-72.05450751819,12.667378454773262,80.18586523524019,no_tremor
34,404488,0.449,-0.5529177756592812,-0.1812982220603309,0.6667796984313005,-71.84367815638987,12.554207687592424,79.60342376026517,no_tremor
35,404493,0.454,-0.5651897054925757,-0.17808587982542984,0.6540218735820436,-71.39660935880019,12.401370527947643,78.7722838079084,no_tremor
36,404498,0.459,-0.5778234502129354,-0.17506755190721698,0.6410616818360884,-70.71638470146502,12.210625970985,77.69838325404712,no_tremor
37,404503,0.464,-0.5907594532305952,-0.17226018046651925,0.6279622715857796,-69.80779800754715,11.984014660558822,76.38932005302235,no_tremor
38,404508,0.469,-0.603936312135106,-0.16967915046782184,0.6147876812019759,-68.6773103488634,11.723828580384,74.85428824156844,no_tremor
39,404513,0.474,-0.617291268883658,-0.16733813120165017,0.6016022717393004,-67.3329861584739,11.432577545662003,73.1039948288532,no_tremor
40,404518,0.479,-0.6307607206883116,-0.16524893639588528,0.5884701527360173,-65.78440950317483,11.11295348158189,71.15055873675853,no_tremor
41,404522,0.483,-0.6442807463699941,-0.1634214053969627,0.5754546086657311,-64.0425819527803,10.76779345792275,69.00739327454907,no_tremor
42,404527,0.488,-0.6577876423271727,-0.16186330756633105,0.5626175337007747,-62.11980383816439,10.40004238032014,66.68907392950292,no_tremor
43,404532,0.493,-0.6712184616308078,-0.160580271611584,0.5500188824608063,-60.02954100862475,10.012716131801001,64.21119353356342,no_tremor
44,404693,0.654,-0.6845115491356509,-0.15957574105805533,0.5377161443355813,-57.78627948035166,9.608865830282863,61.59020712848274,no_tremor
45,404698,0.659,-0.6976070649461713,-0.15885095647836214,0.5257638487661728,-55.405370603800634,9.191543736656413,58.84326908730064,no_tremor
46,404703,0.664,-0.7104474881968076,-0.15840496446934718,0.5142131085071372,-52.902869537603145,8.763771232317175,55.98806521814073,no_tremor
47,404707,0.668,-0.7229780930466166,-0.15823465275764012,0.5031112073300855,-50.29536985330174,8.328509200524234,53.04264262040823,no_tremor
48,404712,0.673,-0.7351473891636332,-0.15833481028896285,0.49250123784296457,-47.59983698803143,7.888631094031978,50.025239958657,no_tremor
49,404717,0.678,-0.7469075197887577,-0.15869821074637416,0.4824217941086219,-44.833443044930036,7.446898933463097,46.95412060142304,no_tremor
50,404722,0.683,-0.7582146116161281,-0.15931571764611416,0.47290672260907046,-42.01340517400408,7.005942432109036,43.84741080492515,no_tremor
51,404727,0.688,-0.7690290720605324,-0.16017640895381471,0.4639849338876288,-39.1568294929686,6.568241369893563,40.72294484814475,no_tremor
52,404731,0.692,-0.7793158308761338,-0.16126771902389367,0.45568027596914684,-36.28056224465018,6.13611124444451,37.59811876025876,no_tremor
53,404736,0.697,-0.7890445244527226,-0.162575595570732,0.4480114694541443,-33.40104963799539,5.711692123047681,34.48975402512424,no_tremor
54,404741,0.702,-0.7981896223825365,-0.16408466931587867,0.4409921030407548,-30.534207583697878,5.296940521922539,31.41397240120605,no_tremor
55,404746,0.707,-0.80673049702153,-0.16577843390857944,0.4346306871767095,-27.69530231275243,4.893624063725609,28.386082760863687,no_tremor
56,404751,0.712,-0.8146514377417041,-0.16763943367784293,0.4289307626042307,-24.898842656672432,4.503318620480112,25.420480632638863,no_tremor
57,404844,0.805,-0.8219416123797159,-0.16964945673674323,0.4238910597492355,-22.158484571312435,4.1274076403131605,22.530560926255262,no_tremor
58,404849,0.81,-0.8285949790375152,-0.1717897309235686,0.4195057042336304,-19.486948301386892,3.7670833773689925,19.728644133342403,no_tremor
59,404854,0.815,-0.8346101518941544,-0.17404112004118943,0.41576446326891997,-16.89594840857026,3.4233497816740983,17.025916125901396,no_tremor
60,404859,0.82,-0.8399902250538691,-0.17638431786898243,0.4126530273389402,-14.396136721505687,3.0970268425240826,14.432381515663076,no_tremor
61,404864,0.825,-0.8447425586949473,-0.17880003749411785,0.4101533214100308,-11.997058111680909,2.7887562042676146,11.956830387835351,no_tremor
62,404869,0.83,-0.8488785319157934,-0.18126919364892116,0.40824383990605345,-9.707118857147838,2.499007887993154,9.606818082427491,no_tremor
63,404873,0.834,-0.8524132667258991,-0.18377307593864659,0.40689999981918146,-7.533567228685904,2.228087963579763,7.388657567829903,no_tremor
64,404878,0.839,-0.8553653276268091,-0.18629351108232386,0.4060945065556969,-5.482485821018371,1.9761470284027014,5.307423837188053,no_tremor
65,404883,0.844,-0.8577564011911003,-0.18881301255333333,0.4057977274069873,-3.5587950547636336,1.7431893617997194,3.3669696598617165,no_tremor
66,404888,0.849,-0.859610959987305,-0.19131491628517022,0.405978067867268,-1.7662671926644913,1.5290826368045656,1.5699519381216867,no_tremor
67,404893,0.854,-0.8609559151210214,-0.19378350139350548,0.40660234637647347,-0.1075501464361302,1.3335680815932618,-0.08213214772512219,no_tremor
68,404898,0.859,-0.8618202615685226,-0.1962040951516674,0.4076361634394986,1.4157997017210837,1.1562709918213752,-1.5889000756768275,no_tremor
69,404902,0.863,-0.8622347203674521,-0.19856316173726565,0.4090442614551142,2.8032764772079997,0.9967115011872882,-2.9510309100189596,no_tremor
70,404907,0.868,-0.862231381596062,-0.2008483745373282,0.4107908719750554,4.055376431050036,0.854315521667581,-4.1702051596550715,no_tremor
71,404912,0.873,-0.8618433519131371,-0.20304867205284044,0.4128400475026542,5.17354305379994,0.7284257682632759,-5.249038523557712,no_tremor
72,404937,0.898,-0.8611044102406314,-0.20515429767638255,0.4151559753280026,6.16010654764005,0.6183127871276158,-6.1910104888118545,no_tremor
73,404942,0.903,-0.8600486749466585,-0.20715682382459338,0.4177032712799445,7.018218517136729,0.5231859113209647,-7.000388746408662,no_tremor
74,404947,0.908,-0.858710285625037,-0.2090491610864024,0.4204472516507579,7.751782730176731,0.4422040746477088,-7.682150380116359,no_tremor
75,404952,0.913,-0.8571231022670501,-0.21082555319452628,0.42335418191331137,8.365382785986974,0.37448641921370274,-8.241900763697272,no_tremor
76,404957,0.918,-0.855320424282318,-0.21248155873975647,0.4263915011988348,8.864207507806023,0.31912263446638317,-8.685791071634911,no_tremor
77,404961,0.922,-0.8533347314551086,-0.2140140206269304,0.42952802183300876,9.25397485395128,0.27518296410822035,-9.020435269901098,no_tremor
78,404966,0.927,-0.8511974485310545,-0.21542102432329108,0.43273410353661623,9.540855112273357,0.241727813924683,-9.252827408168507,no_tremor
79,404971,0.932,-0.8489387347293792,-0.2167018459803791,0.4359818021831258,9.731394108916009,0.2178168904531592,-9.390259984651115,no_tremor
80,404976,0.937,-0.84658729907833,-0.21785689152524268,0.43924499326850347,9.832437123082517,0.2025177992803464,-9.440244099937145,no_tremor
81,404981,0.942,-0.8441702420859896,-0.21888762782015878,0.4424994704880403,9.85105415570952,0.19491403364858817,-9.410432057120083,no_tremor
82,404986,0.947,-0.8417129238931942,-0.2197965069858048,0.4457230200313714,9.794467152135644,0.19411228943639688,-9.30854300316411,no_tremor
83,404991,0.952,-0.8392388587168119,-0.2205868849735388,0.44889547140097136,9.669979727717442,0.19924905120291497,-9.14229214217807,no_tremor
84,404995,0.956,-0.8367696350852193,-0.22126293545983788,0.45199872573234884,9.48490989202771,0.20949640500855796,-8.919323986498682,no_tremor
85,405000,0.961,-0.8343248610964733,-0.2218295601208776,0.4550167627470574,9.246526213155873,0.22406704628666912,-8.64715004742475,no_tremor
86,405005,0.966,-0.831922133694527,-0.22229229632781494,0.4579356276034206,8.961987809799359,0.2422184646697416,-8.333091305204869,no_tremor
87,405010,0.971,-0.8295770307593829,-0.22265722328300985,0.46074339902510425,8.63828850598579,0.26325630216265467,-7.984225737989765,no_tremor
88,405015,0.976,-0.8273031246413852,-0.22293086759311145,0.4634301401845152,8.282205432006846,0.2865368961635019,-7.6073411315556285,no_tremor
89,405020,0.981,-0.825112015634771,-0.2231201092452556,0.4659878338962806,7.900252305921054,0.3114690340070637,-7.20889333502668,no_tremor
90,405024,0.985,-0.8230133837770155,-0.2232320889161408,0.46841030373555276,7.4986375827781915,0.3375149599272063,-6.794970072241221,no_tremor
91,405029,0.99,-0.8210150572737074,-0.2232741174994163,0.4706931227367075,7.083227613197489,0.36419068731580245,-6.37126036360457,no_tremor
92,405034,0.995,-0.8191230957787912,-0.22325358868432396,0.47283351135082013,6.659514908805507,0.39106567771967565,-5.943029558953893,no_tremor
93,405058,1.019,-0.8173418867025513,-0.22317789535842394,0.47483022634642724,6.23259156916068,0.4177619522088145,-5.515099928245666,no_tremor
94,405063,1.024,-0.8156742526712373,-0.22305435054065503,0.4766834423294317,5.807127883117895,0.4439527000977502,-5.091836704876337,no_tremor
95,405068,1.029,-0.8141215682213568,-0.2228901134793428,0.4783946275370459,5.387356077134157,0.4693604455058379,-4.677139428195483,no_tremor
96,405073,1.034,-0.8126838837800062,-0.22269212147442846,0.47996641552983765,4.977059143779852,0.4937548267992023,-4.274438389381058,no_tremor
97,405078,1.039,-0.8113600549648207,-0.222467027905349,0.4814024743666801,4.579564645772489,0.5169500406530028,-3.886695949163876,no_tremor
98,405083,1.044,-0.8101478752394716,-0.22222114686678096,0.4827073747993881,4.197743354533746,0.538802002284979,-3.5164124660544673,no_tremor
99,405088,1.049,-0.8090442099891855,-0.22196040473502637,0.4838864589653425,3.8340125480963514,0.5592052750824672,-3.1656365484445703,no_tremor
100,405092,1.053,-0.8080451301401081,-0.22169029890933792,0.4849457109854789,3.4903437615716646,0.5780898245665402,-2.8359793226353958,no_tremor
101,405097,1.058,-0.8071460435391583,-0.22141586389601597,0.48589163079028047,3.1682747545214602,0.5954176522768387,-2.5286323911369726,no_tremor
102,405102,1.063,-0.8063418224377523,-0.22114164482945084,0.48673111239747957,2.8689254333761376,0.6111793643124506,-2.244389140767404,no_tremor
103,405107,1.068,-0.8056269255816018,-0.2208716784538336,0.4874713277527109,2.59301744327661,0.6253907268778164,-1.9836690475245546,no_tremor
104,405112,1.073,-0.8049955135954853,-0.2206094815218876,0.48811961712009466,2.340897122304172,0.6380892573316348,-1.7465446148796202,no_tremor
105,405116,1.077,-0.8044415565602375,-0.22035804650200333,0.48868338687624135,2.112561492064401,0.6493308939720065,-1.5327705743536248,no_tremor
106,405121,1.082,-0.8039589329014115,-0.22011984442150562,0.4891700154216049,1.907686941774983,0.6591867811360406,-1.3418149720918708,no_tremor
107,405126,1.087,-0.8035415189367419,-0.21989683461024492,0.4895867677808355,1.7256602475334757,0.6677401985382467,-1.1728917624157122,no_tremor
108,405131,1.092,-0.8031832686544127,-0.21969048104425068,0.4899407193221105,1.5656115531806962,0.6750836562657275,-1.0249945285190563,no_tremor
109,405136,1.097,-0.8028782835087831,-0.21950177492316292,0.4902386888873748,1.426448923381592,0.6813161709268506,-0.8969309508025042,no_tremor
110,405141,1.102,-0.8026208722184787,-0.2193312630473704,0.4904871814935549,1.306894063131795,0.6865407347767072,-0.7873576436682388,no_tremor
111,405146,1.107,-0.8024056007290075,-0.21917908149146187,0.49069234064105816,1.2055187810907904,0.690861987740672,-0.6948149807803207,no_tremor
112,405150,1.111,-0.8022273326552977,-0.21904499400028574,0.49085991015141706,1.120781757100966,0.6943841013124664,-0.6177615261791647,no_tremor
113,405155,1.116,-0.8020812606472936,-0.21892843446331728,0.49099520535098046,1.051065157124434,0.6972088830595933,-0.5546076842273311,no_tremor
