sample,t_ms,t_s,ax,ay,az,gx,gy,gz,tremor
0,888918,0.0,-0.6193661111982824,-0.24860837958831264,0.6500619160735205,12.003869815962958,-3.156360241283884,-4.652741730318308,no_tremor
1,888923,0.005,-0.6167330214653383,-0.24945962433855529,0.6515580365913064,11.587287654862466,-3.1314398428340873,-3.011326245486846,no_tremor
2,888928,0.01,-0.6130335845670979,-0.25060768753405166,0.6537639330437076,11.06293479822457,-3.073295852636041,-1.2478695611442174,no_tremor
3,888933,0.015,-0.6081436719788224,-0.2520577242506562,0.656823160560875,10.4222875971571,-2.9808194067265066,0.6409528535010881,no_tremor
4,888938,0.02,-0.602124575722243,-0.25375375235150255,0.6607739942163632,9.656911094535046,-2.853051292293046,2.6580852211655075,no_tremor
5,888942,0.024,-0.5951441714125059,-0.25561033693857454,0.6655808878394263,8.758527477955711,-2.689195086023467,4.806041992384723,no_tremor
6,888947,0.029,-0.5873982476676421,-0.25753978633584157,0.6711757963512149,7.719087653696463,-2.488630789509323,7.086857440890618,no_tremor
7,888952,0.034,-0.5790662056045459,-0.2594656326579326,0.6774856008439932,6.530845476815243,-2.2509289419782763,9.502034740375178,no_tremor
8,888957,0.039,-0.5702955842275701,-0.26132605524155117,0.6844446186273889,5.186434119954283,-1.9758651433354897,12.052494990230407,no_tremor
9,888962,0.044,-0.5612022679059748,-0.2630724354326625,0.6919976456165164,3.6789440123110455,-1.6634348685402038,14.73852670684201,no_tremor
10,888966,0.048,-0.5518766484016115,-0.2646664371253467,0.7000985679760553,2.002001729839791,-1.3138684002911996,17.559736347797685,no_tremor
11,888976,0.058,-0.5423907035062557,-0.2660771905207199,0.7087075583382808,0.14984916796258543,-0.9276456523082657,20.5150004862336,no_tremor
12,888981,0.063,-0.5328040317555366,-0.26727908914911436,0.7177882634796738,-1.8825777197810352,-0.5055106014131325,23.602420298453787,no_tremor
13,888985,0.067,-0.523168396989703,-0.2682502354856303,0.7273054849251347,-4.099571376995879,-0.048484995003757234,26.81927906715435,no_tremor
14,888990,0.072,-0.513530927519163,-0.2689714129049942,0.7372234381706415,-6.504577089272465,0.442119045894519,30.162003432887975,no_tremor
15,888995,0.077,-0.5039362714853646,-0.2694254396611737,0.7475045212644076,-9.100120240565264,0.9646879455089228,33.626129146112405,no_tremor
16,889000,0.082,-0.49442799791022757,-0.2695967839853507,0.7581084863454147,-11.88773721867483,1.5172975564294138,37.20627207948993,no_tremor
17,889005,0.087,-0.48504947202595416,-0.26947135103821873,0.7689919156461898,-14.867910811476312,2.0977064568312835,40.89610525275616,no_tremor
18,889010,0.092,-0.4758443703274389,-0.26903637977704076,0.7801079240205496,-18.04001092722524,2.7033520985375326,44.68834259795635,no_tremor
19,889015,0.097,-0.4668569496014202,-0.2682804081980623,0.7914060306382821,-21.402241451017343,3.3313502066147445,48.57473014913768,no_tremor
20,889041,0.123,-0.4581321466785296,-0.26719327964989253,0.802832159187573,-24.951594015267997,3.97849777190919,52.546045276982504,no_tremor
21,889046,0.128,-0.44971555958774934,-0.2657661725068262,0.8143287382694554,-28.683809415684053,4.6412798982271815,56.59210450707315,no_tremor
22,889051,0.133,-0.4416533432620402,-0.26399164184481405,0.8258348823247776,-32.59334734780631,5.315880674037985,60.701780364943936,no_tremor
23,889056,0.138,-0.4339920414483742,-0.26186366594020805,0.8372866392978676,-36.673365075925254,5.998198147479014,64.86302758695341,no_tremor
24,889061,0.143,-0.42677836912921113,-0.2593776931506277,0.8486172951096301,-40.91570557772021,6.683863404416552,69.06291892615816,no_tremor
25,889066,0.148,-0.4200589552184378,-0.2565306865273389,0.859757727499886,-45.31089563344016,7.368263686530909,73.28769066706754,no_tremor
26,889070,0.152,-0.41388005261306754,-0.2533211646668852,0.8706368033419243,-49.84815424649341,8.046569437353273,77.52279784265136,no_tremor
27,889075,0.157,-0.40828722121673067,-0.24974923804176064,0.8811818144334782,-54.515411693718065,8.713765123783771,81.75297902337581,no_tremor
28,889080,0.162,-0.40332498886359863,-0.24581664048930288,0.8913189472350647,-59.29933941117772,9.364683643767831,85.96233042479267,no_tremor
29,889085,0.167,-0.39903649486512455,-0.2415267557730809,0.9009737822023568,-64.18539082811365,9.994044093280587,90.13438896030254,no_tremor
30,889090,0.172,-0.3954631209744262,-0.2368846392222721,0.9100718183450278,-69.15785316939642,10.596492624737653,94.25222375060692,no_tremor
31,889095,0.177,-0.3926441147734491,-0.2318970344453028,0.9185390185134866,-74.19991015537575,11.166646083243053,98.29853549131168,no_tremor
32,889100,0.182,-0.3906162107361386,-0.22657238503736785,0.9263023707210997,-79.29371543618728,11.699138057345674,102.25576297524856,no_tremor
33,889105,0.187,-0.3894132544364518,-0.22092084108376414,0.9332904605923917,-84.42047650386905,12.18866692958642,106.10619596678413,no_tremor
34,889109,0.191,-0.38906583550728513,-0.21495426012398228,0.9394340498161206,-89.56054872901512,12.630045462299874,109.83209353238573,no_tremor
35,889114,0.196,-0.3896009349885817,-0.2086862021028101,0.9446666552975618,-94.69353906884005,13.018251408676855,113.41580684613943,no_tremor
36,889119,0.201,-0.3910415926163719,-0.20213191770778155,0.9489251235634244,-99.79841889094311,13.34847859992615,116.83990541252882,no_tremor
37,889124,0.206,-0.3934065993938498,-0.19530832938665046,0.952150194888241,-104.85364525272784,13.616187928060105,120.08730558314842,no_tremor
38,889129,0.211,-0.39671022045093673,-0.1882340042601811,0.954287051592193,-109.83728987100851,13.817157621928072,123.14140018937773,no_tremor
39,889134,0.216,-0.40096195274436075,-0.18092911809759163,0.9552858450139194,-114.7271749094209,13.94753220293146,125.98618806853166,no_tremor
40,889139,0.221,-0.4061663215832361,-0.17341540950535056,0.9551021957924392,-119.50101460178973,14.003869507129462,128.6064022258737,no_tremor
41,889166,0.248,-0.41232271929542225,-0.16571612349389142,0.9536976623010454,-124.13656161768625,13.98318517214143,130.98763534882036,no_tremor
42,889171,0.253,-0.41942528859409023,-0.15785594362911534,0.9510401723581067,-128.61175696619722,13.882994008420884,133.11646137281056,no_tremor
43,889176,0.258,-0.4274628523928909,-0.14986091204342308,0.9471044136811925,-132.90488213595492,13.70134769989044,134.98055179223743,no_tremor
44,889181,0.263,-0.43641889100032816,-0.14175833667202994,0.9418721789283895,-136.99471209752522,13.436868301491984,136.56878541813518,no_tremor
45,889186,0.268,-0.44627156685311375,-0.13357668519513938,0.9353326615568611,-140.8606677558413,13.08877701705835,137.87135031034092,no_tremor
46,889191,0.273,-0.45699379626357567,-0.12534546531070156,0.927482699101899,-144.48296643099553,12.656917753302743,138.87983665601678,no_tremor
47,889196,0.278,-0.46855336707424305,-0.1170950911444297,0.9183269608290225,-147.8427689544132,12.14177496300504,139.5873194270838,no_tremor
48,889200,0.282,-0.48091310063486126,-0.10885673583046257,0.9078780770360416,-150.92232198593157,11.544485320797508,139.9884297256345,no_tremor
49,889205,0.287,-0.49403105613894577,-0.10066217056945381,0.8961567075877339,-153.70509418286494,10.8668428233143,140.07941381969388,no_tremor
50,889210,0.292,-0.5078607750715335,-0.09254359078656955,0.8831915475653234,-156.1759048855659,10.11129697434599,139.8581789829484,no_tremor
51,889215,0.297,-0.5223515633153801,-0.08453343035965266,0.8690192682233225,-158.32104402762107,9.280943806252218,139.32432538242287,no_tremor
52,889220,0.302,-0.5374488083210309,-0.07666416525268802,0.8536843917871344,-160.12838203578065,8.379509600717297,138.47916340953316,no_tremor
53,889225,0.307,-0.5530943286425846,-0.06896810825336307,0.8372390990163368,-161.58746855908976,7.411327300862153,137.3257160243276,no_tremor
54,889230,0.312,-0.5692267530486542,-0.0614771968556504,0.8197429689204173,-162.68961896267578,6.381305743848906,135.8687058789443,no_tremor
55,889234,0.316,-0.5857819263110133,-0.05422277662698255,0.8012626505637257,-163.42798764093217,5.294891976268412,134.1145271987678,no_tremor
56,889239,0.321,-0.6026933386293019,-0.04723538263096418,0.7818714675491564,-163.79762734473815,4.158027032710756,132.07120262035994,no_tremor
57,889244,0.326,-0.6198925754528332,-0.04054452161812159,0.7616489565350838,-163.79553387237172,2.9770956555357095,129.7483254064689,no_tremor
58,889249,0.331,-0.6373097842024734,-0.034178457735283975,0.740680342019706,-163.42067563847124,1.7588705123217774,127.15698767444971,no_tremor
59,889259,0.341,-0.6548741540792972,-0.028164004439303884,0.7190559506149181,-162.67400780549846,0.5104515320755312,124.3096954798919,no_tremor
60,889264,0.346,-0.6725144047860869,-0.022526325144403524,0.696870569111104,-161.55847083427864,-0.7607989621915593,121.22027178567132,no_tremor
61,889291,0.373,-0.6901592796114472,-0.017288744901061248,0.6742227517716772,-160.07897348137615,-2.04732459318665,117.90374851008458,no_tremor
62,889296,0.378,-0.7077380379852585,-0.012472575119616228,0.6512140834318902,-158.2423604375629,-3.3414459538125856,114.37624897790431,no_tremor
63,889305,0.387,-0.7251809423873865,-0.008096953044067615,0.6279484060155825,-156.05736495758433,-4.635433466100144,110.65486218797186,no_tremor
64,889311,0.393,-0.742419734471592,-0.004178697387808943,0.6045310169116374,-153.53454697012575,-5.921581155982354,106.75751035684272,no_tremor
65,889316,0.398,-0.7593880955149355,-0.0007321812935024157,0.5810678481797745,-150.68621727516324,-7.192280360195641,102.7028112044268,no_tremor
66,889321,0.403,-0.7760220868062278,0.002230776416229981,0.5576646357609415,-147.52634853676724,-8.440092333849854,98.50993642728095,no_tremor
67,889325,0.407,-0.7922605662599549,0.00470100088265306,0.5344260877965031,-144.07047386952988,-9.657818709989368,94.19846777198856,no_tremor
68,889330,0.412,-0.8080455782717387,0.006672031062001137,0.5114550608917581,-140.33557390189134,-10.838568783886547,89.78825208224134,no_tremor
69,889335,0.417,-0.8233227145187834,0.00814016921571015,0.4888517527718582,-136.33995328269214,-11.975822657975108,85.29925665005605,no_tremor
70,889340,0.422,-0.8380414439846097,0.009104509593958879,0.46671291933374026,-132.10310767885733,-13.063489386545461,80.75142615347916,no_tremor
71,889345,0.427,-0.8521554109121794,0.009566945998444681,0.445131123637058,-127.64558239153942,-14.09595939581376,76.16454241006498,no_tremor
72,889350,0.432,-0.8656226996500535,0.009532158054458423,0.4241940239230506,-122.9888237939491,-15.068150614639695,71.55808811781456,no_tremor
73,889355,0.437,-0.8784060654623076,0.009007576178807108,0.40398370731189115,-118.15502486434434,-15.975547922883012,66.95111569393364,no_tremor
74,889360,0.442,-0.8904731303531912,0.008003325396893439,0.3845760754050625,-113.16696614923414,-16.814235696127472,62.36212225721094,no_tremor
75,889365,0.447,-0.9017965428538649,0.006532148336263061,0.36604028760032165,-108.0478535414536,-17.580923383719618,57.80893173130452,no_tremor
76,889369,0.451,-0.9123541005797332,0.004609307902210881,0.34843826749733287,-102.8211542923833,-18.27296418850035,53.30858497190662,no_tremor
77,889374,0.456,-0.922128834242868,0.0022524703214038383,0.3318242773121352,-97.51043269525331,-18.888367012094246,48.87723873924915,no_tremor
78,889379,0.461,-0.9311090517418759,-0.000518430579214,0.31624456470494455,-92.13918687716696,-19.4258018862547,44.53007424925226,no_tremor
79,889384,0.466,-0.9392883409931277,-0.0036813468088344836,0.301737085835694,-86.73068812332589,-19.8845991305518,40.28121594409206,no_tremor
80,889389,0.471,-0.9466655303479677,-0.0072122861314147,0.28833130778137517,-81.30782413119526,-20.26474246438387,36.14366102892392,no_tremor
81,889415,0.497,-0.9532446057862651,-0.01108549704705443,0.276048092679413,-75.89294755789224,-20.56685626438045,32.129220228270206,no_tremor
82,889420,0.502,-0.9590345845946154,-0.015273667228522093,0.2648996651143323,-70.50773118096478,-20.792187109923216,28.24847012317506,no_tremor
83,889425,0.507,-0.9640493459029306,-0.01974813362365143,0.2548896633583712,-65.17303093517151,-20.942579721384963,24.5107173338474,no_tremor
84,889430,0.512,-0.968307419205394,-0.024479102277993076,0.24601327413076565,-59.90875800631924,-21.02044739235817,20.923974703971627,no_tremor
85,889435,0.517,-0.971831732750024,-0.02943587582321306,0.23825744957836578,-54.733761053641864,-21.028737061335814,17.494949518055275,no_tremor
86,889439,0.521,-0.9746493243724526,-0.034587086525526736,0.23160120422561087,-49.66571950194664,-20.97088925258413,14.229043647092974,no_tremor
87,889444,0.526,-0.9767910179287305,-0.03990093278745525,0.22601598871366693,-44.72104870641104,-20.85079322169061,11.1303653799905,no_tremor
88,889449,0.531,-0.9782910689338756,-0.045345417029439596,0.22146613625799533,-39.91481765518295,-20.672737752131294,8.20175256536214,no_tremor
89,889454,0.536,-0.979186783344413,-0.0508885829317143,0.21790937690472237,-35.26067974082814,-20.441358154450246,5.44480656297337,no_tremor
90,889459,0.541,-0.9795181136540537,-0.05649875008195605,0.21529741385803436,-30.77081700148023,-20.16158011082229,2.859936387023221,no_tremor
91,889464,0.546,-0.9793272366278147,-0.062144744142692165,0.21357655538022155,-26.455898105695518,-19.83856107746457,0.44641231536941167,no_tremor
92,889488,0.57,-0.9786581171087197,-0.06779612071660551,0.21268839503005238,-22.32505023026434,-19.47763000118029,-1.797571859522011,no_tremor
93,889493,0.575,-0.9775560624175302,-0.0734233811416126,0.21257053230623119,-18.385844855252497,-19.084226124323518,-3.874828849580239,no_tremor
94,889498,0.58,-0.9760672719466709,-0.07899817848942911,0.2131573251158851,-14.64429737119122,-18.6638376480079,-5.789101146041424,no_tremor
95,889503,0.585,-0.9742383866288654,-0.0844935120765147,0.2143806649236786,-11.10488025528139,-18.221941001366954,-7.544978593806699,no_tremor
96,889508,0.59,-0.9721160430295988,-0.08988390883486798,0.21617076499011334,-7.770549427218471,-17.763941431794642,-9.14781134707565,no_tremor
97,889513,0.595,-0.9697464368520643,-0.09514558994228228,0.21845695180122265,-4.642783248432004,-17.29511559595229,-10.603619307301138,no_tremor
98,889538,0.62,-0.9671749006330032,-0.10025662118487409,0.22116844963401175,-1.7216334912807238,-16.82055680183055,-11.918999147012878,no_tremor
99,889543,0.625,-0.9644455003278471,-0.10519704562438037,0.22423514819508655,0.994212516417179,-16.345123531781056,-13.101030011573615,no_tremor
100,889548,0.63,-0.9616006553151337,-0.10994899727296692,0.22758834342270437,3.5073594691137173,-15.873391862681151,-14.157178967989767,no_tremor
101,889552,0.634,-0.9586807860794709,-0.11449679464039302,0.2311614418702523,5.821622365873819,-15.409612385204898,-15.095207237859738,no_tremor
102,889557,0.639,-0.9557239934590962,-0.11882701320832433,0.23489061960057553,7.941936547003365,-14.957672200870606,-15.923078212112621,no_tremor
103,889562,0.644,-0.952765772886382,-0.12292853609454345,0.23871542720411543,9.874260586151323,-14.521062535562388,-16.648868199036905,no_tremor
104,889567,0.649,-0.949838766537811,-0.12679258238324043,0.24257933337933132,11.625473177012381,-14.102852447022967,-17.280680804221628,no_tremor
105,889572,0.654,-0.9469725557747571,-0.13041271280577932,0.24643020044640712,13.203265180132494,-13.705669020992566,-17.82656578128008,no_tremor
106,889577,0.659,-0.9441934957218232,-0.13378481265314615,0.2502206861756797,14.616028011393754,-13.331684349564226,-18.29444312545161,no_tremor
107,889582,0.664,-0.9415245933113928,-0.13690705198521108,0.2539085673789636,15.872739560068824,-12.982609470768184,-18.69203310821344,no_tremor
108,889587,0.669,-0.938985429630046,-0.13977982337520792,0.2574569818187015,16.982848821135175,-12.659695325108677,-19.026792869778827,no_tremor
109,889592,0.674,-0.9365921269366921,-0.14240565759511328,0.2608345861241475,17.95616041419871,-12.363740657887242,-19.305860097974975,no_tremor
110,889597,0.679,-0.934357360280404,-0.14478911781491516,0.2640156285563588,18.802720140476485,-12.09510667161429,-19.536004227047428,no_tremor
111,889602,0.684,-0.9322904132205528,-0.14693667306276287,0.2669799366282509,19.5327027004432,-11.853738115979342,-19.72358548935617,no_tremor
112,889607,0.689,-0.9303972767323515,-0.14885655188055794,0.2697128207581537,20.15630265862361,-11.639190396797208,-19.87452204775472,no_tremor
113,889612,0.694,-0.9286807899545838,-0.1505585773171393,0.272204896312339,20.6836296995956,-11.450662190790982,-19.994265327388643,no_tremor
114,889618,0.7,-0.9271408209901988,-0.1520539846337767,0.2744518275714501,21.124609171850636,-11.287032969203004,-20.087783553025886,no_tremor
115,889623,0.705,-0.925774485493514,-0.1533552233567329,0.2764539983348531,21.48888886498988,-11.146904758438472,-20.159553382582196,no_tremor
116,889627,0.709,-0.9245764002619736,-0.15447574559948998,0.2782161150521051,21.78575291190488,-11.028647398554021,-20.213559411256476,no_tremor
117,889632,0.714,-0.9235389684905048,-0.15542978289210332,0.27974674953778444,22.024043652315655,-10.930446499004939,-20.253301206460254,no_tremor
