sample,t_ms,t_s,ax,ay,az,gx,gy,gz,tremor
0,390226,0.0,-0.4913527403039101,-0.31102322738336,0.7431906980518661,2.036784932394622,0.7305852807734223,-0.49343801515473557,no_tremor
1,390231,0.005,-0.4919110007262435,-0.3109677994102282,0.7426982268184181,2.145795955087578,0.7437752584499838,-0.9960288341079484,no_tremor
2,390236,0.01,-0.4926949399509361,-0.31090238522565977,0.7419906304073922,2.2926150690596185,0.7467126856439382,-1.5442250928883043,no_tremor
3,390240,0.014,-0.49372626226430827,-0.310833637029704,0.741036937710428,2.478163394995245,0.7386986162617458,-2.136718398588785,no_tremor
4,390245,0.019,-0.49498353522816885,-0.3107725563810288,0.7398437211761935,2.7030492111747577,0.7190778448587656,-2.7716839891645364,no_tremor
5,390250,0.024,-0.49641917078922704,-0.31073119834888874,0.7384421909897687,2.9675387518756033,0.6872481784613486,-3.4467548565397466,no_tremor
6,390255,0.029,-0.49797685661305435,-0.31072051060662675,0.7368734233606853,3.2715279913096085,0.6426700113266365,-4.158998466212466,no_tremor
7,390260,0.034,-0.49960164376529353,-0.3107495745511707,0.7351791968368637,3.6145157239163166,0.5848761443725773,-4.904896450145326,no_tremor
8,390265,0.039,-0.5012436958105236,-0.31082565331628187,0.7333981692867689,3.995578256695581,0.5134817873451656,-5.680327648214565,no_tremor
9,390270,0.044,-0.5028585223349573,-0.3109545237888947,0.73156521996046,4.413346032357165,0.4281946755521631,-6.480554868432073,no_tremor
10,390274,0.048,-0.5044058429537356,-0.3111408191931081,0.7297121489691913,4.865982503084115,0.32882522400548964,-7.3002157276109205,no_tremor
11,390279,0.053,-0.5058482153383563,-0.3113882867112162,0.7278687187583357,5.351165573493755,0.2152966305418183,-8.13331792197245,no_tremor
12,390284,0.058,-0.507149880512077,-0.3116999495518188,0.7260635973197956,5.8660719279243745,0.08765482638262724,-8.973239260884878,no_tremor
13,390289,0.063,-0.5082759377206896,-0.3120781918084249,0.7243250680868962,6.407364551170686,-0.05392184185328255,-9.812732775983026,no_tremor
14,390293,0.067,-0.5091918248066641,-0.31252478870882056,0.7226815026404049,6.971183742634372,-0.20911332953892395,-10.643937192150542,no_tremor
15,390298,0.072,-0.5098630414311505,-0.31304090097655696,0.7211616358010191,7.553141911021147,-0.3774491555772483,-11.458393016156839,no_tremor
16,390303,0.077,-0.5102550527777618,-0.31362704683466125,0.719794688864945,8.148322419852045,-0.5583003642358826,-12.247064462992494,no_tremor
17,390328,0.102,-0.5103333234328862,-0.3142830608621079,0.7186103800567132,8.751282732957277,-0.7508723511500544,-13.00036739922757,no_tremor
18,390333,0.107,-0.5100634442577496,-0.31500804583344943,0.7176388519891077,9.356062083930032,-0.9541987206714461,-13.708203437596325,no_tremor
19,390338,0.112,-0.5094113258476508,-0.3158003216321531,0.7169105376858695,9.956193864715612,-1.16713634000691,-14.36000026836392,no_tremor
20,390343,0.117,-0.5083434400915273,-0.31665737403182764,0.7164559804326734,10.544722896410171,-1.3883617485185507,-14.944758261600859,no_tremor
21,390348,0.122,-0.5068270968234779,-0.3175758053355286,0.7163056182655451,11.114227709812097,-1.616369069163894,-15.451103320524007,no_tremor
22,390353,0.127,-0.5048307462065753,-0.31855128837107527,0.7164895408961341,11.656847924071744,-1.8494695557469365,-15.86734590928926,no_tremor
23,390358,0.132,-0.5023242998483015,-0.319578525039099,0.7170372249154635,12.164316768994759,-2.085792896618919,-16.181546118691834,no_tremor
24,390363,0.137,-0.4992794651286303,-0.3206512104228305,0.7179772518907177,12.627998750751669,-2.3232903833958254,-16.381584570243195,no_tremor
25,390367,0.141,-0.49567008812064745,-0.32176200334586214,0.7193370132349648,13.038932413220365,-2.5597400417235807,-16.455238893755784,no_tremor
26,390372,0.146,-0.49147250100265794,-0.3229025041764319,0.7211424053186514,13.387878099814607,-2.792753809571509,-16.390265447006414,no_tremor
27,390377,0.151,-0.486665870137331,-0.32406324060618186,0.723417518087767,13.66537057469809,-3.0197868366408285,-16.174485879460512,no_tremor
28,390382,0.156,-0.48123254111976066,-0.32523366206719423,0.7261843203774562,13.861776316975552,-3.238148965986968,-15.795878076261666,no_tremor
29,390387,0.161,-0.4751583771342881,-0.3264021433872465,0.7294623451079821,13.967355254636125,-3.4450184456306667,-15.242670953930684,no_tremor
30,390392,0.166,-0.46843308695155533,-0.3275559982160963,0.7332683775861544,13.97232665555881,-3.637457903677108,-14.503442515334923,no_tremor
31,390397,0.171,-0.4610505388715639,-0.3286815026831413,0.7376161501853431,13.86693884146803,-3.8124326054060313,-13.567220508771154,no_tremor
32,390401,0.175,-0.45300905689605275,-0.32976392966769613,0.7425160467247934,13.641542338497604,-3.9668309950015255,-12.423584975540797,no_tremor
33,390406,0.18,-0.4443116954093148,-0.3307875939765284,0.7479748199033673,13.286666025657333,-4.0974875073085855,-11.062771913613387,no_tremor
34,390411,0.185,-0.43496648867191323,-0.3317359086285794,0.7539953251567556,12.793095790733613,-4.201207614264047,-9.475777233203505,no_tremor
35,390416,0.19,-0.4249866714953424,-0.3325914523436287,0.7605762742954266,12.151955153375688,-4.274795044475122,-7.654460134701765,no_tremor
36,390421,0.195,-0.4143908675743443,-0.333336048219959,0.7677120122392236,11.35478726896863,-4.315081082761651,-5.5916450020176685,no_tremor
37,390426,0.2,-0.4032032421128089,-0.333950853466123,0.7753923200904912,10.39363768543188,-4.318955820872067,-3.281220876649226,no_tremor
38,390450,0.224,-0.39145361559308134,-0.3344164599244761,0.7836022476784931,9.261137188415573,-4.283401191726867,-0.7182375607848042,no_tremor
39,390454,0.228,-0.37917753580885327,-0.33471300499068907,0.7923219785623047,7.9505840381158635,-4.205525576447895,2.1010026087053566,no_tremor
40,390459,0.233,-0.3664163056058408,-0.33482029239640393,0.8015267302980256,6.4560248731088965,-4.082599724840911,5.1788582714095455,no_tremor
41,390464,0.238,-0.35321696414353704,-0.3347179221847384,0.8111866925620737,4.772333534068796,-3.912093675846529,8.516268788316856,no_tremor
42,390469,0.243,-0.33963221989373,-0.3343854290737364,0.8212670054789144,2.8952870442006517,-3.6917143066726053,12.112681159262122,no_tremor
43,390473,0.247,-0.32572033401707173,-0.3338024282736663,0.8317277802298799,0.8216379744902759,-3.41944308201496,15.965985038732834,no_tremor
44,390478,0.252,-0.3115449532011766,-0.33294876770225534,0.8425241637178006,-1.450817579242162,-3.0935735233998924,20.072456757099715,no_tremor
45,390483,0.257,-0.2971748914976844,-0.33180468542963515,0.8536064487270333,-3.923177173852487,-2.7127478777525007,24.426713225543086,no_tremor
46,390488,0.262,-0.28268386115629085,-0.330350971084753,0.8649202306479685,-6.595375102829705,-2.275992435276606,29.021676560882785,no_tremor
47,390493,0.267,-0.2681501529149006,-0.32856912987061565,0.8764066114283109,-9.466132116182138,-1.7827509278886244,33.84855020950929,no_tremor
48,390498,0.272,-0.253656266660908,-0.3264415477701165,0.888002450970301,-12.532912475085535,-1.2329154278616252,38.896807277937754,no_tremor
49,390502,0.276,-0.23928849382562206,-0.32395165647961716,0.899640665714537,-15.791889000651492,-0.6268541600130347,44.15419169329488,no_tremor
50,390507,0.281,-0.2251364533128612,-0.3210840965850478,0.9112505736396648,-19.237916727681508,0.034564360787815586,49.60673272363025,no_tremor
51,390512,0.286,-0.21129258319852712,-0.31782487749536287,0.9227582843674854,-22.864515717656815,0.7499514510372457,55.23877328838737,no_tremor
52,390517,0.291,-0.1978515908767176,-0.31416153267068425,0.9340871325016482,-26.663863522273008,1.5173832116105321,61.03301238466949,no_tremor
53,390522,0.296,-0.18490986477474172,-0.3100832687272932,0.9451581517539004,-30.626797720902633,2.3343908626046117,66.97056184352161,no_tremor
54,390527,0.301,-0.1725648512167718,-0.3055811070688395,0.9558905868361216,-34.74282888193899,3.1979569733521758,73.03101750943719,no_tremor
55,390532,0.306,-0.1609144004828232,-0.3006480167826642,0.9662024395322398,-39.000164216787695,4.104518047060466,79.19254480289824,no_tremor
56,390537,0.311,-0.15005608658112776,-0.29527903765141117,0.9760110448244789,-43.38574210406928,5.04997384803663,85.43197847826873,no_tremor
57,390542,0.316,-0.1400865057186482,-0.2894713922615217,0.985233672443269,-47.885277559724145,6.029703771639188,91.7249362279544,no_tremor
58,390547,0.321,-0.1311005589055705,-0.2832245863387614,0.9937881487461871,-52.48331861713927,7.038590455314265,98.04594561007652,no_tremor
59,390574,0.348,-0.12319072455445232,-0.2765404966013724,1.0015934934137563,-57.163313461764496,8.071050715787372,104.36858359314328,no_tremor
60,390579,0.353,-0.11644632732017177,-0.2694234455827581,1.0085705650876975,-61.90768803999011,9.121073774590023,110.66562782253688,no_tremor
61,390583,0.357,-0.11095280974942041,-0.2618802630150672,1.0146427097898303,-66.69793374000089,10.182266603081157,116.90921853379693,no_tremor
62,390588,0.362,-0.10679101353239993,-0.2539203334488019,1.0197364057775502,-71.51470463500804,11.24790608066911,123.07102988601036,no_tremor
63,390593,0.367,-0.1040364772407594,-0.24555562978212916,1.0237818984410767,-76.33792369482535,12.31099751860166,129.12244937461995,no_tremor
64,390598,0.372,-0.1027587573818783,-0.2368007322809783,1.0267138189328944,-81.14689730638177,13.364338959845616,135.03476389748374,no_tremor
65,390603,0.377,-0.1030207794115068,-0.22767283250774048,1.028471780422147,-85.92043738493417,14.400590526854344,140.7793509751399,no_tremor
66,390613,0.387,-0.10487822504664977,-0.21819172137647153,1.0290009461577367,-90.63699029408797,15.41234795773915,146.3278735590398,no_tremor
67,390617,0.391,-0.10837896183068951,-0.2083797603513561,1.0282525638769964,-95.27477171992253,16.392219354593454,151.6524768029103,no_tremor
68,390622,0.396,-0.11356252044435614,-0.19826183463589964,1.0261844614903326,-99.81190656595955,17.332904076285548,156.72598512769622,no_tremor
69,390627,0.401,-0.1204596247516943,-0.18786528709299463,1.0227614993883918,-104.22657286011415,18.227272652487354,161.52209788315403,no_tremor
70,390632,0.406,-0.12909177904231164,-0.17721983161546867,1.017955975143083,-108.4971486002418,19.06844657875577,166.01558189888993,no_tremor
71,390637,0.411,-0.13947091639930817,-0.16635744474902792,1.011747976797396,-112.60236041310999,19.849876865999555,170.1824592203533,no_tremor
72,390642,0.416,-0.1515991115999069,-0.15531223456048832,1.0041256813560593,-116.52143285797186,20.565420248236375,174.00018833646752,no_tremor
73,390647,0.421,-0.16546836145045893,-0.144120286040402,0.9950855954988046,-120.2342371646849,21.20941198903891,177.44783722432305,no_tremor
74,390652,0.426,-0.18106043497121727,-0.13281948271975969,0.9846327359437416,-123.72143815460605,21.77673426338634,180.50624656547294,no_tremor
75,390656,0.43,-0.1983467953751639,-0.12144930464913019,0.9727807472967591,-126.9646380506048,22.26287912590436,183.15818153175618,no_tremor
76,390661,0.435,-0.21728859531925268,-0.1100506034162716,0.9595519556424514,-129.94651584339354,22.664005110470647,185.38847059951735,no_tremor
77,390666,0.44,-0.23783674643157196,-0.09866535544560534,0.9449773565716241,-132.6509608503715,22.976986545425355,187.18412993188008,no_tremor
78,390671,0.445,-0.2599320636193736,-0.08733639541251395,0.9290965368081865,-135.0631990866497,23.19945472137789,188.53447197048462,no_tremor
79,390697,0.471,-0.2835054841293442,-0.07610713220189898,0.9119575291004529,-137.16991107030125,23.3298301231244,189.4311970008198,no_tremor
80,390702,0.476,-0.3084783607623256,-0.06502125042628014,0.8936166005788138,-138.9593397080957,23.367345040281414,189.86846659892595,no_tremor
81,390707,0.481,-0.3347628280612871,-0.05412240106463918,0.874137975341008,-140.42138695975862,23.312056008457223,189.8429580327427,no_tremor
82,390712,0.486,-0.36226223973840455,-0.04345388524476784,0.8535934925816838,-141.54769806645137,23.1648457064174,189.35389887904716,no_tremor
83,390717,0.491,-0.3908716751299962,-0.033058335524523266,0.8320622021071191,-142.33173225518055,22.927414139095436,188.40308132310463,no_tremor
84,390722,0.496,-0.4204785120825201,-0.02297739920843096,0.8096298995565595,-142.76881898661475,22.602259157781923,186.99485582514873,no_tremor
85,390726,0.5,-0.45096306335860453,-0.013251428268855298,0.7863886040945386,-142.85619898583502,22.19264659254636,185.13610405880388,no_tremor
86,390731,0.505,-0.4821992733714926,-0.003919180340345663,0.7624359817575602,-142.59304947458293,21.702570487401953,182.83619124961692,no_tremor
87,390736,0.51,-0.514055471772269,0.004982464964702422,0.7378747180461775,-141.98049320650557,21.13670412930762,180.1068982690895,no_tremor
88,390741,0.515,-0.5463951800953445,0.013418770500037588,0.7128118437605633,-141.02159109424414,20.5003427430476,176.96233407382408,no_tremor
89,390751,0.525,-0.5790779672861465,0.021357383295018607,0.6873580184959146,-139.72131841123036,19.799338881216404,173.41882932027426,no_tremor
90,390756,0.53,-0.6119603494664061,0.02876855054037401,0.6616267766560716,-138.08652475390673,19.04003166538985,169.49481222443953,no_tremor
91,390760,0.534,-0.6448967287202343,0.03562530743015274,0.6357337413186452,-136.1258781602886,18.22917111882761,165.2106679530351,no_tremor
92,390765,0.539,-0.6777403650064351,0.041903635058270834,0.6097958117935495,-133.8497939907812,17.37383885981022,160.58858300544236,no_tremor
93,390770,0.544,-0.7103443745370281,0.04758258722185407,0.5839303312497133,-131.27034937571602,16.481366397234904,155.6523761638969,no_tremor
94,390775,0.549,-0.7425627471477184,0.052644385656820135,0.5582542413232776,-128.40118421136205,15.559252203116277,150.42731766232103,no_tremor
95,390780,0.554,-0.7742513743807306,0.05707448390503747,0.5328832311395104,-125.25738983643883,14.61507865428745,144.93993827181802,no_tremor
96,390785,0.559,-0.8052690792709618,0.06086160066530297,0.5079308886508377,-121.85538664233151,13.656429857241363,139.2178300404436,no_tremor
97,390790,0.564,-0.8354786382354077,0.06399772408830767,0.4835078625835921,-118.2127919634414,12.690811308139514,133.28944046645435,no_tremor
98,390794,0.568,-0.8647477850618782,0.06647808901279323,0.45972104356460336,-114.34827966415511,11.725572303033498,127.18386193170468,no_tremor
99,390821,0.595,-0.8929501868085143,0.06830112957871211,0.43667277313483766,-110.28143289353687,10.767832005285019,120.93061827446505,no_tremor
100,390826,0.6,-0.9199663814786365,0.0694684099634221,0.4144600893201751,-106.03259152538006,9.824410091927236,114.55945043229859,no_tremor
101,390831,0.605,-0.9456846676310429,0.0699845361360563,0.3931740171849663,-101.62269584098165,8.901762915805756,108.10010312109544,no_tremor
102,390836,0.61,-0.9700019366101301,0.06985705148679229,0.3728989123119602,-97.07312803784227,8.00592610020224,101.58211451593334,no_tremor
103,390841,0.615,-0.9928244387880242,0.06909631896307873,0.3537118644315056,-92.40555314964114,7.142464397303818,95.03461085108506,no_tremor
104,390846,0.62,-1.0140684760242888,0.06771539197821193,0.3356821675114527,-87.6417609369489,6.316429486111077,88.48610776643956,no_tremor
105,390851,0.625,-1.0336610133786492,0.06572987592580035,0.31887086159935535,-82.80351025676619,5.532326177527058,81.96432011398734,no_tremor
106,390861,0.635,-1.0515402038893593,0.06315778171914292,0.30333035066122055,-77.91237734679744,4.794087259664934,75.49598181724733,no_tremor
107,390865,0.639,-1.0676558209231224,0.06001937244443702,0.28910409964066053,-72.98960937035582,4.10505697642932,69.10667725636287,no_tremor
108,390870,0.644,-1.0819695932204725,0.056337004012622406,0.2762264129937545,-68.05598446100518,3.467982906523151,62.82068553062379,no_tremor
109,390875,0.649,-1.0944554383437457,0.05213496062855427,0.2647222960411128,-63.131679383983375,2.8850158169136053,56.66083882077567,no_tremor
110,390880,0.654,-1.1050995908401493,0.0474392859510794,0.2546073996106298,-58.23614579879492,2.3577169175063415,50.64839592922826,no_tremor
111,390885,0.659,-1.113900622116192,0.042277610953255364,0.24588804761050148,-53.38799597168145,1.8870718448059522,44.8029319172706,no_tremor
112,390890,0.664,-1.1208693498275981,0.036678979654061375,0.23856134636299153,-48.60489865478135,1.4735106456953924,39.14224458860632,no_tremor
113,390894,0.668,-1.1260286355552038,0.03067367402485206,0.23261537373989877,-43.90348572388308,1.1169330095167564,33.68227839087969,no_tremor
114,390899,0.673,-1.1294130706849865,0.024293039430313128,0.22802944536975625,-39.29927004886235,0.8167379993171849,28.437066123338155,no_tremor
115,390904,0.678,-1.131068551745589,0.017569311920285345,0.2247744544376946,-34.80657495899862,0.5718575541717575,23.418688652583143,no_tremor
116,390909,0.683,-1.131051747964136,0.010535448541090389,0.2228132808780197,-30.43847555805679,0.38079306711994015,18.637252653474963,no_tremor
117,390914,0.688,-1.1294294654449384,0.0032249615927395017,0.22210126507481523,-26.206752040270636,0.24165438113171353,14.100886211425234,no_tremor
118,390919,0.693,-1.126277914105921,-0.004328242558230021,0.22258674054531777,-22.12185505757947,0.1522005835006967,9.815751946691853,no_tremor
119,390944,0.718,-1.1216818852657504,-0.012090019862545898,0.22421161949204851,-18.192883090158364,0.10988201475456015,5.786077151349396,no_tremor
120,390949,0.723,-1.1157338494891502,-0.020026140290318465,0.2269120245817799,-14.427571675167487,0.11188294344441,2.0142002651616013,no_tremor
121,390954,0.728,-1.1085329858712225,-0.02810243530258269,0.23061895985723432,-10.832294249797295,0.15516439865557197,-1.4993671435678588,no_tremor
122,390959,0.733,-1.1001841552528893,-0.036284941781471236,0.23525901333254745,-7.412074261049702,0.2365067028995465,-4.755863882613965,no_tremor
123,390963,0.737,-1.0907968308061526,-0.04454004321771769,0.24075508358523245,-4.1706080874873415,0.35255130777062854,-7.758189266257948,no_tremor
124,390973,0.747,-1.0804839999741982,-0.05283460892890503,0.2470271225406171,-1.1102982146786589,0.49984159437269005,-10.510801148010106,no_tremor
125,390978,0.752,-1.0693610519318628,-0.06113613194591183,0.2539928866397326,1.767703985013331,0.6748623495958881,-13.01960324720835,no_tremor
126,390983,0.757,-1.0575446646096238,-0.06941286599674833,0.2615686886753092,4.463446592040324,0.874077662157329,-15.291823251273767,no_tremor
127,390988,0.762,-1.0451517049537746,-0.07763396177399574,0.26967014276551077,6.978117381384195,1.0939669992732703,-17.335883240281365,no_tremor
128,390993,0.767,-1.0322981555155775,-0.0857696024230491,0.278212895208559,9.313976796337647,1.331059231141296,-19.161264021430963,no_tremor
129,390997,0.771,-1.0190980797036282,-0.09379113794996813,0.2871133343195436,11.474284522558934,1.581964374213223,-20.77836498028445,no_tremor
130,391002,0.776,-1.0056626371240855,-0.10167121802612447,0.296289272785553,13.463220560269292,1.8434028332773575,-22.19836105587844,no_tremor
131,391007,0.781,-0.9920991593974663,-0.10938392246226111,0.3056605965751875,15.285801712610436,2.112231941241615,-23.43305843008424,no_tremor
132,391012,0.786,-0.978510295701222,-0.11690488843518701,0.31514987498903874,16.94779441815582,2.3854696252442795,-24.49475048882013,no_tremor
133,391017,0.791,-0.9649932360681484,-0.1242114333738066,0.32468292702245277,18.455624855703412,2.660315066629663,-25.39607556401547,no_tremor
134,391022,0.796,-0.9516390191978277,-0.1312826722459075,0.33418933981432614,19.816287241032157,2.93416626696711,-26.149877900825523,no_tremor
135,391027,0.801,-0.9385319302377961,-0.13809962783332266,0.34360293556068505,21.03725122021292,3.2046344785660383,-26.769073215790254,no_tremor
136,391031,0.805,-0.9257489926869551,-0.1446453324432643,0.35286218386634316,22.126369244483843,3.4695555021033417,-27.266520120692647,no_tremor
137,391036,0.81,-0.9133595572869819,-0.1509049193821814,0.36191055708137754,23.091784789269106,3.726997893096855,-27.65489858630139,no_tremor
138,391041,0.815,-0.9014249895159624,-0.15686570242107187,0.3706968267135359,23.941842255164918,3.9752681510820533,-27.946596512071284,no_tremor
139,391066,0.84,-0.8899984560967569,-0.16251724141476592,0.37917529951817514,24.684999360978477,4.212912989854845,-28.153605353638596,no_tremor
140,391071,0.845,-0.8791248097920857,-0.16785139221210563,0.3873059923440374,25.329742806550655,4.438718805047192,-28.287425640240194,no_tremor
141,391076,0.85,-0.8688405706873987,-0.17286233902408293,0.39505474526432993,25.884507943911757,4.651708469094361,-28.35898308918493,no_tremor
142,391081,0.855,-0.8591740011665248,-0.17754660752120874,0.40239327296513927,26.35760314759147,4.851135596506349,-28.378555894737833,no_tremor
143,391086,0.86,-0.8501452708656194,-0.18190305712248456,0.40929915481600254,26.757139518751384,5.03647643708536,-28.35571363577315,no_tremor
144,391091,0.865,-0.8417667070465183,-0.18593285121409017,0.4157557645214297,27.090966495220716,5.207419572992257,-28.2992681124492,no_tremor
145,391096,0.87,-0.8340431250579224,-0.18963940437951018,0.4217521407474095,27.366613872811683,5.363853617468127,-28.21723628853098,no_tremor
146,391100,0.874,-0.8269722328483715,-0.19302830611209884,0.4272828006274561,27.591240673860117,5.505853137084273,-28.11681538312088,no_tremor
147,391105,0.879,-0.820545102855767,-0.19610722089597715,0.432347498571911,27.77159122719498,5.633663042818478,-28.004370022881577,no_tremor
148,391110,0.884,-0.8147467040219293,-0.19888576496575341,0.4369509333267381,27.913958749452867,5.747681714508383,-27.88543123300412,no_tremor
149,391115,0.889,-0.8095564861653453,-0.20137536047758517,0.44110240675018814,28.024156640247504,5.8484431350418875,-27.764706912679852,no_tremor
150,391120,0.894,-0.804949008489147,-0.20358906823462017,0.44481543829482906,28.107497622714927,5.936598313114447,-27.646103309600115,no_tremor
151,391125,0.899,-0.8008946036026596,-0.2055414005033264,0.4481073396967058,28.16878077610421,6.012896266691732,-27.532756878627843,no_tremor
152,391130,0.904,-0.7973600680914706,-0.2072481158313907,0.45099875488172025,28.212286417868803,6.078164825521428,-27.427075782327115,no_tremor
153,391134,0.908,-0.7943093703806924,-0.20872599813329493,0.4535131706014937,28.24177869842307,6.1332914931459905,-27.330790165451408,no_tremor
154,391139,0.913,-0.7917043663970308,-0.20999262264915347,0.4556764038076226,28.26051567215877,6.179204589831534,-27.24501021201303,no_tremor
155,391144,0.918,-0.7895055133463768,-0.21106611171042805,0.4575160722655939,28.271266504109843,6.216854880102581,-27.170290872715395,no_tremor
