sample,t_ms,t_s,ax,ay,az,gx,gy,gz,tremor
0,456267,0.0,-0.4320426130386371,-0.4422421528282473,0.6856605952739773,11.15334819115971,-2.2849181264535288,-16.81380022687916,no_tremor
1,456273,0.006,-0.4282461976761569,-0.4426106940622355,0.6877826207811143,11.216456889118456,-3.5443875460800243,-16.92501935156463,no_tremor
2,456277,0.01,-0.42289438503344073,-0.44311491919785434,0.6907788349964467,11.230687368576028,-4.861176707624263,-16.93282545615464,no_tremor
3,456282,0.015,-0.4157967247284278,-0.44376149445725177,0.6947603680731763,11.191359918600984,-6.2346760485185895,-16.827757590402314,no_tremor
4,456287,0.02,-0.4070310333851737,-0.4445300823009343,0.6996895721428499,11.093835403380137,-7.66399223448357,-16.600481149989346,no_tremor
5,456292,0.025,-0.3968319143165419,-0.4453861684396041,0.7054416650805829,10.933550264315954,-9.147934350169002,-16.241863409577487,no_tremor
6,456297,0.03,-0.3854776592580676,-0.44629270805518245,0.7118675783852259,10.706052511889434,-10.68500164727645,-15.743051448068856,no_tremor
7,456322,0.055,-0.37322574381624507,-0.44721621854581717,0.7188299115347454,10.407038428835252,-12.273373130735353,-15.09555189260318,no_tremor
8,456327,0.06,-0.3602896893184546,-0.4481285882881575,0.7262158971839019,10.032389689499883,-13.910899235795094,-14.291311858140547,no_tremor
9,456331,0.064,-0.3468386791498662,-0.44900671216157473,0.7339376792534427,9.57821058714988,-15.595095816834393,-13.322800414194557,no_tremor
10,456336,0.069,-0.33300596632513446,-0.44983140111698516,0.7419276617703277,9.040865052001612,-17.323140636764222,-12.183089869231399,no_tremor
11,456341,0.074,-0.3188987648648046,-0.4505862686279639,0.750133000171235,8.417013137772502,-19.09187251684532,-10.86593612623214,no_tremor
12,456346,0.079,-0.3046067382787724,-0.45125684053634546,0.75851085035964,7.703646652735281,-20.897793280157128,-9.365857330425293,no_tremor
13,456351,0.084,-0.29020839523915415,-0.45182992332503447,0.7670247668379506,6.898123611313839,-22.73707259558536,-7.678210003362442,no_tremor
14,456356,0.089,-0.27577557168565686,-0.4522931904832696,0.7756421551530857,5.9982011833758415,-24.605555801276992,-5.7992618374837805,no_tremor
15,456361,0.094,-0.26137641780088267,-0.452634931737978,0.7843325488427945,5.002066821012,-26.49877475639443,-3.726260313197207,no_tremor
16,456366,0.099,-0.24707729933862785,-0.4528439166737768,0.7930664847777524,3.9083672484540797,-28.411961737448106,-1.4574962977777277,no_tremor
17,456371,0.104,-0.23294394009823718,-0.45290933598696415,0.801814796059844,2.7162350117315532,-30.340066360742668,1.0076382059391205,no_tremor
18,456375,0.108,-0.21904204427695723,-0.45282079434539374,0.8105481902361087,1.4253123016005729,-32.27777547674445,3.6685989711397555,no_tremor
19,456380,0.113,-0.20543756535798277,-0.45256833705360616,0.8192370204999901,0.03577178607898787,-34.21953594690371,6.523645892384882,no_tremor
20,456385,0.118,-0.19219673511031182,-0.45214249854974553,0.8278511870186822,-1.4516657831404571,-36.15958017911892,9.569807486307013,no_tremor
21,456395,0.128,-0.17938592925041894,-0.4515343647159571,0.836360126132004,-3.0357173942765288,-38.09195426438188,12.802854201587563,no_tremor
22,456399,0.132,-0.16707142129644367,-0.4507356436041382,0.8447328591382511,-4.714527198771205,-40.01054852451606,16.21728110887936,no_tremor
23,456404,0.137,-0.15531905958058947,-0.4497387408913155,0.852938081675925,-6.485659669307608,-41.90913025051409,19.806300444018802,no_tremor
24,456409,0.142,-0.14419389157351195,-0.4485368374912417,0.860944280821302,-8.346096593723974,-43.78137838371394,23.561844370333358,no_tremor
25,456414,0.147,-0.133759752695689,-0.4471239674712728,0.868719871014429,-10.292237974035018,-45.62091986700745,27.47457821292434,no_tremor
26,456419,0.152,-0.12407883233131985,-0.44549509489494454,0.8762333425282508,-12.3199068691139,-47.421367367011335,31.53392430251383,no_tremor
27,456449,0.182,-0.11521122694092467,-0.4436461885197863,0.8834534178932214,-14.424358188582923,-49.17635803584183,35.72809644892709,no_tremor
28,456454,0.187,-0.1072144884045194,-0.4415742934811113,0.890349212804597,-16.600291413049906,-50.87959294006036,40.044144945013436,no_tremor
29,456458,0.191,-0.10014317462168468,-0.4392775992158194,0.8968903987868951,-18.841867184002258,-52.52487673799314,44.46801188665033,no_tremor
30,456463,0.196,-0.09404840867128776,-0.43675550294047605,0.9030473654163016,-21.14272768027631,-54.106157145213324,48.98459649393749,no_tremor
31,456468,0.201,-0.08897745230208767,-0.43400866800516713,0.908791380304945,-23.496020680625065,-55.617563702892355,53.57783003922497,no_tremor
32,456473,0.206,-0.08497329906953524,-0.4310390764122779,0.9140947453901339,-25.894427202635153,-57.05344536130402,58.23075992553865,no_tremor
33,456478,0.211,-0.08207429199414339,-0.4278500747349742,0.9189309483774636,-28.330192603617718,-58.408406411898774,62.92564240476806,no_tremor
34,456483,0.216,-0.0803137701664312,-0.42444641261115795,0.9232748084726748,-30.79516102632541,-59.677340344596644,67.6440433707481,no_tremor
35,456488,0.221,-0.07971974825164621,-0.4208342729387751,0.9271026158078108,-33.28081306974251,-60.85546126930258,72.36694660430416,no_tremor
36,456493,0.226,-0.08031463235167687,-0.41702129286707573,0.9303922642211017,-35.778306561143985,-61.93833261657064,77.07486878505318,no_tremor
37,456498,0.231,-0.0821149751661929,-0.4130165746717834,0.9331233772806898,-38.27852029836775,-62.92189291429523,81.74798051957183,no_tremor
38,456503,0.236,-0.08513127287049328,-0.40883068562335784,0.9352774276396878,-40.77210061909099,-63.80247851817649,86.36623256831115,no_tremor
39,456508,0.241,-0.08936780560794211,-0.4044756460077055,0.9368378499621832,-43.24951063533666,-64.57684324815753,90.90948638418337,no_tremor
40,456513,0.246,-0.09482252299494008,-0.3999649045374768,0.937790147754939,-45.701081945641455,-65.24217494690431,95.35764800440774,no_tremor
41,456518,0.251,-0.10148697556866143,-0.3953133004985091,0.9381219944678753,-48.11706860456578,-65.79610902601236,99.69080426566775,no_tremor
42,456523,0.256,-0.10934629268134383,-0.3905370121089694,0.9378233291815417,-50.48770309038146,-66.2367390982647,103.88936024253566,no_tremor
43,456527,0.26,-0.11837920696506693,-0.38565349072746175,0.9368864470795762,-52.80325396755788,-66.5626248093494,107.93417674060387,no_tremor
44,456532,0.265,-0.12855812515893172,-0.3806813807302811,0.9353060847116911,-55.054084891803896,-66.77279698233554,111.80670660836205,no_tremor
45,456537,0.27,-0.13984924480239508,-0.3756404250870342,0.933079499797165,-57.23071455325736,-66.8667601779455,115.48912856643477,no_tremor
46,456542,0.275,-0.15221271604423023,-0.3705513568982892,0.9302065450154149,-59.32387709996647,-66.84449275947001,118.96447719243507,no_tremor
47,456570,0.303,-0.16560284758132807,-0.3654357774187709,0.9266897348989573,-61.3245825314211,-66.70644453869185,122.2167676502363,no_tremor
48,456574,0.307,-0.17996835550886497,-0.3603160213721695,0.9225343046085419,-63.224176503830265,-66.45353207233876,125.23111372435,no_tremor
49,456580,0.313,-0.19525265361907715,-0.35521501065886096,0.9177482590579104,-65.01439895051041,-66.08713167852275,127.99383772956095,no_tremor
50,456584,0.317,-0.21139418342075864,-0.35015609784602053,0.9123424105963825,-66.68744089845714,-65.60907024649036,130.49257092940394,no_tremor
51,456589,0.322,-0.22832678186150362,-0.34516290108678277,0.9063304032765441,-68.23599885877557,-65.02161391475208,132.71634321843678,no_tremor
52,456594,0.327,-0.24598008441941022,-0.3402591323232508,0.8997287216447067,-69.65332618134345,-64.32745468678755,134.65566098872623,no_tremor
53,456599,0.332,-0.26427996089342726,-0.3354684207807524,0.8925566819943618,-70.93328078778778,-63.52969503855184,136.30257228957066,no_tremor
54,456604,0.337,-0.28314898086695434,-0.3308141338606022,0.884836404113091,-72.07036872883677,-62.63183055054194,137.65071858723056,no_tremor
55,456609,0.342,-0.30250690545298087,-0.32631919759322897,0.8765927617276102,-73.05978305306246,-61.637730574006625,138.6953726342133,no_tremor
56,456614,0.347,-0.32227120155445454,-0.32200591883168345,0.8678533101084801,-73.89743752631,-60.55161692198364,139.43346216562097,no_tremor
57,456628,0.361,-0.34235757449278326,-0.3178958113554077,0.8586481896356836,-74.57999480661272,-59.37804056863092,139.86357935183113,no_tremor
58,456633,0.366,-0.3626805144753275,-0.3140094280208801,0.8490100045476563,-75.10488875810503,-58.12185635275809,139.9859761466801,no_tremor
59,456638,0.371,-0.38315385200538987,-0.3103662010382122,0.8389736765926951,-75.47034067674385,-56.788195718796324,139.80254586902842,no_tremor
60,456643,0.376,-0.40369131701678507,-0.30698429236210106,0.8285762738565932,-75.67536929548827,-55.38243758920085,139.31679153317467,no_tremor
61,456648,0.381,-0.424207096276951,-0.3038804560492239,0.8178568156283368,-75.71979453066209,-53.9101775371929,138.53378159332024,no_tremor
62,456653,0.386,-0.4446163834752064,-0.30106991424309687,0.8068560547571435,-75.60423501875763,-52.37719550403181,137.46009388822932,no_tremor
63,456658,0.391,-0.4648359164077349,-0.29856624819949745,0.7956162395202248,-75.33009957017534,-50.7894223678501,136.10374866878382,no_tremor
64,456662,0.395,-0.48478449579003074,-0.29638130546440417,0.784180857535002,-74.89957273210702,-49.15290571384539,134.47413166965333,no_tremor
65,456674,0.407,-0.5043834804699443,-0.2945251239695966,0.7725943646874741,-74.31559470783286,-47.47377517673318,132.58190825100465,no_tremor
66,456702,0.435,-0.5235572541788168,-0.29300587343102213,0.760901902386939,-73.58183592590267,-45.75820772785566,130.4389296875467,no_tremor
67,456706,0.439,-0.5422336594424843,-0.2918298140435097,0.7491490066758987,-72.70266659117631,-44.01239326349261,128.05813271765493,no_tremor
68,456711,0.444,-0.5603443948721235,-0.2910012720980655,0.7373813128084405,-71.68312158025198,-42.24250082031133,125.45343348066697,no_tremor
69,456716,0.449,-0.5778253727498115,-0.29052263184947463,0.725644258859546,-70.52886106579702,-40.45464570467172,122.63961696290262,no_tremor
70,456721,0.454,-0.5946170345822112,-0.2903943427672365,0.7139827917605107,-69.24612726870603,-38.654857784505595,119.63222304481668,no_tremor
71,456726,0.459,-0.6106646230732936,-0.29061494121947073,0.7024410789087147,-67.84169774689249,-36.84905116407273,116.4474301999228,no_tremor
72,456731,0.464,-0.6259184097185899,-0.2911810856479325,0.6910622282151286,-66.32283563816164,-35.04299544555874,113.10193784736839,no_tremor
73,456735,0.468,-0.6403338779137996,-0.2920876043611102,0.6798880191637416,-64.69723728352963,-33.24228877427972,109.61284830714649,no_tremor
74,456745,0.478,-0.6538718620770988,-0.2933275551703659,0.6689586471836786,-62.97297766597521,-31.45233286040824,105.99754925049271,no_tremor
75,456750,0.483,-0.6664986437963271,-0.2948922961943816,0.6583124833848888,-61.15845410641145,-29.678310162897983,102.27359747893696,no_tremor
76,456755,0.488,-0.6781860064287255,-0.2967715672370824,0.6479858514792413,-59.2623286624054,-27.92516340392356,98.45860480511833,no_tremor
77,456760,0.493,-0.6889112499097103,-0.29895358118570514,0.6380128234905255,-57.29346967531865,-26.197577549379773,94.57012674811364,no_tremor
78,456765,0.498,-0.6986571677811327,-0.3014251248682975,0.6284250356373657,-55.2608929080981,-24.499964341941673,90.62555469762944,no_tremor
79,456770,0.503,-0.7074119886421216,-0.3041716687533143,0.6192515255449946,-53.17370270938441,-22.836449413331025,86.64201214791571,no_tremor
80,456774,0.507,-0.7151692843678187,-0.3071774847769266,0.610518591704503,-51.041033630899115,-21.210861941118164,82.63625555610852,no_tremor
81,456779,0.512,-0.7219278475402193,-0.3104257714604262,0.6022496758554415,-48.8719929155461,-19.626726760982827,78.62458034131753,no_tremor
82,456784,0.517,-0.7276915405945271,-0.31389878534798393,0.5944652687253955,-46.67560426473413,-18.087258802222987,74.62273250923522,no_tremor
83,456789,0.522,-0.7324691192046998,-0.31757797767375695,0.5871828393250436,-44.46075328653992,-16.595359682978255,70.64582636191793,no_tremor
84,456794,0.527,-0.7362740324119371,-0.32144413507595526,0.5804167877763137,-42.2361350229427,-15.153616281260145,66.70826873424085,no_tremor
85,456799,0.532,-0.7391242019375084,-0.3254775231249175,0.5741784214515473,-40.010203955526805,-13.764301089077147,62.82369018774424,no_tremor
86,456826,0.559,-0.7410417830152002,-0.32965803142153716,0.5684759540290989,-37.791126894368084,-12.429374162711436,59.004883587224455,no_tremor
87,456831,0.564,-0.7420529089315376,-0.33396531904233073,0.5633145269282533,-35.586739160280004,-11.150486504972521,55.26375047835559,no_tremor
88,456836,0.569,-0.7421874212848418,-0.33837895914522975,0.5586962524696762,-33.40450446631692,-9.928984751859897,51.6112556618449,no_tremor
89,456840,0.573,-0.7414785877879381,-0.3428785815902491,0.5546202780047007,-31.25147887769798,-8.76591707652226,48.05739030527048,no_tremor
90,456845,0.578,-0.7399628092692359,-0.3474440124558616,0.5510828701522587,-29.134279174438145,-7.66204025643523,44.61114384158476,no_tremor
91,456850,0.583,-0.7376793173936878,-0.3520554093354691,0.5480775181654718,-27.05905586506006,-6.617827869443588,41.2804847821984,no_tremor
92,456855,0.588,-0.7346698645401135,-0.3566933912791602,0.5455950553183974,-25.03147101600451,-5.6334795909961715,38.07235043915739,no_tremor
93,456860,0.593,-0.7309784072380148,-0.36133916221422796,0.5436237970607153,-23.05668097904203,-4.708931561205832,34.992645419112975,no_tremor
94,456865,0.598,-0.7266507845841025,-0.3659746266519195,0.5421496945404675,-21.13932402132217,-3.843867778528776,32.04624862965391,no_tremor
95,456870,0.603,-0.7217343931218004,-0.37058249648894565,0.5411565019494838,-19.283512790176612,-3.0377324585214858,29.23702843006446,no_tremor
96,456874,0.607,-0.716277859768092,-0.37514638775636155,0.5406259560101511,-17.49283147778865,-2.2897432734348238,26.567865465333117,no_tremor
97,456879,0.612,-0.7103307144999447,-0.37965090626095105,0.540537965802212,-15.77033749027768,-1.5989053646183924,24.04068264474153,no_tremor
98,456884,0.617,-0.7039430646533335,-0.38408172120326917,0.5408708110294393,-14.118567372820706,-0.9640259985579478,21.656481664309197,no_tremor
99,456889,0.622,-0.6971652728267999,-0.3884256260381283,0.5416013467519097,-12.539546698081098,-0.38372972176281905,19.41538542461956,no_tremor
100,456894,0.627,-0.6900476405041489,-0.3926705860624419,0.5427052125625135,-11.034803589957734,0.14352613858684415,17.316685660492407,no_tremor
101,456899,0.632,-0.6826400996040549,-0.3968057724637539,0.5441570441674723,-9.605385528699966,0.6194357812510607,15.358895075283577,no_tremor
102,456904,0.637,-0.6749919142164895,-0.40082158282867336,0.5459306853404741,-8.251879066623225,1.0458291890219071,13.539803259476866,no_tremor
103,456908,0.641,-0.6671513947876242,-0.4047096483793178,0.5479993982587316,-6.974432075680673,1.4246564660783165,11.856535669866739,no_tremor
104,456913,0.646,-0.6591656269592325,-0.40846282846210197,0.550336070296792,-5.77277814857445,1.7579723608330966,10.305614951014777,no_tremor
105,456918,0.651,-0.6510802171517983,-0.4120751930419651,0.55291341544953,-4.6462627829877325,2.047921056798637,8.883023893882239,no_tremor
106,456923,0.656,-0.6429390568035953,-0.4155419941444772,0.5557041686773369,-3.5938709921614436,2.296721290467775,7.584269346599449,no_tremor
107,456948,0.681,-0.6347841069485102,-0.41885962733038257,0.5586812716105064,-2.614256002564766,2.506651833314081,6.404446417857254,no_tremor
108,456953,0.686,-0.6266552045465232,-0.42202558437889115,0.561818048212079,-1.7057687195178417,2.6800373557949837,5.338302343111082,no_tremor
109,456963,0.696,-0.618589891688648,-0.4250383983994703,0.565088369175215,-0.8664876632548965,2.8192346758247364,4.380299417131721,no_tremor
110,456968,0.701,-0.6106232684989193,-0.42789758259447686,0.5684668040194044,-0.0942490995490573,2.9266193842376453,3.5246764335464285,no_tremor
111,456972,0.705,-0.6027878702638455,-0.43060356386792115,0.5719287600459091,0.6133228911314972,3.00457283737876,2.7655081132863772,no_tremor
112,456977,0.71,-0.5951135690449805,-0.43315761243060386,0.5754506075116405,1.258786644995068,3.0554695135089354,2.09676204975946,no_tremor
113,456982,0.715,-0.5876274997785214,-0.4355617684976805,0.5790097905761084,1.8448536713595554,3.081664744351314,1.5123527492828077,no_tremor
114,456987,0.72,-0.5803540106381169,-0.4378187671162857,0.5825849237626184,2.3743601446379126,3.0854828524916194,1.0061924001746902,no_tremor
115,456992,0.725,-0.5733146372311722,-0.4399319620999472,0.5861558738488618,2.850239326395282,3.069205744966209,0.5722380614004825,no_tremor
116,456997,0.73,-0.5665281000109987,-0.4419052499832646,0.5897038272615979,3.275495092844632,3.0350620293322557,0.20453502026330622,no_tremor
117,457001,0.734,-0.5600103241128249,-0.44374299484448765,0.5932113431949416,3.6531767213782906,2.9852167283569,-0.10274387225335284,no_tremor
118,457006,0.739,-0.5537744806567465,-0.4454499547752767,0.5966623928025157,3.9863550667756447,2.9217616720932162,-0.35526301992862425,no_tremor
119,457011,0.744,-0.5478310484016398,-0.4470312107065368,0.6000423849317004,4.278100234509107,2.8467066418653353,-0.5584931241384016,no_tremor
120,457016,0.749,-0.5421878944785816,-0.4484920982275213,0.6033381789749376,4.531460835230277,2.761971331509889,-0.7176844611456604,no_tremor
121,457021,0.754,-0.536850372779873,-0.44983814296305935,0.6065380855098272,4.749444881054481,2.6693781798970546,-0.837844345570744,no_tremor
122,457026,0.759,-0.5318214384318596,-0.4510750000010389,0.6096318554872295,4.935002360961336,2.5706461173107398,-0.9237186773719991,no_tremor
123,457031,0.764,-0.5271017766401246,-0.45220839778869937,0.6126106588043012,5.091009509992455,2.4673852571612915,-0.979777420969818,no_tremor
124,457035,0.768,-0.5226899440701225,-0.45324408684048056,0.6154670531658398,5.220254765643952,2.3610925533235942,-1.0102038243476852,no_tremor
125,457040,0.773,-0.5185825208222116,-0.4541877935200836,0.6181949441903074,5.325426385841591,2.2531484321272868,-1.0188871548589762,no_tremor
126,457045,0.778,-0.5147742709851213,-0.4550451790727326,0.6207895377540059,5.4091016869474045,2.1448143975143936,-1.0094187070967449,no_tremor
127,457070,0.803,-0.5112583097132285,-0.4558218039884658,0.6232472855857302,5.4737378475990806,2.0372315991323364,-0.9850908249949297,no_tremor
128,457075,0.808,-0.5080262747760939,-0.4565230976731533,0.6255658251228293,5.521664214725995,1.9314203465363862,-0.9488986737503922,no_tremor
129,457080,0.813,-0.5050685005765636,-0.45715433329348565,0.6277439146166637,5.555076042059101,1.828280548071904,-0.9035444967055588,no_tremor
130,457085,0.818,-0.502374192725901,-0.457720607552101,0.6297813644308612,5.5760295893708784,1.7285930500803504,-0.8514440981599697,no_tremor
131,457090,0.823,-0.49993160139570597,-0.4582268250484237,0.6316789654113922,5.586438512499235,1.6330218501412412,-0.7947353044851955,no_tremor
132,457094,0.827,-0.4977281918269534,-0.4586776867978363,0.6334384151272605,5.5880714788983195,1.54211715571838,-0.735288170579027,no_tremor
133,457099,0.832,-0.4957508105535481,-0.4590776824218317,0.6350622426900019,5.582550949499016,1.4563192552254904,-0.6747167135945837,no_tremor
134,457104,0.837,-0.49398584607842116,-0.45943108548751216,0.6365537327649652,5.571353073623102,1.3759631613994279,-0.614391968868431,no_tremor
135,457109,0.842,-0.4924193829134829,-0.4597419514667783,0.6379168492926829,5.555808648451186,1.3012839774131237,-0.55545617337271,no_tremor
136,457114,0.847,-0.4910373480531277,-0.46001411780212137,0.639156159348837,5.5371050976206515,1.232422925532092,-0.4988378900647265,no_tremor
137,457119,0.852,-0.48982564909020737,-0.4602512056033384,0.6402767574900086,5.516289425489886,1.1694339675045688,-0.4452678925238695,no_tremor
138,457124,0.857,-0.4887703033018855,-0.4604566225526951,0.6412841908626304,5.494272105508492,1.112290936314517,-0.3952956334621968,no_tremor
139,457128,0.861,-0.4878575571309746,-0.460633566659543,0.6421843852969783,5.471831863231216,1.0608950914655815,-0.34930612361381574,no_tremor
140,457133,0.866,-0.4870739955682398,-0.46078503057379194,0.6429835725688327,5.4496213157327205,1.0150830053113393,-0.30753705015202076,no_tremor
141,457138,0.871,-0.4864066410060444,-0.4609138062361466,0.6436882189903512,5.428173427950865,0.9746346857943707,-0.27009596695894056,no_tremor
142,457143,0.876,-0.48584304118809,-0.46102248970781157,0.644304955489473,5.407908741757372,0.939281840270762,-0.23697739285692024,no_tremor
143,457148,0.881,-0.48537134592921316,-0.461113486080917,0.6448405093532582,5.38914332511797,0.9087161853684179,-0.20807965805138912,no_tremor
144,457153,0.886,-0.48498037232896557,-0.4611890144220709,0.6453016378429484,5.372097377153007,0.8825977095903869,-0.1832213434867681,no_tremor
145,457158,0.891,-0.4846596582583906,-0.4612511127450936,0.6456950639342947,5.356904411518177,0.8605627993823779,-0.16215716248411083,no_tremor
146,457163,0.896,-0.4843995039654175,-0.46130164304545523,0.6460274144923912,5.34362092676091,0.8422321456743368,-0.14459313853013675,no_tremor
147,457167,0.9,-0.4841910017237548,-0.46134229645846697,0.6463051612521731,5.3322364591201366,0.8272183556389004,-0.13020093741606747,no_tremor
