sample,t_ms,t_s,ax,ay,az,gx,gy,gz,tremor
0,7459800,0.0,-0.06615879658440108,-0.13837303686703847,-1.0448055298774506,-0.23677144951945875,-1.654802375386973,0.3136716928586768,no_tremor
1,7459805,0.005,-0.06630438339042809,-0.13842605340536446,-1.0446955362023085,-0.2780526657810225,-1.5236889671497804,0.28097722312042656,no_tremor
2,7459810,0.01,-0.06650510689625976,-0.13849446618288178,-1.0445434753525964,-0.32026237296456683,-1.3916315513214634,0.2502608026291331,no_tremor
3,7459814,0.014,-0.06676511175706827,-0.13857649041109962,-1.0443459371378785,-0.3632925651083396,-1.2591590799771555,0.2217092434996571,no_tremor
4,7459819,0.019,-0.06707827960966371,-0.13866659837467563,-1.0441072864539938,-0.4070287395362856,-1.1268111429300645,0.19550248965843955,no_tremor
5,7459829,0.029,-0.06743309786059637,-0.13875789374285333,-1.0438360483830054,-0.45135032593724367,-0.9951341469722286,0.17181224969983075,no_tremor
6,7459833,0.033,-0.06781715369518011,-0.13884390082824577,-1.0435415335402685,-0.4961311408037747,-0.8646774148055629,0.1508005730172301,no_tremor
7,7459838,0.038,-0.06821951599904394,-0.1389193308107731,-1.0432320335743028,-0.54123986432373,-0.7359892419275348,0.13261837270110127,no_tremor
8,7459864,0.064,-0.06863146487340555,-0.13898018008369553,-1.0429142570935341,-0.5865405373831319,-0.6096129534604021,0.11740390468077137,no_tremor
9,7459873,0.073,-0.06904637130092804,-0.13902354407937656,-1.0425934084241246,-0.6318930770278536,-0.48608300517838227,0.1052812189332101,no_tremor
10,7459878,0.078,-0.06945928410373874,-0.139047371590361,-1.0422734904967423,-0.6771538100651658,-0.36592117146069775,0.09635860390231174,no_tremor
11,7459883,0.083,-0.06986649777532776,-0.1390502523414342,-1.0419576245933897,-0.7221760269467111,-0.24963285561979268,0.09072704808150504,no_tremor
12,7459888,0.088,-0.07026519901894109,-0.1390312602331423,-1.0416483118393647,-0.766810561310902,-0.13770354529571632,0.08845874275567342,no_tremor
13,7459893,0.093,-0.0706532075420976,-0.13898984673019735,-1.0413476236883872,-0.8109064035023061,-0.03059542087110423,0.08960564850311668,no_tremor
14,7459897,0.097,-0.07102879686205779,-0.13892577161784508,-1.0410573315250977,-0.8543113580587501,0.07125588678721635,0.09419814702873636,no_tremor
15,7459902,0.102,-0.07139057463993012,-0.13883905904276173,-1.0407789905339204,-0.8968727552460002,0.16744439807459133,0.1022438001800537,no_tremor
16,7459912,0.112,-0.07173740438718594,-0.13872996958372066,-1.040513991445165,-0.9384382255541928,0.25759675336559895,0.11372623923229949,no_tremor
17,7459917,0.117,-0.07206835477735206,-0.1385989818963789,-1.0402635905947568,-0.9788565442665551,0.3413750511287134,0.1286042085798846,no_tremor
18,7459922,0.122,-0.0723826668812172,-0.13844677965280522,-1.0400289257340596,-1.0179785510730004,0.4184795518888653,0.14681078791095906,no_tremor
19,7459927,0.127,-0.07267973280305988,-0.13827424102858593,-1.0398110226893722,-1.0556581469368176,0.4886512387987346,0.16825281571778036,no_tremor
20,7459931,0.131,-0.0729590814404915,-0.1380824290162702,-1.0396107962989172,-1.0917533666952461,0.5516742203647322,0.19281053518427868,no_tremor
21,7459941,0.141,-0.07322036861202112,-0.13787258151274318,-1.039429047911933,-1.1261275214918594,0.6073779564802811,0.2203374815444883,no_tremor
22,7459946,0.146,-0.0734633697965079,-0.13764610055890725,-1.0392664609723692,-1.158650400891319,0.6556392858171701,0.25066062785224413,no_tremor
23,7459950,0.15,-0.07368797437209958,-0.13740454038747282,-1.039123595708737,-1.1891995210097936,0.6963842307186479,0.28358080334910807,no_tremor
24,7459955,0.155,-0.07389418065057397,-0.13714959411540134,-1.0390008836243403,-1.2176614023187244,0.7295895543529762,0.3188733949881178,no_tremor
25,7459960,0.16,-0.07408209126110189,-0.13688307903814978,-1.038898622268236,-1.2439328587056198,0.7552840435380495,0.3562893383008461,no_tremor
26,7459985,0.185,-0.07425190860224906,-0.13660692056625298,-1.0388169706270123,-1.2679222774927348,0.773549489601026,0.3955563991275924,no_tremor
27,7459995,0.195,-0.0744039301889288,-0.13632313490484316,-1.0387559453851594,-1.2895508680892196,0.7845213394174356,0.43638074321737313,no_tremor
28,7459999,0.199,-0.0745385437935631,-0.13603381062127426,-1.0387154182409977,-1.3087538546997601,0.7883889892686131,0.4784487866849469,no_tremor
29,7460004,0.204,-0.07465622232903027,-0.13574108927886913,-1.038695114425054,-1.3254815860794043,0.7853956948982616,0.5214293168516053,no_tremor
30,7460009,0.209,-0.07475751845010134,-0.13544714533756474,-1.0386946125407959,-1.3397005328948293,0.7758380725270815,0.5649758695265111,no_tremor
31,7460014,0.214,-0.07484305886319335,-0.13515416553610154,-1.038713345827911,-1.3513941415035102,0.7600651688859115,0.6087293443900847,no_tremor
32,7460019,0.219,-0.07491353833535865,-0.13486432797700854,-1.0387506049312591,-1.3605635131009817,0.7384770844118204,0.6523208347324306,no_tremor
33,7460023,0.223,-0.07496971338755319,-0.13457978113682095,-1.0388055422406581,-1.3672278802856526,0.7115231423660245,0.6953746425665521,no_tremor
34,7460028,0.228,-0.07501239564976148,-0.13430262302137871,-1.0388771778452932,-1.3714248592363214,0.6796996069891151,0.7375114462962781,no_tremor
35,7460038,0.238,-0.0750424448513685,-0.13403488068097963,-1.0389644071202295,-1.3732104636566278,0.6435469650176373,0.7783515856253163,no_tremor
36,7460048,0.248,-0.07506076142284944,-0.13377849029358915,-1.0390660099308302,-1.3726588744615953,0.6036467955470252,0.8175184263597798,no_tremor
37,7460052,0.252,-0.07506827869595145,-0.13353527801691328,-1.0391806614045807,-1.3698619653294801,0.5606182610650626,0.8546417658129858,no_tremor
38,7460058,0.258,-0.0750659547081616,-0.13330694180221678,-1.039306944181068,-1.3649285881528053,0.5151142550546259,0.8893612382519286,no_tremor
39,7460067,0.267,-0.07505476364022884,-0.13309503435421607,-1.0394433620133052,-1.3579836241970362,0.46781723794344776,0.9213296800751326,no_tremor
40,7460077,0.277,-0.07503568693842413,-0.13290094741183983,-1.0395883545616136,-1.349166806993631,0.419434785210374,0.950216416578108,no_tremor
41,7460082,0.282,-0.0750097041919325,-0.13272589751377228,-1.0397403131988243,-1.3386313229670006,0.37069486316910577,0.9757104359618957,no_tremor
42,7460106,0.306,-0.0749777838479034,-0.13257091340036634,-1.0398975976349059,-1.3265421972483442,0.32234084323934026,0.997523420808425,no_tremor
43,7460111,0.311,-0.07494087385252936,-0.13243682519004127,-1.040058553169891,-1.31307447591645,0.27512626584281263,1.0153926115423149,no_tremor
44,7460115,0.315,-0.07489989230882864,-0.13232425545430057,-1.040221528392421,-1.2984112211076906,0.2298093688698248,1.029083479693509,no_tremor
45,7460120,0.32,-0.07485571824432766,-0.13223361230157524,-1.0403848931509632,-1.2827413402580936,0.18714740002733776,1.0383921908482971,no_tremor
46,7460125,0.325,-0.07480918258718744,-0.13216508456625453,-1.040547056629521,-1.2662572743704958,0.14789073545468745,1.0431478382468364,no_tremor
47,7460130,0.33,-0.07476105945769605,-0.1321186391849069,-1.0407064853563077,-1.249152573280185,0.11277682886890036,1.0432144285479528,no_tremor
48,7460135,0.335,-0.07471205789165088,-0.13209402082582647,-1.0408617209628948,-1.2316193890558698,0.08252401722001024,1.038492601859602,no_tremor
49,7460140,0.34,-0.07466281412055495,-0.13209075381967508,-1.0410113974957107,-1.2138459215371962,0.05782521133636193,1.0289210690085233,no_tremor
50,7460145,0.345,-0.0746138845387571,-0.13210814641738816,-1.0411542580650934,-1.1960138520074255,0.03934150371912524,1.0144777500759878,no_tremor
51,7460150,0.35,-0.07456573948847703,-0.13214529737632125,-1.0412891706030907,-1.1782958021889036,0.027695730120953766,0.9951805990541877,no_tremor
52,7460155,0.355,-0.07451875798971327,-0.13220110484693245,-1.0414151424930933,-1.1608528562225664,0.02346602598254874,0.9710880998147877,no_tremor
53,7460160,0.36,-0.0744732235337067,-0.1322742775006856,-1.041531333834519,-1.1438321826136855,0.02717942274390097,0.9422994186258061,no_tremor
54,7460165,0.365,-0.07442932104675257,-0.13236334780622733,-1.0416370691154357,-1.12736479085904,0.03930553245888649,0.9089541987160052,no_tremor
55,7460170,0.37,-0.07438713511664803,-0.13246668732630873,-1.041731847085626,-1.1115634537678496,0.06025037167014189,0.8712319833164182,no_tremor
56,7460174,0.374,-0.07434664955768037,-0.13258252387346395,-1.041815348651738,-1.096520821946672,0.09035037641432306,0.8293512555041881,no_tremor
57,7460189,0.389,-0.07430774837229305,-0.1327089603291492,-1.041887442653786,-1.0823077521992643,0.12986665920217952,0.7835680863389493,no_tremor
58,7460198,0.398,-0.07427021814871046,-0.13284399489999021,-1.0419481894263392,-1.0689718671958304,0.17897955642566105,0.7341743873560692,no_tremor
59,7460203,0.403,-0.07423375191423569,-0.1329855425574806,-1.0419978420949763,-1.056536359943421,0.23778351234550557,0.6814957689593442,no_tremor
60,7460233,0.433,-0.07419795444443944,-0.1331314573859255,-1.0420368456039908,-1.0449990534937108,0.30628234561041967,0.6258890116740188,no_tremor
61,7460238,0.438,-0.07416234901015681,-0.13327955554967083,-1.0420658335092006,-1.0343317241041792,0.38438494728142536,0.567739162106202,no_tremor
62,7460243,0.443,-0.07412638552773396,-0.1334276385859274,-1.042085622595549,-1.0244796944375794,0.4719014639180476,0.50745627014156,no_tremor
63,7460248,0.448,-0.07408945006245114,-0.13357351673365933,-1.0420972053916582,-1.0153617013634573,0.5685400214116869,0.4454717887995687,no_tremor
64,7460253,0.453,-0.07405087561812139,-0.13371503202060014,-1.0421017406549606,-1.0068700397043406,0.6739040420485843,0.3822346632011928,no_tremor
65,7460257,0.457,-0.07400995412483749,-0.13385008084713695,-1.0421005418965819,-0.9988709792013489,0.7874901996493173,0.3182071401808177,no_tremor
66,7460262,0.462,-0.07396594951002569,-0.1339766358250877,-1.0420950640106563,-0.9912054481663213,0.9086870491117771,0.25386033523706275,no_tremor
67,7460267,0.467,-0.07391811170535155,-0.13409276664939312,-1.0420868880730318,-0.983689974455004,1.0367743607546258,0.1896695986840884,no_tremor
68,7460272,0.472,-0.07386569140539798,-0.1341966598005214,-1.0420777043819704,-0.9761178726014488,1.1709231884771405,0.1261097274757041,no_tremor
69,7460277,0.477,-0.07380795535676059,-0.13428663689488438,-1.0420692938288898,-0.9682606651977007,1.3101967041943177,0.06365007256455087,no_tremor
70,7460291,0.491,-0.07374420192270342,-0.13436117152034274,-1.042063507709112,-0.9598697271221147,1.4535518382147958,0.002749593740368132,no_tremor
71,7460296,0.496,-0.07367377664363867,-0.1344189044147649,-1.0420622461085163,-0.950678143153386,1.5998417742981408,-0.05614808480670677,no_tremor
72,7460301,0.501,-0.0735960875021362,-0.13445865686836955,-1.042067435028433,-0.9404027725388505,1.7478193564599431,-0.11261956387132428,no_tremor
73,7460306,0.506,-0.07351061960648146,-0.13447944225556555,-1.0420810024341842,-0.9287465175194853,1.8961414692026874,-0.16626644818674344,no_tremor
74,7460310,0.51,-0.07341694902974367,-0.13448047562882545,-1.0421048534291935,-0.9154007958464542,2.043374451614467,-0.21671995874889977,no_tremor
75,7460315,0.515,-0.07331475557876468,-0.13446118133465976,-1.042140844765357,-0.9000482191746718,2.1880005986506523,-0.26364532219360776,no_tremor
76,7460320,0.52,-0.07320383431329207,-0.1344211986384022,-1.0421907589022736,-0.8823654792853398,2.328425791692011,-0.30674588179031964,no_tremor
77,7460325,0.525,-0.07308410568279765,-0.13436038536863926,-1.0422562778249493,-0.8620264423117056,2.462988287562262,-0.34576687636794856,no_tremor
78,7460349,0.549,-0.07295562419167029,-0.13427881961237334,-1.042338956823985,-0.8387054482408274,2.5899686825135437,-0.38049883602047135,no_tremor
79,7460354,0.554,-0.07281858553874263,-0.13417679950755193,-1.0424401984361467,-0.8120808100683533,2.707601056115552,-0.4107805472103203,no_tremor
80,7460359,0.559,-0.0726733322028991,-0.1340548411901429,-1.0425612267388797,-0.7818385047656233,2.814085289343369,-0.436501545485697,no_tremor
81,7460363,0.563,-0.07252035746324421,-0.1339136749588283,-1.0427030621920654,-0.7476760463873341,2.9076005407920453,-0.4576041013304555,no_tremor
82,7460368,0.568,-0.07236030785206865,-0.13375423972252234,-1.0428664972258708,-0.7093065293889385,2.986319854271127,-0.4740846727835892,no_tremor
83,7460373,0.573,-0.07219398404451595,-0.13357767579559396,-1.0430520727852695,-0.6664628269400111,3.0484258596545866,-0.4859948065266508,no_tremor
84,7460383,0.583,-0.07202234019308389,-0.13338531610425977,-1.043260056058695,-0.6189019245287937,3.0921275163174164,-0.4934414768924068,no_tremor
85,7460388,0.588,-0.07184648171964678,-0.13317867586632232,-1.0434904196384263,-0.5664093635897195,3.1156778342296896,-0.49658685988578755,no_tremor
86,7460392,0.592,-0.07166766158322932,-0.1329594408062291,-1.0437428223815128,-0.5088037637424655,3.117392491631024,-0.49564754681334,no_tremor
87,7460402,0.602,-0.07148727504799247,-0.13272945396909935,-1.0440165922598865,-0.4459413861891259,3.0956692506905297,-0.49089320900674027,no_tremor
88,7460407,0.607,-0.07130685298177021,-0.13249070120143444,-1.0443107115043901,-0.37772069534016556,3.0490080546103564,-0.4826447307979633,no_tremor
89,7460412,0.612,-0.07112805371957173,-0.13224529537287252,-1.0446238043576666,-0.30408687100006715,2.9760316722178644,-0.4712718318771257,no_tremor
90,7460417,0.617,-0.0709526535272696,-0.13199545942231108,-1.0449541277536591,-0.22503621956888395,2.875506739866727,-0.4571902020405836,no_tremor
91,7460422,0.622,-0.07078253569726696,-0.1317435083223767,-1.04529956523604,-0.14062042984365042,2.746365035411572,-0.44085817120701015,no_tremor
92,7460426,0.626,-0.07061967830026802,-0.13149183006773427,-1.045657624413981,-0.05095061710013735,2.5877248045834773,-0.42277293649187364,no_tremor
93,7460431,0.631,-0.0704661406063742,-0.13124286580421804,-1.046025438231614,0.0437989020492992,2.398911946066708,-0.4034663675252446,no_tremor
94,7460436,0.636,-0.07032404817633392,-0.13099908922645645,-1.0463997702977645,0.1433871623690039,2.179480848574251,-0.3835004118221035,no_tremor
95,7460441,0.641,-0.07019557661200569,-0.13076298538095574,-1.0467770244855956,0.24750348954571239,1.929234662125832,-0.36346212365546454,no_tremor
96,7460445,0.645,-0.07008293394621407,-0.1305370290191265,-1.0471532589682009,0.3557648869968188,1.6482447771537259,-0.34395834187292457,no_tremor
97,7460450,0.65,-0.0699883416484056,-0.13032366265029624,-1.0475242048065099,0.4677139313432858,1.336869279441623,-0.3256100438111736,no_tremor
98,7460475,0.675,-0.06991401422590915,-0.1301252744482901,-1.0478852891509827,0.5828172377138477,0.9957701464707328,-0.3090464035540908,no_tremor
99,7460485,0.685,-0.06986213741292413,-0.129944176166732,-1.0482316630599573,0.7004645538835422,0.6259289507504192,-0.2948985831672728,no_tremor
100,7460490,0.69,-0.06983484496155062,-0.12978258121798006,-1.0485582338781627,0.8199685384724783,0.22866083590856087,-0.2837932852569226,no_tremor
101,7460499,0.699,-0.06983419408046829,-0.12964258306884638,-1.0488597020634454,0.9405652740873622,-0.19437347080858644,-0.2763460944996118,no_tremor
102,7460504,0.704,-0.06986213960426782,-0.12952613410332478,-1.0491306023028917,1.0614155622091093,-0.6411578508430192,-0.2731546354530602,no_tremor
103,7460509,0.709,-0.06992050701564619,-0.1294350250988467,-1.0493653487235957,1.181607042885041,-1.1093134377293343,-0.27479157508472674,no_tremor
104,7460514,0.714,-0.07001096448009074,-0.12937086545843718,-1.0495582839771123,1.3001571782834462,-1.596093959640686,-0.28179750174273677,no_tremor
105,7460518,0.718,-0.07013499408683611,-0.12933506433679118,-1.0497037319565712,1.4160171341075647,-2.0983840255687416,-0.29467371761529326,no_tremor
106,7460523,0.723,-0.07029386252146738,-0.12932881279389652,-1.0497960538873015,1.5280765863745989,-2.612700590992583,-0.3138749883259778,no_tremor
107,7460528,0.728,-0.07048859142643168,-0.1293530671054846,-1.0498297075119634,1.6351694735682252,-3.135197826413365,-0.33980230030745284,no_tremor
108,7460533,0.733,-0.07071992773781341,-0.12940853335532365,-1.0497993090669264,1.73608070642017,-3.6616755968691685,-0.37279568332101864,no_tremor
109,7460538,0.738,-0.07098831432115073,-0.1294956534301596,-1.0496996977164186,1.8295538399496456,-4.1875917432779,-0.41312716155881063,no_tremor
110,7460543,0.743,-0.07129386126573287,-0.12961459253386767,-1.0495260020745594,1.9142997049821313,-4.708078338095764,-0.4609939020481084,no_tremor
111,7460548,0.748,-0.07163631823432488,-0.1297652283329358,-1.0492737084037724,1.9890059893963885,-5.217962069030603,-0.5165116336997058,no_tremor
112,7460552,0.752,-0.07201504830115121,-0.12994714184055287,-1.0489387300332615,2.0523477529344962,-5.711788885083473,-0.5797084145982113,no_tremor
113,7460557,0.757,-0.07242900374218975,-0.13015961014114272,-1.0485174774958261,2.102998853184951,-6.183853017590369,-0.6505188293555406,no_tremor
114,7460562,0.762,-0.07287670426534548,-0.13040160105108303,-1.0480069288379303,2.139644253639404,-6.628230463564831,-0.7287787028446756,no_tremor
115,7460567,0.767,-0.07335621818131392,-0.13067176980461886,-1.047404699519056,2.1609931769292663,-7.038816988397716,-0.8142204215103032,no_tremor
116,7460571,0.771,-0.07386514701709404,-0.13096845784680905,-1.0467091112838058,2.1657930570480937,-7.409370669423089,-0.9064689582716075,no_tremor
117,7460597,0.797,-0.07440061406225426,-0.13128969380806552,-1.045919259365087,2.1528442334537554,-7.733558961218522,-1.0050387005713506,no_tremor
118,7460606,0.806,-0.07495925731322553,-0.13163319672803767,-1.0450350773588513,2.1210153178516884,-8.00501021854719,-1.1093311819100315,no_tremor
119,7460611,0.811,-0.07553722724409366,-0.13199638159116478,-1.0440573990983029,2.0692591519881427,-8.217369564523896,-1.218633814583446,no_tremor
120,7460616,0.816,-0.07613018978551728,-0.1323763672332388,-1.0429880168442223,1.9966292624697128,-8.364358940538708,-1.3321197159142748,no_tremor
121,7460621,0.821,-0.07673333483911565,-0.13276998667834933,-1.0418297350937908,1.9022967063104326,-8.4398411209002,-1.4488487131927839,no_tremor
122,7460625,0.825,-0.07734139059569432,-0.13317379996807083,-1.040586419290827,1.785567188066641,-8.437887419157367,-1.5677696047620744,no_tremor
123,7460630,0.83,-0.07794864386435123,-0.1335841095481658,-1.0392630386966124,1.645898315857206,-8.352848755084123,-1.6877237466466586,no_tremor
124,7460635,0.835,-0.0785489665575907,-0.13399697828059262,-1.0378657026555302,1.4829168496188834,-8.179429692383318,-1.8074500256400539,no_tremor
125,7460640,0.84,-0.07913584841630909,-0.13440825014867827,-1.0364016894671417,1.2964357812810485,-7.912764998711909,-1.9255912701116307,no_tremor
126,7460650,0.85,-0.07970243599870479,-0.1348135737198048,-1.034879467059457,1.0864710740928445,-7.548498223406348,-2.04070213824151,no_tremor
127,7460654,0.854,-0.08024157789911895,-0.13520842842207495,-1.0333087046499678,0.8532578782273655,-7.082861736406127,-2.151258509676062,no_tremor
128,7460659,0.859,-0.08074587610625694,-0.13558815367862675,-1.0317002745841994,0.5972660329116765,-6.512757626055025,-2.2556683909812447,no_tremor
129,7460664,0.864,-0.08120774335427616,-0.135947980925287,-1.0300662435584167,0.31921466174364954,-5.835838813655727,-2.3522843284776345,no_tremor
130,7460669,0.869,-0.08161946626352552,-0.1362830685141146,-1.0284198524653438,0.020085666606243932,-5.050589706645218,-2.4394173048252563,no_tremor
131,7460674,0.874,-0.08197327400893455,-0.13658853947743899,-1.0267754841499441,-0.2988640745996953,-4.156405677080072,-2.5153520782275476,no_tremor
132,7460678,0.878,-0.08226141219235894,-0.13685952209484745,-1.0251486184261003,-0.6360920007689521,-3.153670616040917,-2.5783639050044003,no_tremor
133,7460683,0.883,-0.08247622153074287,-0.13709119316991003,-1.0235557737834506,-0.9897608436150541,-2.0438317779219264,-2.6267365676979324,no_tremor
134,7460688,0.888,-0.08261022090605939,-0.13727882388491897,-1.0220144353054748,-1.3577314758002719,-0.8294710930434024,-2.6587816127536494,no_tremor
135,7460693,0.893,-0.08265619425798461,-0.13741782806114913,-1.020542968423964,-1.7375578143971413,0.4856279057615207,-2.6728586850731464,no_tremor
136,7460718,0.918,-0.08260728073929101,-0.1375038126096731,-1.0191605182501153,-2.126483956095597,1.8964184260577146,-2.6673968317330483,no_tremor
137,7460723,0.923,-0.08245706750075796,-0.13753262991418455,-1.0178868943475832,-2.5214437130450613,3.3965349361266703,-2.6409166340768984,no_tremor
138,7460728,0.928,-0.08219968443113485,-0.1375004318433329,-1.0167424409468477,-2.9190627096710795,4.978244788042006,-2.592053016423415,no_tremor
139,7460733,0.933,-0.08182990015187232,-0.13740372504660428,-1.0157478927421244,-3.3156631902871494,6.632407875902258,-2.5195785707280534,no_tremor
140,7460738,0.938,-0.08134321855678808,-0.13723942714559745,-1.014924216560739,-3.7072716736199642,8.348445255649084,-2.422427229129942,no_tremor
141,7460743,0.943,-0.08073597519025405,-0.13700492339217288,-1.0142924393495976,-4.0896295728374055,10.114317633531572,-2.299718109773743,no_tremor
142,7460752,0.952,-0.08000543276749782,-0.13669812332668463,-1.0138734630834607,-4.4582068789051394,11.916514599053674,-2.1507793553678636,no_tremor
143,7460762,0.962,-0.07914987515038928,-0.13631751693363808,-1.0136878673645342,-4.808218982382958,13.740055436874595,-1.975171778628718,no_tremor
144,7460767,0.967,-0.07816869909619677,-0.1358622297592674,-1.0137557006514486,-5.134646684900917,15.568502300919318,-1.7727121237727177,no_tremor
145,7460772,0.972,-0.0770625030914199,-0.13533207642685052,-1.0140962612265227,-5.432259426425397,17.38398647148644,-1.5434957477375153,no_tremor
146,7460777,0.977,-0.07583317256553697,-0.134727611962658,-1.0147278691811852,-5.6956417274821876,19.167248340440228,-1.2879185179530206,no_tremor
147,7460782,0.982,-0.07448396074952524,-0.1340501803298597,-1.015667630868021,-5.919222816207396,20.897691679713226,-1.006697715065709,no_tremor
148,7460787,0.987,-0.07301956440213554,-0.13330195956063023,-1.0169311974315722,-6.0973093781385215,22.553452645122977,-0.7008917198013472,no_tremor
149,7460792,0.992,-0.0714461935751369,-0.13248600287853182,-1.018532519186443,-6.224121332061968,24.111483852821525,-0.3719182541579434,no_tremor
150,7460797,0.997,-0.06977163452978091,-0.13160627521373422,-1.020483597758509,-6.2938304983804665,25.54765374160311,-0.021570939039973386,no_tremor
151,7460802,1.002,-0.06800530485372129,-0.13066768453188934,-1.0227942380413542,-6.300601988089753,26.836861302699752,0.3479660762445557,no_tremor
152,7460811,1.011,-0.06615829976427079,-0.12967610742221747,-1.025471802143951,-6.238638101598459,27.953166121337627,0.7341056618556759,no_tremor
153,7460816,1.016,-0.06424342852486685,-0.1286384084200041,-1.028520967615799,-6.102224488396492,28.869933532388888,1.1338476837714537,no_tremor
154,7460841,1.041,-0.06227523985309222,-0.12756245257156706,-1.0319434923313795,-5.88577828170817,29.559994546149632,1.5437716584602217,no_tremor
155,7460851,1.051,-0.060270035168126235,-0.12645711078418065,-1.0357379884967044,-5.583897886578049,29.995820048671035,1.9600323315674135,no_tremor
156,7460856,1.056,-0.05824586852076874,-0.12533225753788532,-1.0398997083076453,-5.191414063981421,30.149708621885512,2.3783584199126033,no_tremor
157,7460865,1.065,-0.05622253207540218,-0.12419876056917716,-1.044420343844136,-4.703441915713444,29.993987159338353,2.7940547479949345,no_tremor
158,7460870,1.07,-0.05422152607071612,-0.12306846216739944,-1.0492878438274293,-4.1154333343133676,29.50122327333658,3.20200800047435,no_tremor
159,7460885,1.085,-0.05226601226998757,-0.12195415175348329,-1.0544862498988814,-3.4232294405687016,28.644448302305552,3.596696300089365,no_tremor
160,7460890,1.09,-0.050380750015704,-0.1208695294391657,-1.0599955550955864,-2.6231124909858634,27.39738953870855,3.9722028048908204,no_tremor
161,7460895,1.095,-0.048592014123283546,-0.11982916029591033,-1.0657915871962929,-1.7118567014758457,25.734710113034662,4.3222334981498065,no_tremor
162,7460900,1.1,-0.04692749398473359,-0.11884841910018759,-1.0718459195851886,-0.6867774027314781,23.63225479127339,4.640139318196004,no_tremor
163,7460904,1.104,-0.04541617340803757,-0.11794342536905002,-1.078125812225931,0.45422208209035836,21.067299773163175,4.918942744052008,no_tremor
164,7460909,1.109,-0.04408819089432283,-0.1171309685593939,-1.0845941852487095,1.71260646524142,18.01880441630558,5.151368916900311,no_tremor
165,7460914,1.114,-0.04297468025287896,-0.11642842337677456,-1.0912096275249126,3.0891680670532486,14.46766265745984,5.329881338253418,no_tremor
166,7460919,1.119,-0.04210759167222282,-0.11585365522490147,-1.097926442433655,4.583990576477791,10.396951759130234,5.446722144383491,no_tremor
167,7460923,1.123,-0.04151949360050379,-0.11542491592412392,-1.10469473280924,6.196417638943321,5.792175880409647,5.4939569140735225,no_tremor
168,7460933,1.133,-0.04124335603644951,-0.1151607299350413,-1.111460526796686,7.925026899976618,0.6415018598501704,5.463523923364925,no_tremor
169,7460938,1.138,-0.04131231608795479,-0.11507977144016976,-1.118165946032604,9.767610113876328,-5.064015490940302,5.347287715897689,no_tremor
170,7460963,1.163,-0.04175942691436769,-0.11520073276047381,-1.1247494172106627,11.72115989779243,-11.330221346556389,5.137096808775357,no_tremor
171,7460968,1.168,-0.04261739142611002,-0.11554218471264373,-1.1311459276855356,13.781863671497558,-18.159664874507595,4.824845299534126,no_tremor
172,7460978,1.178,-0.04391828236817147,-0.11612242964563856,-1.1372873253196631,15.945105271583415,-25.5514220809633,4.4025380793272815,no_tremor
173,7460983,1.183,-0.04569325066006427,-0.11695934802996007,-1.143102662288898,18.20547466641784,-33.500940249021234,3.8623592934991295,no_tremor
174,7460988,1.188,-0.04797222410236663,-0.11807023960936577,-1.1485185820428827,20.55678612588542,-41.99990664845424,3.1967436276192602,no_tremor
175,7460998,1.198,-0.05078359878711227,-0.11947166026120101,-1.153459748069372,22.99210511817003,-51.03614408153917,2.3984499374505557,no_tremor
176,7461002,1.202,-0.054153925763650954,-0.12117925584679745,-1.1578493125423794,25.503784114444933,-60.59353567102694,1.4606366850216876,no_tremor
177,7461007,1.207,-0.0581075957108602,-0.12320759446545819,-1.1616094223448803,28.083507381133717,-70.6519810901235,0.37693858853205703,no_tremor
178,7461012,1.212,-0.06266652454887628,-0.12556999865187257,-1.1646617593514559,30.72234472880118,-81.18738617841596,-0.8584561595151057,no_tremor
179,7461017,1.217,-0.0678498430875238,-0.12827837917445745,-1.1669281112396626,33.41081406748898,-92.17168758027778,-2.2507288031351536,no_tremor
180,7461026,1.226,-0.07367359395333693,-0.13134307219813984,-1.1683309684773295,36.13895249102722,-103.57291368146699,-3.804353807881578,no_tremor
181,7461031,1.231,-0.08015043916155337,-0.13477268166671008,-1.168794142514363,38.896395477933346,-115.3552827040233,-5.52302430796483,no_tremor
182,7461036,1.236,-0.08728938180296084,-0.13857392883463904,-1.1682433996029418,41.672463654412724,-127.47933835012279,-7.409580039577923,no_tremor
183,7461046,1.246,-0.09509550539734782,-0.14275151093406893,-1.1666071040937729,44.45625641645073,-139.90212286683717,-9.465938613814652,no_tremor
184,7461051,1.251,-0.10356973452440756,-0.1473079709977052,-1.1638168645248725,47.23675155453219,-152.57738684526703,-11.693031004098138,no_tremor
185,7461056,1.256,-0.112708620376453,-0.15224358087067558,-1.15980817534982,50.00290986918935,-165.4558344861294,-14.090742135180227,no_tremor
186,7461061,1.261,-0.12250415487980482,-0.157556239431766,-1.1545210467611096,52.74378361302398,-178.4854024830878,-16.65785746115577,no_tremor
187,7461088,1.288,-0.13294361699436277,-0.1632413880035955,-1.1479006147677722,55.448627450003976,-191.61157011876776,-19.392016405839666,no_tremor
188,7461093,1.293,-0.1440094547085763,-0.1692919448575478,-1.1398977235028738,58.10701049219726,-204.77769766240516,-22.289673507969567,no_tremor
189,7461097,1.297,-0.15567920607340305,-0.1756982606057216,-1.1304694716880948,60.70892787177011,-217.92538974590767,-25.346068064968176,no_tremor
190,7461102,1.302,-0.16792546232655645,-0.18244809611023885,-1.1195797152946034,63.244910253066564,-230.99488013257212,-28.555203002919416,no_tremor
191,7461107,1.307,-0.18071587571283274,-0.1895266243226907,-1.1071995187290267,65.70612969832452,-243.9254342017246,-31.909833618775583,no_tremor
192,7461112,1.312,-0.19401321399431135,-0.1969164571906352,-1.0933075473377933,68.0845003625922,-256.655765510185,-35.40146674621145,no_tremor
193,7461117,1.317,-0.207775462879438,-0.2045976984365175,-1.0778903946413414,70.37277258800724,-269.1244628832408,-39.02037079157946,no_tremor
194,7461127,1.327,-0.22195597671456307,-0.21254802263338646,-1.0609428384537896,72.56461907790079,-281.270424580367,-42.755596972854036,no_tremor
195,7461132,1.332,-0.23650367681763437,-0.22074278058008448,-1.0424680208879624,74.65471194845003,-293.0332961549807,-46.595011973415126,no_tremor
196,7461142,1.342,-0.2513632958442269,-0.22915513052866812,-1.0224775481673356,76.63878957549544,-304.3539086808593,-50.52534209607236,no_tremor
197,7461147,1.347,-0.2664756656282635,-0.23775619435694706,-1.0009915071432998,78.51371227389699,-315.17471404933127,-54.53222887425104,no_tremor
198,7461151,1.351,-0.2817780451115568,-0.24651523733300224,-0.9780383964264686,80.27750596339177,-325.4402140434169,-58.6002959691326,no_tremor
199,7461161,1.361,-0.2972044843400697,-0.2553998697111784,-0.9536549710672457,81.92939308392049,-335.09737985423595,-62.713227053310696,no_tremor
200,7461171,1.371,-0.31268622010868646,-0.2643762680501429,-0.9278860007536831,83.46981012025792,-344.09605861003996,-66.85385425133319,no_tremor
201,7461176,1.376,-0.3281520986985301,-0.27340941386582784,-0.9007839425288954,84.90041117813247,-352.38936334053363,-71.00425657423162,no_tremor
202,7461180,1.38,-0.3435290212680554,-0.28246334703358833,-0.8724085300592628,86.22405712290657,-359.93404261662783,-75.14586764812573,no_tremor
203,7461214,1.414,-0.3587424078116148,-0.29150143123960315,-0.842826282501002,87.44478985275563,-366.69082591869994,-79.25959189502836,no_tremor
204,7461219,1.419,-0.37371667614138343,-0.30048662874962956,-0.8121099370184419,88.56779134430928,-372.6247406355602,-83.32592817879282,no_tremor
205,7461224,1.424,-0.3883757329952637,-0.3093817818020201,-0.7803378100165321,89.59932720490069,-377.7053965395444,-87.32509979293246,no_tremor
206,7461229,1.429,-0.4026434750060148,-0.31814989802096943,-0.7475930931755255,90.54667462215266,-381.9072336857124,-91.23718956126291,no_tremor
207,7461234,1.434,-0.4164442977687062,-0.32675443735985715,-0.7139630914165563,91.41803483308003,-385.20972997579184,-95.04227876116073,no_tremor
208,7461238,1.438,-0.42970361154019043,-0.33515959819737323,-0.6795384109692757,92.22243052648511,-387.5975650820751,-98.7205885570708,no_tremor
209,7461243,1.443,-0.44234836217412477,-0.34333060029901424,-0.6444121067366442,92.96958891323652,-389.0607379891028,-102.25262263219128,no_tremor
210,7461248,1.448,-0.4543075557518164,-0.35123396240901666,-0.6086787991331964,93.66981152397639,-389.59463604587756,-105.61930971707531,no_tremor
211,7461253,1.453,-0.4655127850416748,-0.35883777224618396,-0.572433771482706,94.33383211038712,-389.20005411289725,-108.8021447305781,no_tremor
212,7461258,1.458,-0.4758987554428097,-0.36611194664143376,-0.5357720598652849,94.97266432801226,-387.88316312176545,-111.78332726906069,no_tremor
213,7461263,1.463,-0.4854038074777801,-0.3730284794807441,-0.4987875479638489,95.59744115969959,-385.65542812243405,-114.54589620324717,no_tremor
214,7461268,1.468,-0.4939704322322623,-0.37956167501488125,-0.46157207993257643,96.21924829252951,-382.53347666088615,-117.07385917004515,no_tremor
215,7461282,1.482,-0.5015457754320819,-0.3856883639821895,-0.4242146045510203,96.84895388241921,-378.53891910323887,-119.35231578161113,no_tremor
216,7461287,1.487,-0.5080821251393585,-0.3913880998840688,-0.3868003638958908,97.49703732447593,-373.69812329716365,-121.36757341868145,no_tremor
217,7461292,1.492,-0.5135373773833075,-0.3966433326824492,-0.3494101394209487,98.17341978338372,-368.0419467233642,-123.10725453363736,no_tremor
218,7461297,1.497,-0.5178754734659968,-0.4014395571862444,-0.3121195676507529,98.88729930923817,-361.60543000793945,-124.5603944663056,no_tremor
219,7461302,1.502,-0.5210668022435165,-0.4057654334862213,-0.2749985366521075,99.64699335425915,-354.4274563076378,-125.71752887467994,no_tremor
220,7461307,1.507,-0.5230885604088983,-0.4096128769983725,-0.2381106730728627,100.45979141116361,-346.55038162790396,-126.57076999941947,no_tremor
221,7461335,1.535,-0.5239250637116092,-0.41297711598520004,-0.20151292789071965,101.33182032441589,-338.01964158867577,-127.1138711069707,no_tremor
222,7461339,1.539,-0.5235680021574066,-0.4158567148374597,-0.16525526716029032,102.26792459443564,-328.8833405067497,-127.3422785856754,no_tremor
223,7461344,1.544,-0.5220166325757264,-0.41825356191108176,-0.12938047203284106,103.27156370966267,-319.1918288725012,-127.25317130165746,no_tremor
224,7461349,1.549,-0.5192779025650065,-0.4201728213182006,-0.09392405018129324,104.34472820483718,-308.9972752977953,-126.84548695769197,no_tremor
225,7461354,1.554,-0.5153665007564135,-0.42162284875207795,-0.05891425852841389,105.48787576326204,-298.3532387720613,-126.11993533480978,no_tremor
226,7461359,1.559,-0.5103048295539296,-0.42261507215611893,-0.024372234906559244,106.6998882728852,-287.31424662547437,-125.0789984231787,no_tremor
227,7461364,1.564,-0.5041228979524361,-0.4231638387927249,0.009687765948306986,107.97805033083132,-275.9353830383232,-123.7269175574274,no_tremor
228,7461369,1.569,-0.4968581336299177,-0.42328623099412366,0.043258038763531716,109.31804928367904,-264.27189231699356,-122.06966776206856,no_tremor
229,7461374,1.574,-0.4885551151855992,-0.4230018535546942,0.0763370050455508,110.71399649927925,-252.37880051959704,-120.11491959183243,no_tremor
230,7461388,1.588,-0.47926522709011576,-0.42233259632743586,0.10892871155060647,112.15846919434296,-240.31055838567625,-117.87198882737617,no_tremor
231,7461393,1.593,-0.4690462415624738,-0.4213023760941846,0.14104226139876924,113.64257179765092,-228.12070792215167,-115.35177446384375,no_tremor
232,7461398,1.598,-0.4579618331165418,-0.4199368621684542,0.17269119021360904,115.15601552850758,-215.86157442919992,-112.56668550787134,no_tremor
233,7461403,1.603,-0.44608103284323597,-0.418263190438871,0.20389280013676178,116.68721463722981,-203.58398521814445,-109.53055717336899,no_tremor
234,7461407,1.607,-0.4334776305417786,-0.41630967065155816,0.23466746459516397,118.22339760294436,-191.33701578397068,-106.25855713374231,no_tremor
235,7461418,1.618,-0.42022953354966086,-0.414105491655043,0.2650379163194945,119.75073150670212,-179.16776375573036,-102.76708254850058,no_tremor
236,7461422,1.622,-0.4064180915506454,-0.41168042909768626,0.2950285303958202,121.25445777311326,-167.12115056464464,-99.07364863867807,no_tremor
237,7461427,1.627,-0.39212739678736014,-0.4090645596879435,0.32466461317088696,122.71903747901051,-155.23975044190078,-95.19676964038426,no_tremor
238,7461432,1.632,-0.37744356899809656,-0.40628798561712287,0.35397170672113837,124.1283044462977,-143.5636460816837,-91.15583301925888,no_tremor
239,7461461,1.661,-0.36245403407089793,-0.40338057212495804,0.38297491742547074,125.4656243562612,-132.13031007655434,-86.97096788077583,no_tremor
240,7461466,1.666,-0.3472468049087297,-0.4003717004993933,0.41169827603111386,126.7140581380765,-120.97451104996851,-82.66290856282583,no_tremor
241,7461471,1.671,-0.3319097723813546,-0.39729003810737334,0.44016413554745726,127.85652789702448,-110.12824326890689,-78.25285444581189,no_tremor
242,7461476,1.676,-0.31653001355099947,-0.39416332643481083,0.46839261241822283,128.87598366644303,-99.6206784075691,-73.76232705552832,no_tremor
243,7461480,1.68,-0.3011931236372067,-0.3910181876410359,0.496401075751336,129.75556929983972,-89.47813804199134,-69.21302555989405,no_tremor
244,7461490,1.69,-0.28598257745995564,-0.38787994983180024,0.5242036889081406,130.47878586896263,-79.72408538361844,-64.62668177280275,no_tremor
245,7461500,1.7,-0.2709791253926305,-0.3847724911035604,0.5518110073932929,131.02965099910801,-70.37913470986106,-60.02491578208642,no_tremor
246,7461505,1.705,-0.2562602281861827,-0.381718102362636,0.5792296366524624,131.39285265251485,-61.461076923719894,-55.42909331688234,no_tremor
247,7461510,1.71,-0.2418995344052653,-0.37873736892346865,0.6064619530026453,131.55389596179123,-52.98491967389655,-50.860185960081736,no_tremor
248,7461514,1.714,-0.22796640365199144,-0.3758490708946559,0.633505890441675,131.49924181478386,-44.962940492561835,-46.33863528981734,no_tremor
249,7461519,1.719,-0.21452547824301263,-0.37307010233820587,0.660354795485833,131.21643599704197,-37.40475146163519,-41.884221999929714,no_tremor
250,7461529,1.729,-0.20163630554548756,-0.370415409123729,0.6869973514630086,130.69422780595275,-30.317374001049476,-37.51594100735592,no_tremor
251,7461538,1.738,-0.18935301275708868,-0.36789794529779046,0.7134175728540212,129.92267716168408,-23.705322480666247,-33.25188350879533,no_tremor
252,7461543,1.743,-0.1777240355187456,-0.3655286476604824,0.7395948693500018,128.89324935657203,-17.570695479312306,-29.109126900831626,no_tremor
253,7461548,1.748,-0.16679190135579336,-0.3633164281005322,0.7655041783154622,127.59889671004338,-11.913273630566799,-25.103633424757824,no_tremor
254,7461553,1.753,-0.15659306853404273,-0.3612681831012209,0.7911161633565597,126.03412653312849,-6.730623087340398,-21.250158336891243,no_tremor
255,7461580,1.78,-0.14715782048327436,-0.35938881970431635,0.8163974757247701,124.19505495496522,-2.0182036978754616,-17.562168336138864,no_tremor
256,7461585,1.785,-0.13851021549058937,-0.35768129711727153,0.841311074356794,122.07944631964074,2.2305189831493406,-14.051770902065966,no_tremor
257,7461590,1.79,-0.13066809092453413,-0.3561466830769853,0.8658165994848215,119.68673801731782,6.023958717099366,-10.72965510324525,no_tremor
258,7461594,1.794,-0.12364312084718738,-0.35478422404704607,0.8898707939909132,117.01805075822008,9.372291514597897,-7.605044318692514,no_tremor
259,7461599,1.799,-0.11744092552271534,-0.35359142832665585,0.9134279660765592,114.07618442349482,12.287337368884439,-4.685661174220287,no_tremor
260,7461604,1.804,-0.11206123103121245,-0.3525641611838959,0.9364404864012181,110.86559973247593,14.782441677782495,-1.9777048442279448,no_tremor
261,7461609,1.809,-0.1074980769195562,-0.3516967511827354,0.9588593126051582,107.3923860577558,16.872357214826366,0.5141592742163541,no_tremor
262,7461613,1.813,-0.10374006953272825,-0.35098210693823634,0.9806345340466641,103.66421580659126,18.573127451206293,2.7867976356808746,no_tremor
263,7461618,1.818,-0.1007706783400264,-0.3504118435938756,1.0017159296235527,99.69028587732558,19.901971945321282,4.838594604355916,no_tremor
264,7461628,1.828,-0.09856857218157186,-0.3499764183562732,1.0220535316875485,95.48124679846981,20.87717441643209,6.669426840195287,no_tremor
265,7461637,1.837,-0.0971079919062142,-0.34966527443474643,1.0415981892709418,91.04912026914052,21.517974017464866,8.280626466527906,no_tremor
266,7461647,1.847,-0.09635915536605219,-0.34946699270567555,1.0603021240996495,86.40720594244718,21.844460236025494,9.674933581994999,no_tremor
267,7461657,1.857,-0.09628869021435973,-0.3493694503453037,1.0781194731333372,81.56997842342115,21.877471796887153,10.85643878826156,no_tremor
268,7461661,1.861,-0.09686008948717581,-0.3493599855440041,1.0950068116164005,76.55297558095427,21.638499918459704,11.830516510113736,no_tremor
269,7461671,1.871,-0.09803418460809428,-0.3494255672340567,1.1109236508117422,71.37267938657699,21.14959627849792,12.603749984504288,no_tremor
270,7461676,1.876,-0.09976963029580349,-0.3495529685469113,1.1258329047082438,66.04639057941843,20.433286046091126,13.183848886605674,no_tremor
271,7461700,1.9,-0.10202339588827283,-0.34972894248840075,1.1397013200602308,60.592098508172555,19.51248631296672,13.579560632628942,no_tremor
272,7461705,1.905,-0.10475125779578641,-0.34994039810733324,1.152499864191302,55.028347514768015,18.410430193057135,13.800576432263519,no_tremor
273,7461710,1.91,-0.1079082880965555,-0.3501745752575386,1.1642040651742478,49.37410120208664,17.150596754108044,13.857433147042716,no_tremor
274,7461715,1.915,-0.11144933462377447,-0.3504192159323276,1.1747942993991707,43.648605874193244,15.756646808359488,13.76141195391595,no_tremor
275,7461720,1.92,-0.11532948820722014,-0.35066273008968135,1.1842560222437053,37.87125436157129,14.252364436861319,13.5244347379503,no_tremor
276,7461725,1.925,-0.11950453300283144,-0.3508943538813432,1.1925799385601064,32.06145135920035,12.661603970866242,13.15895906328789,no_tremor
277,7461735,1.935,-0.12393137607702755,-0.3511042982375586,1.199762110912425,26.23848132457475,11.008242017210595,12.67787250588102,no_tremor
278,7461740,1.94,-0.12856845263152542,-0.35128388582968545,1.2058040048158871,20.421379913386755,9.316133999943226,12.094387076509845,no_tremor
279,7461745,1.945,-0.13337610348512058,-0.3514256745275802,1.21071247153562,14.62880987409371,7.609074600518471,11.421934416999935,no_tremor
280,7461750,1.95,-0.13831692169346954,-0.3515235655841384,1.2144996701987107,8.87894227635323,5.910761413846256,10.674062414776303,no_tremor
281,7461754,1.954,-0.14335606549924731,-0.3515728949148439,1.2171829319965217,3.1893439082791932,4.244761095267004,9.86433384866793,no_tremor
282,7461764,1.964,-0.14846153516381244,-0.35157050599603107,1.2187845700710909,-2.423128359882488,2.6344772498386044,9.006227648786437,no_tremor
283,7461769,1.969,-0.15360441162815905,-0.3515148030831257,1.2193316392886242,-7.9424254860912065,1.1031193055944621,8.113043321467353,no_tremor
284,7461789,1.989,-0.15875905537072793,-0.35140578365272435,1.21885565052494,-13.353395725203942,-0.32632838588809704,7.1978090542322235,no_tremor
285,7461794,1.994,-0.16390326425714008,-0.35124504920676597,1.2173922443581475,-18.64186499807864,-1.6311379644483142,6.273193975723296,no_tremor
286,7461798,1.998,-0.1690183895995568,-0.35103579385429307,1.2149808292298827,-23.794707583574873,-2.788870705392683,5.351425003806261,no_tremor
287,7461825,2.025,-0.17408941005410214,-0.3507827704193973,1.2116641892482471,-28.79990666469638,-3.7774115585281645,4.444208673803081,no_tremor
288,7461829,2.029,-0.1791049633815951,-0.3504922342193829,1.2074880669006909,-33.6466043954617,-4.575006183495355,3.5626582984886803,no_tremor
289,7461834,2.034,-0.1840573364788644,-0.35017186510409565,1.2025007260310003,-38.32514130941985,-5.160301008165466,2.7172267696927146,no_tremor
290,7461839,2.039,-0.18894241445170476,-0.3498306688152271,1.1967525004863477,-42.827085056249125,-5.512386760269436,1.91764526472594,no_tremor
291,7461844,2.044,-0.1937595898403063,-0.3494788591745443,1.1902953338199844,-47.14524862248991,-5.610845847092563,1.1728680691975124,no_tremor
292,7461849,2.049,-0.19851163341899816,-0.34912772301103245,1.1831823153165701,-51.27369835623897,-5.435803882023237,0.4910236758321888,no_tremor
293,7461854,2.054,-0.20320452827332156,-0.34878947007092753,1.1754672173856684,-55.20775226208444,-4.967985576890305,-0.12062772754790271,no_tremor
294,7461858,2.058,-0.20784726911156595,-0.3484770704134619,1.1672040390548266,-58.94396915437817,-4.188775134604822,-0.6557303066691949,no_tremor
295,7461863,2.063,-0.21245162900017342,-0.3482040819763148,1.1584465599037657,-62.4801293529474,-3.0802811892891677,-1.1088621256875997,no_tremor
296,7461868,2.068,-0.2170318959285788,-0.347984471099882,1.149247908335169,-65.81520767720706,-1.6254062534323983,-1.4755581800901576,no_tremor
297,7461873,2.073,-0.2216045818136443,-0.3478324288335816,1.1396601475957466,-68.94933954326267,0.19207945376593852,-1.7523269418352403,no_tremor
298,7461878,2.078,-0.22618810674927722,-0.347762185817223,1.1297338824633527,-71.88378099354165,2.3874600037051024,-1.936660473555291,no_tremor
299,7461883,2.083,-0.2308024614932399,-0.34778782844292794,1.1195178890203425,-74.62086348975909,4.974991863348176,-2.0270382005290193,no_tremor
300,7461887,2.087,-0.2354688513587606,-0.3479231188647386,1.1090587694566105,-77.16394427959962,7.9678184581523315,-2.022924459213404,no_tremor
301,7461892,2.092,-0.2402093248399008,-0.34818132123980416,1.0984006334019893,-79.51735310866007,11.377881603988099,-1.9247599679020384,no_tremor
302,7461897,2.097,-0.24504639044214394,-0.34857503636218146,1.0875848068879652,-81.68633599462923,15.215830271869297,-1.7339473867787416,no_tremor
303,7461902,2.102,-0.25000262530811207,-0.3491160465926253,1.0766495696904816,-83.67699671168445,19.490927194567274,-1.4528311501995606,no_tremor
304,7461911,2.111,-0.25510027931736867,-0.3498151727001544,1.0656299215125975,-85.49623655048039,24.210953863088754,-1.0846717637353231,no_tremor
305,7461916,2.116,-0.2603608783940886,-0.35068214391922475,1.054557377227731,-87.15169282478404,29.382114495701686,-0.6336147636025662,no_tremor
306,7461921,2.121,-0.2658048307733475,-0.3517254821967379,1.043459791216978,-88.65167649394927,35.008939596057516,-0.10465453811262487,no_tremor
307,7461947,2.147,-0.27145103995448766,-0.35295240126397764,1.0323612106897668,-90.00510916741788,41.09418975480889,0.4964067888696599,no_tremor
308,7461952,2.152,-0.2773165280110257,-0.3543687208306369,1.0212817577650937,-91.22145966072617,47.6387603981713,1.1630052124885577,no_tremor
309,7461957,2.157,-0.28341607283976267,-0.3559787958771958,1.0102375399962755,-92.31068018973187,54.64158825799717,1.8878652395754243,no_tremor
310,7461961,2.161,-0.2897618628318862,-0.35778546073904977,0.9992405889280774,-93.28314222735331,62.09956044150324,2.6630546204011596,no_tremor
311,7461966,2.166,-0.29636317235005344,-0.3597899874503222,0.9882988261666108,-94.14957200675441,70.00742711315807,3.480043222340011,no_tremor
312,7461971,2.171,-0.303226061302763,-0.3619920576557018,0.9774160563154068,-94.92098563209214,78.35771894728602,4.329765849379653,no_tremor
313,7461975,2.175,-0.3103531020141248,-0.36438974730024676,0.9665919859927505,-95.60862374566987,87.14067064193404,5.202688808991519,no_tremor
314,7461980,2.18,-0.3177431364793094,-0.36697952325767474,0.955822268007628,-96.22388569400105,96.34415188430249,6.088880020088563,no_tremor
315,7461985,2.185,-0.32539106695734216,-0.36975625104372745,0.9450985696449,-96.77826313362024,105.95360721781753,6.97808244190797,no_tremor
316,7461990,2.19,-0.33328768266862113,-0.3727132127708931,0.9344086639017096,-97.2832730208741,115.95200627885305,7.859790583054004,no_tremor
317,7461995,2.195,-0.34141952512292983,-0.3758421345245072,0.9237365424311877,-97.75038993891654,126.31980584855545,8.72332982154109,no_tremor
318,7462005,2.205,-0.3497687942981443,-0.37913322237079733,0.9130625488891425,-98.19097772993662,137.03492510697805,9.55793822970174,no_tremor
319,7462010,2.21,-0.35831329752149366,-0.3825752062401798,0.9023635313461702,-98.61622042156566,148.07273539069925,10.352850553344517,no_tremor
320,7462014,2.214,-0.3670264424862352,-0.3861553909626311,0.8916130124213136,-99.03705246440403,159.40606565005896,11.097383945784157,no_tremor
321,7462020,2.22,-0.37587727538831356,-0.3898597137680108,0.880781375811799,-99.46408833407413,171.00522468448173,11.78102500783535,no_tremor
322,7462024,2.224,-0.3848305647117215,-0.39367280760632345,0.8698360679333955,-99.90755159695794,182.83804110539842,12.393517636402013,no_tremor
323,7462030,2.23,-0.3938469307422834,-0.3975780696941293,0.8587418134452536,-100.37720359350355,194.86992183291352,12.924951136736773,no_tremor
324,7462034,2.234,-0.40288302045590896,-0.40155773475520956,0.8474608435106176,-100.8822719559394,207.06392977151893,13.365848005294682,no_tremor
325,7462039,2.239,-0.4118917270166717,-0.4055929524966136,0.8359531357398172,-101.43137924833177,219.38088113237802,13.707250739261802,no_tremor
326,7462044,2.244,-0.42082245274025964,-0.40966386894556067,0.824176664873278,-102.03247209713729,231.77946267788144,13.940806973588606,no_tremor
327,7462071,2.271,-0.4296214140358553,-0.41374971136848926,0.8120876633886794,-102.69275127134904,244.2163689620448,14.0588521870149,no_tremor
328,7462076,2.276,-0.43823198653819795,-0.4178288766007241,0.7996408913561746,-103.41860327423733,256.6464594384623,14.054489160143813,no_tremor
329,7462081,2.281,-0.4465950883814027,-0.4218790227331242,0.7867899150136917,-104.21553412252283,269.022935132044,13.921663322966738,no_tremor
330,7462085,2.285,-0.45464959933995036,-0.42587716422876154,0.7734873936786909,-105.08810610808258,281.2975344541963,13.655233110902694,no_tremor
331,7462090,2.29,-0.46233281335280324,-0.42979977067320374,0.759685374735944,-106.03987845202138,293.4207476921005,13.251034462852312,no_tremor
332,7462100,2.3,-0.4695809217273624,-0.4336228694869106,0.7453355965272375,-107.07335286070276,305.34204969042423,12.705938631387896,no_tremor
333,7462105,2.305,-0.4763295240620877,-0.43732215303443556,0.7303897990080006,-108.18992507113173,317.010150220649,12.017902515921064,no_tremor
334,7462110,2.31,-0.4825141636072452,-0.44087309063770364,0.7148000420194092,-109.38984352441386,328.37326146542773,11.186010763866836,no_tremor
335,7462115,2.315,-0.48807088339092236,-0.4442510460252685,0.6985190309430486,-110.67217632606082,339.37938191778335,10.21050891415909,no_tremor
336,7462120,2.32,-0.49293679897367226,-0.4474314007150251,0.6815004493517286,-112.0347876369739,349.97659580145347,9.092826889061824,no_tremor
337,7462124,2.324,-0.49705068317442275,-0.45038968372931115,0.6636992980461073,-113.47432458947404,360.1133868589275,7.835592179507845,no_tremor
338,7462134,2.334,-0.5003535575591579,-0.45310170788058435,0.6450722395837936,-114.98621574131013,369.7389650346316,6.442632120516009,no_tremor
339,7462139,2.339,-0.5027892849393601,-0.455543712650564,0.6255779470831488,-116.56468196659938,378.80360421660043,4.918964723236215,no_tremor
340,7462144,2.344,-0.5043051566344218,-0.4576925134275785,0.6051774557378646,-118.2027605311504,387.2589888121523,3.270777627082323,no_tremor
341,7462149,2.349,-0.5048524678591684,-0.4595256565797135,0.583834515129766,-119.89234290496412,395.05856654732065,1.5053948647479574,no_tremor
342,7462158,2.358,-0.5043870743455734,-0.4610215795386915,0.5615159400937689,-121.62422662516593,402.1579045175545,-0.3687687055817527,no_tremor
343,7462163,2.363,-0.5028699232228412,-0.4621597747618781,0.538191957586283,-123.38818124197057,408.51504518762346,-2.3422652577768357,no_tremor
344,7462168,2.368,-0.5002675512723757,-0.46292095613452056,0.5138365467495968,-125.17302806635387,414.09085874235353,-4.4046838920721045,no_tremor
345,7462195,2.395,-0.4965525439410383,-0.46328722607608286,0.48842776915831876,-126.96673310135371,418.8493879286077,-6.544732086869001,no_tremor
346,7462200,2.4,-0.4917039489200111,-0.4632422413289291,0.4619480860826094,-128.75651219455145,422.75818131125345,-8.750327992483443,no_tremor
347,7462205,2.405,-0.4857076386382409,-0.4627713751458667,0.43438465950283756,-130.5289471217901,425.78861070993986,-11.008702617236999,no_tremor
348,7462210,2.41,-0.4785566166203807,-0.4618618733751868,0.40572963355149616,-132.27011103215057,427.9161685147554,-13.306510740696472,no_tremor
349,7462215,2.415,-0.4702512632623343,-0.46050300179202447,0.3759803930314089,-133.96570147200964,429.1207406135299,-15.629949201844786,no_tremor
350,7462220,2.42,-0.4607995171514957,-0.45868618196148475,0.34513979566436087,-135.60117905932782,429.3868507960006,-17.964881049735943,no_tremor
351,7462225,2.425,-0.4502169886041068,-0.456405112948982,0.31321637477082437,-137.16190978247533,428.70387271410317,-20.296963905970788,no_tremor
352,7462230,2.43,-0.43852700262960187,-0.4536558763144903,0.28022450918052877,-138.6333088418204,427.06620576474495,-22.611780777424585,no_tremor
353,7462234,2.434,-0.42576056908812493,-0.4504370220334556,0.2461845573307355,-140.00098394115292,424.473411620253,-24.894971490772537,no_tremor
354,7462239,2.439,-0.4119562784076903,-0.44674963326945966,0.21112295272183199,-141.25087597665294,420.9303085571665,-27.132362915088134,no_tremor
355,7462244,2.444,-0.3971601218921372,-0.4425973682722003,0.1750722581597928,-142.36939516096734,416.44702121372273,-29.310096202001965,no_tremor
356,7462249,2.449,-0.38142523639430226,-0.43798647807727115,0.13807117651246276,-143.34355074721572,411.0389839257337,-31.41474939635957,no_tremor
357,7462254,2.454,-0.36481157395767394,-0.43292579912872353,0.10016451603619779,-144.1610726711078,404.72689633937796,-33.43345393503643,no_tremor
358,7462259,2.459,-0.3473854979437793,-0.4274267204178682,0.06140310869231235,-144.81052360507346,397.5366305746183,-35.354003736281314,no_tremor
359,7462263,2.463,-0.32921930815481376,-0.42150312521820754,0.021843680275147027,-145.28140011877014,389.4990898169547,-37.16495576896904,no_tremor
360,7462268,2.468,-0.3103906985199004,-0.41517130798261,-0.01845132837577704,-145.5642218680871,380.65001885303434,-38.85572116833397,no_tremor
361,7462273,2.473,-0.29098215202408156,-0.40844986744081835,-0.05941398929792165,-145.65060798756892,371.0297677425599,-40.4166461267857,no_tremor
362,7462278,2.478,-0.27108027870506735,-0.40135957737962324,-0.1009711641026251,-145.53334013122387,360.68301053829475,-41.83908193763654,no_tremor
363,7462283,2.483,-0.25077510370602807,-0.3939232369910603,-0.1430448284317016,-145.20641188415172,349.65842172518063,-43.115443714187606,no_tremor
364,7462293,2.493,-0.23015931353329128,-0.3861655030214348,-0.18555244242188157,-144.66506454527067,338.00831383625496,-44.2392574559742,no_tremor
365,7462320,2.52,-0.20932746979752598,-0.37811270623211696,-0.22840736461231875,-143.90580955636977,325.78824049124944,-45.205195294060665,no_tremor
366,7462325,2.525,-0.18837520076308586,-0.36979265488264523,-0.27151930586718687,-142.9264381192589,313.0565698420628,-46.00909891766936,no_tremor
367,7462330,2.53,-0.16739838189570772,-0.3612344280631378,-0.31479481903466133,-141.72601878426033,299.87403400766914,-46.647991356129616,no_tremor
368,7462335,2.535,-0.14649231715287125,-0.35246816173337064,-0.3581378193224114,-140.3048839832152,286.3032604379848,-47.120077447442135,no_tremor
369,7462340,2.54,-0.12575093289734215,-0.3435248302710146,-0.40145012982704803,-138.66460659922313,272.4082912214867,-47.42473345398018,no_tremor
370,7462344,2.544,-0.10526599600984544,-0.33443602620215507,-0.44463204634340275,-136.80796771518482,258.25409620048487,-47.562486383731766,no_tremor
371,7462349,2.549,-0.08512636709034305,-0.325233740602877,-0.4875829154743716,-134.73891667981601,243.90608547883375,-47.53498364818947,no_tremor
372,7462354,2.554,-0.06541729865908986,-0.3159501464416701,-0.5302017201181929,-132.4625245874552,229.4296265706521,-47.34495374395406,no_tremor
373,7462359,2.559,-0.04621978707838082,-0.3066173868935185,-0.57238766658786,-129.98493219413152,214.88957107654088,-46.996158690267784,no_tremor
374,7462364,2.564,-0.0276099855739818,-0.29726737040672574,-0.6140407678848631,-127.31329319222905,200.34979539789305,-46.49333899157368,no_tremor
375,7462369,2.569,-0.009658684289555308,-0.2879315740482691,-0.6550624179799371,-124.45571364643884,185.8727596169693,-45.84215192300031,no_tremor
376,7462378,2.578,0.0075691381981049955,-0.2786408563973962,-0.6953559523274676,-121.42118826268491,171.51908828562603,-45.04910395733926,no_tremor
377,7462383,2.583,0.02401468899511454,-0.26942528100524793,-0.7348271902471837,-118.219534028379,157.34717648273707,-44.12147816603638,no_tremor
378,7462388,2.588,0.03962565921399505,-0.2603139511959684,-0.7733849552455443,-114.86132163775044,143.4128241206405,-43.06725743679738,no_tremor
379,7462393,2.593,0.054356446473344255,-0.25133485675809314,-0.8109415698251563,-111.3578050131369,129.7689011041299,-41.8950443591973,no_tremor
380,7462403,2.603,0.06816830278631543,-0.242514732871256,-0.847413321847211,-107.72084916323035,116.46504557387496,-40.61397863735892,no_tremor
381,7462408,2.608,0.08102941009536356,-0.23387893144144148,-0.882720900061085,-103.96285658737854,103.54739710336932,-39.2336528917338,no_tremor
382,7462413,2.613,0.09291488651994412,-0.22545130488827633,-0.9167897969741216,-100.09669243943071,91.05836636165573,-37.76402770337164,no_tremor
383,7462440,2.64,0.10380672694408247,-0.21725410234935158,-0.9495506777699846,-96.135608698352,79.03644239090212,-36.21534672661946,no_tremor
384,7462445,2.645,0.11369368190705526,-0.20930787824325142,-0.9809397144574742,-92.09316764308733,67.51603826490607,-34.598052647307284,no_tremor
385,7462450,2.65,0.12257107895030087,-0.20163141315828007,-1.0108988848047955,-87.98316497602968,56.527375484690204,-32.92270469774115,no_tremor
386,7462455,2.655,0.13044059073422745,-0.1942416470891294,-1.03937623585684,-83.81955296200775,46.096407031856955,-31.199898366633636,no_tremor
387,7462460,2.66,0.13730995447553235,-0.18715362510474481,-1.0663261119347998,-79.61636393985717,36.2447785527718,-29.440187870479505,no_tremor
388,7462465,2.665,0.14319264760914285,-0.18038045557805676,-1.0917093469940513,-75.3876345329459,26.9898267129728,-27.65401188806083,no_tremor
389,7462469,2.669,0.14810752501464536,-0.17393328113215406,-1.1154934211036285,-71.14733085447425,18.344613367952423,-25.851623002748937,no_tremor
390,7462479,2.679,0.1520784235903747,-0.16782126245526152,-1.1376525806527549,-66.90927498849497,10.317993857394786,-24.043021245953977,no_tremor
391,7462484,2.684,0.15513374033078492,-0.1620515751097255,-1.1581679217308467,-62.68707303320053,2.914717445486534,-22.23789208601113,no_tremor
392,7462489,2.689,0.15730599030012005,-0.15662941941084174,-1.1770274360102548,-58.494045014612134,-3.8644423067089115,-20.445549157486433,no_tremor
393,7462494,2.694,0.1586313509539335,-0.15155804338272047,-1.1942260184260305,-54.34315700557069,-10.022529649240278,-18.674881976249385,no_tremor
394,7462498,2.698,0.15914919912142847,-0.14683877871341622,-1.2097654360226728,-50.24695580584998,-15.566223813281251,-16.93430883700683,no_tremor
395,7462503,2.703,0.15890164663752165,-0.1424710895334612,-1.223654257531139,-46.217506549546904,-20.505633969619808,-15.231735042733815,no_tremor
396,7462513,2.713,0.15793308014212068,-0.13845263373350664,-1.2359077435356263,-42.2663336077772,-24.85407482162425,-13.574516568572164,no_tremor
397,7462518,2.718,0.15628970999713251,-0.134779336419021,-1.246547697459477,-38.404365152780905,-28.627825767994594,-11.969429215589217,no_tremor
398,7462523,2.723,0.15401913265896303,-0.1314454749719805,-1.2556022780063618,-34.64188174758159,-31.845876622048507,-10.42264326336276,no_tremor
399,7462532,2.732,0.1511699102245017,-0.12844377504976986,-1.2631057740976777,-30.98846932581873,-34.52966287915459,-8.939703587299155,no_tremor
400,7462563,2.763,0.14779117026861666,-0.12576551670035452,-1.2690983437146757,-27.452976930712982,-36.7027934755008,-7.525515169530292,no_tremor
401,7462567,2.767,0.14393222852585824,-0.12340064961425384,-1.2736257183603645,-24.043479588039634,-38.39077387978986,-6.18433390170738,no_tremor
402,7462577,2.777,0.1396422364397537,-0.12133791637668713,-1.2767388750972097,-20.767246685417444,-39.62072721567853,-4.919762551159598,no_tremor
403,7462582,2.782,0.13496985510098403,-0.11956498243943946,-1.2784936783102272,-17.630716204330373,-40.421115946538556,-3.734751734123758,no_tremor
404,7462587,2.787,0.12996295661284082,-0.11806857141268981,-1.27895049352417,-14.6394750939993,-40.82146648399974,-2.6316057088008376,no_tremor
405,7462592,2.792,0.12466835346091168,-0.11683460418885436,-1.278173775798848,-11.798245993210001,-40.85209891635769,-1.6119927688069804,no_tremor
406,7462596,2.796,0.11913155603535129,-0.11584834035488398,-1.2762316354539733,-9.110880411044546,-40.54386389162165,-0.6769599877823449,no_tremor
407,7462601,2.801,0.11339655807058303,-0.11509452032496197,-1.2731953841339334,-6.580358381710474,-39.92788852906916,0.17304795966040398,no_tremor
408,7462606,2.806,0.10750564943614456,-0.1145575066299927,-1.269139064502804,-4.208794518295465,-39.03533306988031,0.9381661974126131,no_tremor
409,7462616,2.816,0.10149925543589156,-0.11422142283170604,-1.2641389671445915,-1.9974503074346073,-37.89715981026385,1.6190835843486606,no_tremor
410,7462621,2.821,0.09541580154998278,-0.11407028858615109,-1.2582731385131174,0.05324758796257631,-36.54391568872767,2.2170135229860755,no_tremor
411,7462626,2.826,0.08929160238223922,-0.11408814946276429,-1.2516208840057672,1.9436833180084863,-35.00552972229061,2.7336619926059598,no_tremor
412,7462631,2.831,0.08316077345076046,-0.11425920022997318,-1.2442622703994157,3.675022487760299,-33.311126304058234,3.1711931733938545,no_tremor
413,7462635,2.835,0.0770551643777668,-0.11456790044449701,-1.236277631964783,5.249177866536056,-31.488855186918975,3.53219303806067,no_tremor
414,7462640,2.84,0.07100431199122896,-0.1149990813258878,-1.227747084559098,6.668770626303221,-29.56573878683923,3.8196312920477946,no_tremor
415,7462645,2.845,0.06503541184201028,-0.11553804305621984,-1.2187500518902807,7.937087609246374,-27.567537247429538,4.036822042918226,no_tremor
416,7462650,2.85,0.059173306662421044,-0.11617064181274266,-1.2093648079598311,9.058035154122214,-25.518631518548922,4.187383574497882,no_tremor
417,7462655,2.855,0.05344049034197976,-0.11688336601456314,-1.1996680394394712,10.036090031691804,-23.441924518670533,4.2751975925225,no_tremor
418,7462660,2.86,0.04785712607064758,-0.11766340143915179,-1.1897344314322362,10.876248051377186,-21.35876027629309,4.304368296901735,no_tremor
419,7462684,2.884,0.04244107739551871,-0.11849868503719298,-1.1796362797266187,11.583970904395743,-19.288860782672177,4.279181621891717,no_tremor
420,7462689,2.889,0.03720795104890818,-0.11937794744215062,-1.1694431322862753,12.16513180340296,-17.250280138135853,4.204064969151844,no_tremor
421,7462694,2.894,0.03217115052417116,-0.12029074433196467,-1.159221462336873,12.625960465347948,-15.25937543547256,4.08354773883928,no_tremor
422,7462699,2.899,0.02734193948427443,-0.12122747695356983,-1.1490343750177665,12.972987962462204,-13.330793691964518,3.9222229400811592,no_tremor
423,7462704,2.904,0.022729514169100597,-0.1221794022659696,-1.138941349157716,13.212991935984443,-11.477474014113636,3.724710135252843,no_tremor
424,7462713,2.913,0.018341084008738705,-0.12313863329365786,-1.128998015312568,13.352942629687332,-9.710664058770842,3.495619944459932,no_tremor
425,7462718,2.918,0.01418195964963648,-0.1240981304074872,-1.1192559707762917,13.39995015804502,-8.039949747612027,3.2395203095013136,no_tremor
426,7462728,2.928,0.010255647564512926,-0.12505168436135505,-1.1097626318551403,13.361213379513174,-6.473297104874495,2.960904691628783,no_tremor
427,7462733,2.933,0.006563950356101631,-0.12599389200549949,-1.1005611232871102,13.243970700663324,-5.017105025326253,2.664162354959418,no_tremor
428,7462737,2.937,0.0031070717929109265,-0.12692012566512792,-1.0916902043027212,13.055453093039146,-3.6762677430654045,2.35355086715942,no_tremor
429,7462742,2.942,-0.00011627445193525786,-0.12782649721143266,-1.08318423046441,12.802839562806819,-2.454245761898837,2.0331709303617442,no_tremor
430,7462747,2.947,-0.0031087534343813635,-0.1287098178577128,-1.0750731500950952,12.493215274805719,-1.353144021452244,1.7069436373917848,no_tremor
431,7462752,2.952,-0.005874296034851897,-0.12956755468635467,-1.067382533814653,12.133532498189531,-0.3737961041850122,1.378590230457513,no_tremor
432,7462757,2.957,-0.008417985577759806,-0.13039778485587425,-1.0601336354474393,11.730574510271957,0.4841466685939291,1.051614420906604,no_tremor
433,7462761,2.961,-0.010745944968719542,-0.13119914835605667,-1.053343482344634,11.290922567580802,1.2221223530336491,0.7292873090771725,no_tremor
434,7462766,2.966,-0.012865225236086759,-0.13197080007909806,-1.0470249929810795,10.8209260274797,1.8425627577464825,0.41463492229968296,no_tremor
435,7462771,2.971,-0.014783696225968469,-0.13271236186129515,-1.0411871195359617,10.326675679088218,2.3487960682539546,0.11042836624900577,no_tremor
436,7462806,3.006,-0.01650994004283169,-0.13342387502902398,-1.0358350130483072,9.813980317598997,2.744948659151854,-0.1808234402235951,no_tremor
437,7462810,3.01,-0.01805314766614167,-0.13410575386120985,-1.0309702086498926,9.288346570515161,3.035846984533499,-0.45687850338548014,no_tremor
438,7462815,3.015,-0.01942301902737518,-0.13475874026737367,-1.026590828317472,8.754961957436327,3.2269203913072992,-0.7157640491361648,no_tremor
439,7462820,3.02,-0.020629666724170107,-0.13538385988687168,-1.0226917985508857,8.218681137337539,3.3241056500170787,-0.9557764804265915,no_tremor
440,7462825,3.025,-0.021683523494181015,-0.13598237974991464,-1.0192650803720515,7.68401527013809,3.3337539390598177,-1.1754791234645092,no_tremor
441,7462830,3.03,-0.0225952535674747,-0.13655576760560167,-1.0162999090520215,7.155124394365614,3.2625409505862586,-1.3736979039244057,no_tremor
442,7462840,3.04,-0.023375668044694518,-0.13710565301030542,-1.013783041010281,6.635812701167897,3.117380712731674,-1.54951510723297,no_tremor
443,7462845,3.045,-0.024035644486593045,-0.13763379027218262,-1.011699005393398,6.129526567310764,2.90534364621694,-1.7022613878913109,no_tremor
444,7462850,3.05,-0.02458605093148464,-0.13814202335625023,-1.0100303579292493,5.639355195837917,2.6335792956372974,-1.831506201090361,no_tremor
445,7462854,3.054,-0.025037674569853414,-0.138632252863392,-1.0087579347676214,5.168033702099076,2.3092440978048563,-1.9370468345933167,no_tremor
446,7462859,3.059,-0.0254011552946683,-0.1391064052018951,-1.0078611041557848,4.717948474213219,1.939434472236501,-2.0188962197019373,no_tremor
447,7462864,3.064,-0.025686924311752554,-0.13956640406949575,-1.0073180139548348,4.291144630068,1.5311254438386799,-2.0772696978427865,no_tremor
448,7462869,3.069,-0.025905147940428204,-0.14001414435671275,-1.0071058331739269,3.8893353870801644,1.091114936783119,-2.1125709150234866,no_tremor
449,7462873,3.073,-0.02606567666635296,-0.14045146856874463,-1.0072009858790718,3.513913155991169,0.6259738127163428,-2.1253770108814507,no_tremor
450,7462878,3.078,-0.026177999432592622,-0.1408801458442743,-1.0075793760151308,3.165962166239328,0.14200166652500393,-2.1164232627778166,no_tremor
451,7462888,3.088,-0.026251203078318405,-0.141301853626324,-1.008216601858903,2.8462724282567504,-0.35481166053153673,-2.0865873389735685,no_tremor
452,7462892,3.092,-0.026293936763951503,-0.1417181620139967,-1.0090881589936287,2.5553548376409405,-0.8588189369430278,-2.0368733089903475,no_tremor
453,7462897,3.097,-0.026314381164184483,-0.14213052079551464,-1.0101696308581773,2.2934572280654897,-1.3647428921785503,-1.9683955540261844,no_tremor
454,7462902,3.102,-0.026320222173030466,-0.14254024913314423,-1.011436866076791,2.0605811846698865,-1.867698220864741,-1.8823627152458424,no_tremor
455,7462927,3.127,-0.026318628853127374,-0.14294852783979464,-1.012866141918753,1.8564994375958688,-2.3632084226571046,-1.7800618119032512,no_tremor
456,7462932,3.132,-0.02631623537633139,-0.14335639415551388,-1.0144343133753722,1.6807736656266117,-2.8472176795407003,-1.6628426538889474,no_tremor
457,7462937,3.137,-0.026319126740211897,-0.14376473890008118,-1.0161189474806138,1.5327725516465562,-3.316097988538644,-1.5321026644583036,no_tremor
458,7462942,3.142,-0.0263328280963972,-0.1441743058461398,-1.0178984426494762,1.4116899443866187,-3.7666517857123485,-1.389272218895931,no_tremor
459,7462947,3.147,-0.02636229758022407,-0.14458569312704797,-1.0197521329701766,1.3165629946387416,-4.196110319664031,-1.2358005937616838,no_tremor
460,7462952,3.152,-0.026411922576338648,-0.14499935646637446,-1.0216603775611017,1.2462901488857392,-4.602128058534889,-1.073142609196364,no_tremor
461,7462956,3.156,-0.026485519385098435,-0.1454156139932725,-1.023604635283326,1.1996488986169176,-4.982773440227155,-0.9027460340855901,no_tremor
462,7462962,3.162,-0.02658633626739906,-0.1458346523912395,-1.0255675252733993,1.1753131982691014,-5.336516297886657,-0.7260398114646052,no_tremor
463,7462966,3.166,-0.02671705984170229,-0.1462565341181441,-1.0275328739185938,1.1718704775531859,-5.662212309581772,-0.5444231497292404,no_tremor
464,7462971,3.171,-0.026879824789389543,-0.14668120543365598,-1.029485749029324,1.1878381844810808,-5.959084831695152,-0.3592555138193978,no_tremor
465,7462976,3.176,-0.02707622679700392,-0.14710850497669378,-1.0314124820646313,1.2216798038347365,-6.226704479405846,-0.1718475395391195,no_tremor
466,7462981,3.181,-0.027307338630833417,-0.14753817265006217,-1.0333006793324173,1.2718203023632118,-6.464966814813272,0.016547115737497172,no_tremor
467,7462986,3.186,-0.027573729204996265,-0.14796985859144313,-1.0351392231149912,1.3366609570330736,-6.67406849444672,0.20473898063868853,no_tremor
468,7462991,3.191,-0.02787548547268302,-0.14840313203830546,-1.0369182636635523,1.4145935266011702,-6.854482214471798,0.39160903624324983,no_tremor
469,7462995,3.195,-0.02821223694458144,-0.14883748992780235,-1.038629202966182,1.5040137297140634,-7.006930775383382,0.5761140470735733,no_tremor
470,7463000,3.2,-0.02858318262042868,-0.14927236510988756,-1.0402646711288714,1.6033339945226952,-7.132360569663976,0.7572909674395035,no_tremor
471,7463005,3.205,-0.028987120109008023,-0.14970713409112926,-1.0418184961260262,1.7109954455175298,-7.231914776802944,0.9342604389811745,no_tremor
472,7463010,3.21,-0.029422476707026267,-0.15014112426641635,-1.0432856675846565,1.825479093391934,-7.3069065309284955,1.106229399688962,no_tremor
473,7463014,3.214,-0.02988734220541613,-0.15057362063432125,-1.0446622951739968,1.9453161938500618,-7.358792307430458,1.2724928285670174,no_tremor
474,7463020,3.22,-0.03037950318954787,-0.15100387202775412,-1.0459455620878357,2.069097741935219,-7.389145756516301,1.4324346538415391,no_tremor
475,7463024,3.224,-0.03089647859460014,-0.15143109692320364,-1.047133674037329,2.1954830698627252,-7.399632194110604,1.5855278563804411,no_tremor
476,7463050,3.25,-0.031435556266578873,-0.15185448891783934,-1.0482258041230386,2.3232075182035548,-7.39198394475473,1.7313338039798327,no_tremor
477,7463054,3.254,-0.03199383026217694,-0.15227322198266457,-1.0492220339299558,2.451089152249883,-7.367976717820105,1.869500856598793,no_tremor
478,7463060,3.26,-0.03256823859814875,-0.152686455610623,-1.0501232911890637,2.5780344978230567,-7.3294071866011645,1.999762287123825,no_tremor
479,7463064,3.264,-0.03315560113719194,-0.15309333998053018,-1.0509312843704028,2.7030432743857813,-7.278071927003728,2.121933565845956,no_tremor
480,7463069,3.269,-0.033752657278057194,-0.1534930212513045,-1.0516484346087354,2.8252121081938535,-7.215747855599909,2.235909058841421,no_tremor
481,7463074,3.274,-0.03435610310756442,-0.15388464708756566,-1.052277805405085,2.943737213667559,-7.14417428475694,2.34165819114591,no_tremor
482,7463079,3.279,-0.03496262767413917,-0.15426737249912198,-1.0528230305875768,3.057916036615808,-7.065036686491005,2.439221126000599,no_tremor
483,7463089,3.289,-0.035568948057277,-0.15464036605491424,-1.0532882410473507,3.1671478585208876,-6.97995222831996,2.528704012286742,no_tremor
484,7463093,3.293,-0.03617184293451439,-0.1550028165078415,-1.0536779907868574,3.270933367239773,-6.890457115150009,2.610273853377167,no_tremor
485,7463098,3.298,-0.036768184385183034,-0.15535393984125478,-1.0539971828282109,3.3688732066777853,-6.797995742970269,2.684153051202533,no_tremor
486,7463103,3.303,-0.03735496771497484,-0.15569298672107834,-1.0542509955302048,3.4606655267429103,-6.7039116452409635,2.7506136789842497,no_tremor
487,7463108,3.308,-0.03792933913219884,-0.15601925030958574,-1.0544448098573926,3.5461025656691234,-6.609440193337236,2.8099715355913744,no_tremor
488,7463112,3.312,-0.038488621149971015,-0.15633207436784088,-1.0545841381369925,3.625066309903387,-6.515702998807764,2.862580035091523,no_tremor
489,7463118,3.318,-0.03903033562337857,-0.15663086154384492,-1.0546745548327046,3.697523291951282,-6.423703956593041,2.90882398719487,no_tremor
490,7463122,3.322,-0.03955222435322953,-0.1569150817128938,-1.0547216298611297,3.7635186026673493,-6.334326863186218,2.949113327282821,no_tremor
491,7463132,3.332,-0.04005226719640059,-0.15718428020627082,-1.0547308649774696,3.823169209633262,-6.248334540748595,2.983876857955411,no_tremor
492,7463137,3.337,-0.040528697616875865,-0.15743808573532458,-1.054707633762045,3.876656686288788,-6.166369396357542,3.013556067441328,no_tremor
493,7463142,3.342,-0.04098001559301687,-0.15767621779193436,-1.0546571257454873,3.9242194673408095,-6.088955343343499,3.0385990933429134,no_tremor
494,7463147,3.347,-0.041404997769003096,-0.15789849328566666,-1.0545842952139162,3.9661447548510105,-6.0165010072131615,3.059454901688581,no_tremor
495,7463171,3.371,-0.041802704707054286,-0.15810483216513987,-1.0544938152306735,4.002760205743954,-5.949304131020638,3.076567749938616,no_tremor
496,7463176,3.376,-0.04217248506874217,-0.1582952617685402,-1.0543900373929829,4.034425534498675,-5.887557084994349,3.09037199859374,no_tremor
497,7463181,3.381,-0.04251397653619321,-0.15846991965783097,-1.0542769578054227,4.061524164442496,-5.831353374580884,3.101287330590027,no_tremor
498,7463186,3.386,-0.04282710328477824,-0.1586290547145833,-1.0541581896933894,4.084455058107909,-5.780695031652029,3.1097144317744925,no_tremor
499,7463191,3.391,-0.04311206984252079,-0.1587730263129956,-1.0540369429973466,4.1036248523435335,-5.735500766628778,3.1160311798153244,no_tremor
500,7463195,3.395,-0.04336935121737151,-0.1589023014359395,-1.053916011185415,4.119440417600068,-5.695614754888533,3.120589382926356,no_tremor
501,7463200,3.4,-0.04359967923688202,-0.1590174496593412,-1.0537977654038815,4.132301953035585,-5.6608159282091375,3.1237121038120064,no_tremor
502,7463205,3.405,-0.04380402511961999,-0.15911913599501976,-1.0536841559592982,4.142596719793457,-5.630827640084951,3.1256915984164992,no_tremor
503,7463210,3.41,-0.0439835783789129,-0.15920811164898507,-1.0535767209973679,4.1506935038162345,-5.605327572084021,3.1267878934011537,no_tremor
504,7463215,3.415,-0.04413972224388566,-0.15928520281868203,-1.0534766021162314,4.156937886351179,-5.583957747269517,3.127228020140836,no_tremor
505,7463220,3.42,-0.044274005868414325,-0.15935129771691495,-1.0533845665268318,4.161648384602654,-5.566334516479924,3.1272059150762184,no_tremor
