sample,t_ms,t_s,ax,ay,az,gx,gy,gz,tremor
0,9229262,0.0,-0.27140846000451563,-0.04974375114807809,-0.998815223556192,-0.893721975312013,8.007286552121673,2.171040578620989,tremor
1,9229267,0.005,-0.27088260379311374,-0.0498116884602349,-0.9997173901435712,-0.8410985912290327,7.821566380013081,2.0878371930361923,tremor
2,9229297,0.035,-0.2701299070618236,-0.049904738866951986,-1.0009634998572174,-0.7906641149192691,7.514680107480068,2.0226441350063324,tremor
3,9229323,0.061,-0.2691196375214667,-0.05002400865640277,-1.0025783439215552,-0.7425870385827873,7.079833767118417,1.976532678987426,tremor
4,9229327,0.065,-0.26786145961510544,-0.050165458648814415,-1.0045208322856878,-0.6970095098535679,6.510756930750758,1.9504484966678517,tremor
5,9229343,0.081,-0.2663912873431557,-0.050322268603341914,-1.0067139222914665,-0.6540441570355506,5.801780455849014,1.9451966961948948,tremor
6,9229377,0.115,-0.26475537540796834,-0.05048701680545334,-1.0090727596587163,-0.6137710520548978,4.947912947272272,1.9614276366361147,tremor
7,9229382,0.12,-0.26300054969902936,-0.050652839318586676,-1.0115198547967055,-0.5762348461856384,3.9449150910317723,1.9996237137629744,tremor
8,9229386,0.124,-0.2611701916420704,-0.05081379067300389,-1.0139899388547988,-0.541442105388544,2.7893709750442466,2.060087311654353,tremor
9,9229396,0.134,-0.2593035968465025,-0.05096479457366979,-1.0164294391195707,-0.5093588665726796,1.478755474748488,2.1429301100961946,tremor
10,9229401,0.139,-0.25743675904747376,-0.05110145468319984,-1.018794059602248,-0.4799084346298332,0.011496752147681368,2.2480639297569787,tremor
11,9229405,0.143,-0.25560349472827604,-0.0512198581458589,-1.0210462027870748,-0.45296944182322085,-1.6129671040687066,2.3751932856129394,tremor
12,9229421,0.159,-0.25383644368047414,-0.05131641927918227,-1.0231528678676238,-0.4283741940709825,-3.3941382824892097,2.523809804371515,tremor
13,9229436,0.174,-0.2521678068937668,-0.05138777092866248,-1.0250841386017984,-0.4059073316038036,-5.330417285750682,2.6931886443945765,tremor
14,9229440,0.178,-0.25062982196536504,-0.05143069650797865,-1.026812180771154,-0.3853048344226668,-7.419069780050586,2.882387037978045,tremor
15,9229450,0.188,-0.249255021308063,-0.05144209269789857,-1.028310625554585,-0.36625340634000075,-9.656203213154498,3.090245056854217,tremor
16,9229455,0.193,-0.24807632409549168,-0.05141895387472489,-1.0295542267810804,-0.34839027487036095,-12.036754116337795,3.3153886829028796,tremor
17,9229460,0.198,-0.24712700515822145,-0.05135837143188459,-1.0305187057503682,-0.3313034468101429,-14.5544869511669,3.556235247184155,tremor
18,9229510,0.248,-0.24644057379244858,-0.05125754310263835,-1.0311807218449847,-0.3145324600003113,-17.20200529596832,3.811001281364743,tremor
19,9229538,0.276,-0.2460505864690335,-0.05111378889138373,-1.0315179263236403,-0.29756967010815355,-19.970776090745968,4.077712806503073,tremor
20,9229554,0.292,-0.24599041062074917,-0.050924571286311074,-1.0315090703971814,-0.27986210744435297,-22.85116757247565,4.354218065240798,tremor
21,9229558,0.296,-0.2462929518782348,-0.05068751815182426,-1.031134148037137,-0.26081393314075174,-25.83250143206171,4.638202684588558,tremor
22,9229573,0.311,-0.24699035388429036,-0.050400447181688283,-1.0303745601497896,-0.23978951653864586,-28.903119605597617,4.927207236641101,tremor
23,9229588,0.326,-0.24811367771452367,-0.050061391108315666,-1.0292132907498015,-0.2161171463050395,-32.05046597306004,5.218647141992225,tremor
24,9229593,0.331,-0.24969256663035988,-0.04966862306255599,-1.0276350883149872,-0.18909337678651908,-35.26118307707428,5.509834834176818,tremor
25,9229632,0.37,-0.2517549011391808,-0.04922068159766248,-1.025626647108449,-0.15798799896302493,-38.521223794627204,5.798004073315766,tremor
26,9229642,0.38,-0.2543264489589598,-0.048716394955574664,-1.0231767842589334,-0.12204961256449914,-41.81597769704251,6.080336263958106,tremor
27,9229647,0.385,-0.25743051435409253,-0.04815490418152877,-1.0202766090151663,-0.08051176277556055,-45.130411617805386,6.353988595638522,tremor
28,9229678,0.416,-0.261087591330802,-0.0475356846990173,-1.0169196809707084,-0.03259959196795593,-48.449223711400705,6.61612378364238,tremor
29,9229693,0.431,-0.2653150252855148,-0.04685856595383512,-1.0131021542757097,0.022463055104830442,-51.75701002609394,6.863941141222574,tremor
30,9229712,0.45,-0.27012668784268273,-0.04612374873458912,-1.0088229049653157,0.08544614437589196,-55.03844232829184,7.094708663938183,tremor
31,9229727,0.465,-0.27553266977363045,-0.045331819788118545,-1.0040836385801528,0.15710566359521225,-58.27845560617828,7.30579575342622,tremor
32,9229758,0.496,-0.281538997040389,-0.0444837633800762,-0.998888975260353,0.23817561826189176,-61.46244334389128,7.494706153004263,tremor
33,9229763,0.501,-0.28814737514844657,-0.04358096950556931,-0.9932465094820477,0.3293599061438935,-64.5764582896283,7.659110613020452,tremor
34,9229768,0.506,-0.29535496711191567,-0.04262523852549846,-0.9871668415937305,0.4313241708094177,-67.60741604205725,7.7968787542990645,tremor
35,9229772,0.51,-0.3031542104236422,-0.04161878207806366,-0.9806635783215194,0.5446877385416098,-70.54329836450951,7.906109559617856,tremor
36,9229782,0.52,-0.3115326784652858,-0.04056422017954652,-0.9737532994707854,0.6700157426414382,-73.37335273275086,7.98515990062018,tremor
37,9229786,0.524,-0.3204729917654145,-0.039464574478176,-0.9664554881775844,0.8078115347346715,-76.08828425748,8.032670502081881,tremor
38,9229791,0.529,-0.32995278438810105,-0.03832325766095869,-0.9587924222734355,0.9585094752779656,-78.68043582229993,8.047588755914939,tremor
39,9229796,0.534,-0.3399447304774017,-0.03714405904092801,-0.9507890246359413,1.1224681853688774,-81.14395206653056,8.02918782227688,tremor
40,9229805,0.543,-0.3504166355627817,-0.035931126377161296,-0.9424726708193787,1.2999643289956309,-83.47492273939665,7.9770814933759535,tremor
41,9229810,0.548,-0.3613315966222603,-0.03468894400712532,-0.9338729528057435,1.4911869787936791,-85.6715009678388,7.891234346105393,tremor
42,9229820,0.558,-0.372648234086225,-0.03342230740385934,-0.9250213983988642,1.6962325989850162,-87.73399212417033,7.771966773026495,tremor
43,9229824,0.562,-0.3843209979319416,-0.032136294310300434,-0.9159511466139233,1.9151006565755744,-89.66490927144362,7.619954559809229,tremor
44,9229829,0.567,-0.3963005487578058,-0.030836232647879436,-0.9066965804022354,2.1476898481370847,-91.46899162605865,7.436222774015307,tremor
45,9229834,0.572,-0.4085342132380094,-0.029527665441853455,-0.8972929191982759,2.3937949093637747,-93.15318311873665,7.222133846937474,tremor
46,9229839,0.577,-0.42096651165530746,-0.028216313045980913,-0.8877757750705337,2.653103963441599,-94.72656894831036,6.979369866906996,tremor
47,9229849,0.587,-0.4335397533130724,-0.02690803297906544,-0.8781806776721962,2.9251963654330084,-96.20026899039424,6.709909256793648,tremor
48,9229876,0.614,-0.4461946935620699,-0.0256087777023591,-0.8685425746776732,3.2095410138692215,-97.58728803123384,6.415998175994703,tremor
49,9229881,0.619,-0.458871243974483,-0.024324550669124607,-0.8588953158853089,3.505495124739974,-98.90232403894282,6.100117160789132,tremor
50,9229886,0.624,-0.4715092249175567,-0.023061360969305025,-0.8492711305492053,3.8123034900788966,-100.16153704639932,5.764943685815545,tremor
51,9229891,0.629,-0.48404914752746986,-0.021825176882257255,-0.8397001086149398,4.129098264789721,-101.38228266250051,5.413311481473184,tremor
52,9229896,0.634,-0.49643301000031437,-0.02062187865131066,-0.8302096972224182,4.454899337886919,-102.58281567898662,5.048167567335191,tremor
53,9229910,0.648,-0.5086050913409452,-0.01945721081597939,-0.8208242240224566,4.788615352885019,-103.78197060766665,4.672528052500702,tremor
54,9229915,0.653,-0.520512724367145,-0.018336734484777035,-0.8115644585359088,5.129045454373342,-104.99882716495607,4.289433799858307,tremor
55,9229920,0.658,-0.5321070289901255,-0.017265779999337417,-0.802447222013122,5.474881857254525,-106.25236958652565,3.9019070385879413,tremor
56,9229925,0.663,-0.5433435867427725,-0.01624940051764083,-0.7934850550781597,5.82471335988289,-107.56114905500061,3.5129099297507818,tremor
57,9229929,0.667,-0.5541830383543938,-0.015292327115926017,-0.7846859509173492,6.177029948282457,-108.9429583602334,3.1253059508886256,tremor
58,9229939,0.677,-0.5645915879584119,-0.014398926061445591,-0.7760531599600962,6.530228660546988,-110.41452719443828,2.74182478610711,tremor
59,9229944,0.682,-0.5745414002702837,-0.013573158931027117,-0.7675850699816986,6.882620890820735,-111.99124529225695,2.3650312051377824,tremor
60,9229949,0.687,-0.5840108807356439,-0.012818546237251717,-0.7592751634158099,7.232441299767957,-113.68691903171603,1.9972981976119006,tremor
61,9229958,0.696,-0.5929848331320788,-0.012138135174550469,-0.751112051472633,7.577858450446895,-115.51356516936833,1.6407844053957052,tremor
62,9229968,0.706,-0.6014544942646224,-0.011534472019488352,-0.7430795824826119,7.9169871955221165,-117.48124316919628,1.2974156812763946,tremor
63,9229999,0.737,-0.6094174509828622,-0.011009579632035572,-0.7351570197893118,8.247902702104355,-119.59792524762221,0.9688704183598051,tremor
64,9230009,0.747,-0.6168774503579024,-0.010564940438653324,-0.7273192825938023,8.568655827438027,-121.86940104628303,0.6565681642434842,tremor
65,9230014,0.752,-0.6238441188413288,-0.010201485267704879,-0.7195372415687432,8.877289390715376,-124.29921211565943,0.3616609756746042,tremor
66,9230019,0.757,-0.6303326097765234,-0.009919588469376866,-0.7117780600351822,9.171854780630222,-126.88861049702541,0.08502699093593842,tremor
67,9230024,0.762,-0.6363632001080071,-0.009719069864576817,-0.7040055712107717,9.450428333292235,-129.63653575640302,-0.17273420958249688,tremor
68,9230029,0.767,-0.6419608564132513,-0.009599204173892114,-0.6961806825217319,9.711126999250332,-132.53960566351614,-0.4113047427620956,tremor
69,9230033,0.771,-0.647154787859096,-0.009558738614136301,-0.6882617990805096,9.95212294557454,-135.5921169808426,-0.6306501885341069,tremor
70,9230039,0.777,-0.6519779999875877,-0.00959591927131866,-0.680205259941893,10.171656867689197,-138.78605426364678,-0.831019948211991,tremor
71,9230043,0.781,-0.6564668589566169,-0.009708526650719003,-0.6719657824405086,10.368049895946198,-142.11110602687998,-1.0129460165641946,tremor
72,9230048,0.786,-0.660660671468748,-0.00989392047947905,-0.6634969115960765,10.539714068228012,-145.55468902387213,-1.1772398686856949,tremor
73,9230053,0.791,-0.6646012814728572,-0.010149093424889021,-0.6547514730989568,10.685161402512145,-149.1019826319396,-1.3249870737715774,tremor
74,9230058,0.796,-0.6683326810880881,-0.010470732933084233,-0.6456820296347248,10.80301164641616,-152.73597638735126,-1.4575391932436563,tremor
75,9230063,0.801,-0.6719006302890035,-0.010855289934932247,-0.6362413411715742,10.891998811506838,-156.43753450459423,-1.5765025027800768,tremor
76,9230068,0.806,-0.6753522778700598,-0.011299052756705586,-0.6263828302388549,10.950976626433338,-160.18548170538148,-1.6837231025179746,tremor
77,9230078,0.816,-0.678735775192248,-0.011798224255516642,-0.6160610531224993,10.978923069245532,-163.9567148187489,-1.7812680568484693,tremor
78,9230083,0.821,-0.6820998742654929,-0.012349000004187349,-0.6052321772927904,10.974944163004055,-167.7263443320394,-1.8714023432750784,tremor
79,9230088,0.826,-0.6854935028586829,-0.012947645293569328,-0.5938544643082002,10.938277230063369,-171.46786930421482,-1.956561588027885,tremor
80,9230093,0.831,-0.6889653115566672,-0.013590568805058555,-0.5818887559896138,10.868293787942763,-175.15338774840217,-2.0393208089333554,tremor
81,9230129,0.867,-0.6925631909583619,-0.014274391021157195,-0.5692989599451684,10.764502227565119,-178.75384277514343,-2.1223596430848137,tremor
82,9230134,0.872,-0.6963337613522971,-0.014996005762105361,-0.556052528698017,10.626550344539703,-182.23930262273333,-2.2084247694229786,tremor
83,9230139,0.877,-0.7003218417642627,-0.015752633624993313,-0.5421209249461112,10.454227710098868,-185.57927051300496,-2.3002904083168105,tremor
84,9230144,0.882,-0.7045699095050604,-0.016541866517077407,-0.5274800641527794,10.247467800825705,-188.74301847121936,-2.400717870605745,tremor
85,9230163,0.901,-0.709117564464061,-0.017361702879780363,-0.5121107250001062,10.006349787900959,-191.69993812112267,-2.5124151377774915,tremor
86,9230168,0.906,-0.7140010139009528,-0.01821057356374921,-0.49599891836138077,9.731099926373574,-194.41990102299303,-2.637997398119976,tremor
87,9230173,0.911,-0.7192525933086777,-0.019087358610961832,-0.47913620630592796,9.422092563992594,-196.87362120523082,-2.779949357349613,tremor
88,9230178,0.916,-0.7249003372755821,-0.019991395399843886,-0.46151996405510287,9.079850877111143,-199.03301299851535,-2.9405899999326057,tremor
89,9230183,0.921,-0.730967611533303,-0.020922478695535273,-0.4431535795346357,8.70504751175464,-200.87153800526352,-3.1220403148448477,tremor
90,9230187,0.925,-0.7374728139789498,-0.02188085312469401,-0.42404658700202685,8.29850534532385,-202.36453590561817,-3.3261943364329047,tremor
91,9230192,0.93,-0.7444291488480325,-0.022867198492071625,-0.4042147329960001,7.861198583670517,-203.489534691277,-3.5546937043012337,tremor
92,9230197,0.935,-0.7518444747648945,-0.023882608217228422,-0.38367997443329,7.394254371016751,-204.22653674142978,-3.808905825165396,tremor
93,9230211,0.949,-0.7597212243924837,-0.02492856103844368,-0.3624704099834827,6.898955019050369,-204.55827785926027,-4.089905628787298,tremor
94,9230221,0.959,-0.7680563910448428,-0.026006886049385978,-0.34062014683691866,6.376740857987343,-204.47045694145064,-4.398460853733859,tremor
95,9230248,0.986,-0.7768415760616797,-0.027119721143843444,-0.3181691056253428,5.829213579815503,-203.95193434301052,-4.735020780752414,tremor
96,9230253,0.991,-0.7860630900628296,-0.028269465078586624,-0.2951627665800573,5.2581397963174235,-202.99489724477638,-5.099708348702805,tremor
97,9230257,0.995,-0.7957021013648085,-0.029458723627762494,-0.2716518600983279,4.665454402366962,-201.5949904994935,-5.492315622989588,tremor
98,9230263,1.001,-0.8057348256365124,-0.030690250647706484,-0.2476920048771427,4.053263254579935,-199.75141162519031,-5.9123026136538845,tremor
99,9230268,1.006,-0.8161327519601936,-0.03196688521637416,-0.22334329681526083,3.4238446644540157,-197.46696890718096,-6.358799441923645,tremor
100,9230273,1.011,-0.8268629015306229,-0.03329148627867022,-0.19866985207390123,2.7796492520972067,-194.74810197038764,-6.830611829443164,tremor
101,9230277,1.015,-0.8378881160661078,-0.034666866371803245,-0.17373930803950513,2.123297785007697,-191.60486465013463,-7.326229843791844,tremor
102,9230282,1.02,-0.8491673735293749,-0.03609572601017107,-0.14862228641446923,1.4575767146191543,-188.05087047495644,-7.843839787904688,tremor
103,9230287,1.025,-0.8606561289518471,-0.03758059018645263,-0.1233918232222403,0.7854312111071173,-184.10320154662233,-8.381339077092672,tremor
104,9230292,1.03,-0.8723066780585497,-0.03912374821774142,-0.09812277109967618,0.10995558075583138,-179.78228204120185,-8.93635391084773,tremor
105,9230297,1.035,-0.8840685410692409,-0.04072719786326459,-0.07289117981366686,-0.5656189713893833,-175.11171795185203,-9.506259521394515,tremor
106,9230301,1.039,-0.8958888635868462,-0.04239259429664814,-0.047773661435724216,-1.237939199054343,-170.11810504823958,-10.08820276878955,tremor
107,9230306,1.044,-0.9077128309680421,-0.04412120416402386,-0.0228467469968777,-1.9035471936377872,-164.83080734175059,-10.679126851861783,tremor
108,9230311,1.049,-0.9194840920955076,-0.04591386463094616,0.0018137583058068368,-2.55890012864795,-159.28170862277105,-11.275797910792994,tremor
109,9230321,1.059,-0.9311451881189362,-0.04777094704308721,0.02613341418736342,-3.200392162812364,-153.50493987834187,-11.874833304074917,tremor
110,9230326,1.064,-0.9426379815626243,-0.04969232461862497,0.05003977154193577,-3.824378249058241,-147.53658560552034,-12.472731343521342,tremor
111,9230331,1.069,-0.9539040812478445,-0.05167734346922888,0.0734629790296624,-4.427199556557807,-141.41437220456405,-13.06590226197156,tremor
112,9230336,1.074,-0.9648852587639694,-0.05372479622272667,0.09633636349766349,-5.005210181285232,-135.17734176162912,-13.650700169344404,tremor
113,9230346,1.084,-0.9755238527356676,-0.05583289759969071,0.11859697828027153,-5.554804798895655,-128.8655146131077,-14.223455727634118,tremor
114,9230371,1.109,-0.9857631578369851,-0.05799926147562679,0.14018611407818218,-6.072446902356665,-122.51954413247628,-14.780509250132509,tremor
115,9230376,1.114,-0.9955477963258229,-0.060220879227311695,0.16104976785160727,-6.554697264574648,-116.18036720975684,-15.318243910356081,tremor
116,9230381,1.119,-1.004824070709076,-0.06249409949202873,0.18113906592073897,-6.998242271882703,-109.88885391383911,-15.833118735256058,tremor
117,9230386,1.124,-1.0135402968721072,-0.06481460982722116,0.20041063818358282,-7.399921786773541,-103.68545984166929,-16.321701053903737,tremor
118,9230391,1.129,-1.0216471175019064,-0.06717742110658814,0.2188269409817324,-7.756756218037236,-97.60988466290077,-16.780698070066023,tremor
119,9230396,1.134,-1.0290977958379015,-0.06957685579420177,0.23635652664013782,-8.065972504375532,-91.70074036121501,-17.206987216173992,tremor
120,9230401,1.139,-1.0358484896924638,-0.07200654147860232,0.2529742580807285,-8.325028752175447,-85.99523265277173,-17.59764492270485,tremor
121,9230410,1.148,-1.041858505327473,-0.07445941120883887,0.2686614671923554,-8.531637304325372,-80.52885902122146,-17.949973403745958,tremor
122,9230420,1.158,-1.0470905302119573,-0.0769277122416977,0.2834060558809559,-8.683786048747582,-75.33512672433775,-18.261525025167366,tremor
123,9230425,1.163,-1.0515108430104787,-0.0794030247730838,0.2972025389894899,-8.779757800235226,-70.44529395375535,-18.530123799759803,tremor
124,9230430,1.168,-1.055089498500077,-0.08187629207862346,0.3100520286413262,-8.818147609533812,-65.88813700490222,-18.753883561507763,tremor
125,9230434,1.172,-1.0578004846551268,-0.08433786322789902,0.3219621600870995,-8.797877873100273,-61.68974579169474,-18.9312224254704,tremor
126,9230439,1.177,-1.0596218490318525,-0.08677754917454202,0.33294695984831213,-8.718211136656636,-57.87334932395468,-19.060873246181963,tremor
127,9230444,1.182,-1.060535791926618,-0.08918469258586632,0.34302665782130354,-8.578760504137625,-54.459171915451655,-19.141889936286184,tremor
128,9230449,1.187,-1.060528724600878,-0.09154825129579407,0.35222744595880023,-8.379497580621496,-51.46431999263661,-19.173649679334915,tremor
129,9230459,1.197,-1.0595912921236152,-0.09385689478192952,0.3605811870898889,-8.120757895913451,-48.902698509678785,-19.155851246586924,tremor
130,9230464,1.202,-1.0577183619827923,-0.09609911261825911,0.36812507828014623,-7.803243778736227,-46.78495521976628,-19.088509788402387,tremor
131,9230468,1.206,-1.0549089813984664,-0.09826333347046229,0.37490127378801674,-7.428024683935336,-45.118450486521056,-18.971948595813597,tremor
132,9230504,1.242,-1.051166308003972,-0.10033805290494568,0.380956473072944,-6.996535018545926,-43.90725002071479,-18.806788396521377,tremor
133,9230509,1.247,-1.046497519971142,-0.10231196808587782,0.38634147941826813,-6.510569561802328,-43.15213793946041,-18.593934750837107,tremor
134,9230514,1.252,-1.040913712439788,-0.104174117325654,0.3911107345631721,-5.972276613076055,-42.850647853627024,-18.3345640531776,tremor
135,9230519,1.257,-1.0344297870067098,-0.10591402240023987,0.39532183436450713,-5.38414901075019,-42.997110229030646,-18.030108544190625,tremor
136,9230524,1.262,-1.0270643399336377,-0.10752183150076261,0.39903503003052704,-4.7490131384821765,-43.58271493950352,-17.682240621918915,tremor
137,9230528,1.266,-1.018839552801924,-0.10898846063760878,0.4023127189720799,-4.070015987761087,-44.59558862754223,-17.292856627018708,tremor
138,9230533,1.271,-1.0097810869283506,-0.11030573123563132,0.4052189288592354,-3.3506102980986734,-46.020887124797085,-16.864060177877075,tremor
139,9230538,1.276,-0.9999179803521622,-0.11146650156895024,0.4078187980846286,-2.594537760810464,-47.84090371073101,-16.398145050459068,tremor
140,9230543,1.281,-0.9892825439232552,-0.11246478960154865,0.4101780555393458,-1.8058102522398711,-50.035194378658126,-15.897577535285198,tremor
141,9230548,1.286,-0.9779102511845531,-0.1132958847505183,0.4123625024168832,-0.9886890578097084,-52.58072151740646,-15.36497815976507,tremor
142,9230552,1.29,-0.9658396154890645,-0.11395644609733162,0.41443749868193436,-0.14766205911696417,-55.452017489688124,-14.803102638597752,tremor
143,9230557,1.295,-0.953112047196342,-0.11444458465874284,0.4164674568712088,0.7125811199384622,-58.62136948394262,-14.214821909701248,tremor
144,9230562,1.3,-0.9397716838620073,-0.11475992750486444,0.4185153460227641,1.5871759799556886,-62.059026729649254,-13.603101130388398,tremor
145,9230566,1.304,-0.9258651870241773,-0.11490366178177083,0.4206422087406392,2.4711119625211326,-65.7334306994358,-12.970977550096297,tremor
146,9230571,1.309,-0.9114415004281201,-0.11487855705671413,0.4229066946680964,3.359263118097408,-69.61146828655878,-12.321537242502675,tremor
147,9230576,1.314,-0.8965515662274627,-0.11468896484633649,0.42536461393438213,4.2464204936874745,-73.65874716454779,-11.6578907697013,tremor
148,9230581,1.319,-0.8812479977625125,-0.11434079469715756,0.4280685144207719,5.127326078566639,-77.83989163564695,-10.983147959060105,tremor
149,9230585,1.323,-0.8655847098454006,-0.11384146674379965,0.43106728692351637,5.996708121790392,-82.11885629077952,-10.300392090204337,tremor
150,9230590,1.328,-0.8496165099764528,-0.113199841251886,0.4344058024361684,6.849317617311368,-86.45925377748208,-9.612653903540991,tremor
151,9230615,1.353,-0.8333986564684015,-0.11242612623585502,0.43812458579656754,7.679965739580154,-90.82469195794958,-8.922885941163157,tremor
152,9230620,1.358,-0.8169863919256513,-0.11153176480100024,0.4422595298142486,8.483561999286778,-95.17911482377296,-8.233937804030681,tremor
153,9230625,1.363,-0.8004344626989487,-0.11052930436153476,0.4468416536891956,9.25515286790489,-99.48714085741017,-7.548532941316554,tremor
154,9230630,1.368,-0.78379663651562,-0.10943225029507575,0.45189690904402,9.989960583870278,-103.71439225239489,-6.869247563909775,tremor
155,9230635,1.373,-0.7671252311997347,-0.1082549068791763,0.45744603623497443,10.683421800792122,-107.82780859931061,-6.198492191333798,tremor
156,9230640,1.378,-0.7504706671353285,-0.1070122085103489,0.4635044728255576,11.331225675717647,-111.79593924124394,-5.538496215808552,tremor
157,9230645,1.383,-0.7338810549749926,-0.10571954424578586,0.4700823152551068,11.929350935541873,-115.58920935089229,-4.891295724394783,tremor
158,9230650,1.388,-0.7174018282558097,-0.1043925786572536,0.477184333862634,12.4741014142567,-119.18015575763643,-4.258724680986716,tremor
159,9230654,1.392,-0.7010754282802485,-0.10304707186744304,0.48481004056701965,12.962139531130317,-122.5436295867667,-3.6424094461547174,tremor
160,9230659,1.397,-0.6849410460630478,-0.10169870146717266,0.49295380767900454,13.390517184907898,-125.656963821248,-3.04376650936536,tremor
161,9230663,1.401,-0.669034423527355,-0.10036288879775314,0.5016050355407299,13.756703573793343,-128.5001049191902,-2.4640032246019143,tremor
162,9230668,1.406,-0.6533877136247587,-0.0990546318337337,0.5107483659642034,14.058609513199375,-131.05570857546527,-1.9041212736755024,tremor
163,9230673,1.411,-0.6380293968036642,-0.09778834662293362,0.520363937781278,14.29460790538147,-133.30920056243278,-1.3649225301600665,tremor
164,9230678,1.416,-0.6229842493854852,-0.0965777189389437,0.5304276802398801,14.46355010588582,-135.2488042905861,-0.8470169646028157,tremor
165,9230682,1.42,-0.6082733580308293,-0.095435567483027,0.5409116395089246,14.564778020845134,-136.86553727788322,-0.3508322248341499,tremor
166,9230697,1.435,-0.5939141736662937,-0.09437371964649313,0.5517843332230464,14.598131849720033,-138.15317909810688,0.12337545307300665,tremor
167,9230701,1.439,-0.5799205980568141,-0.09340290052477977,0.563011127852148,14.563953455818021,-139.10821357702542,0.5755092999613854,tremor
168,9230743,1.481,-0.5663030966968206,-0.09253263558412207,0.5745546337673211,14.463085396740956,-139.72974798424013,1.005619263442571,tremor
169,9230747,1.485,-0.5530688328558088,-0.09177116715858387,0.5863751132233382,14.296865671435262,-140.01941170623957,1.41388860068909,tremor
170,9230762,1.5,-0.5402218193017125,-0.09112538484698546,0.5984308970528939,14.067118233933437,-139.98123645018222,1.800619887986949,tremor
171,9230767,1.505,-0.5277630860755649,-0.09060076992239455,0.6106788065360593,13.776139290015662,-139.62151959595408,2.1662204792948043,tremor
172,9230772,1.51,-0.515690864228197,-0.09020135405480444,0.6230745774818798,13.426679350627177,-138.94867207069595,2.511187454403407,tremor
173,9230777,1.515,-0.5040007862828597,-0.08992969291530477,0.635573283887387,13.021920992498139,-137.97305213723322,2.8360921471027694,tremor
174,9230786,1.524,-0.492686104223445,-0.08978685547682734,0.6481297585677127,12.565452292505398,-136.7067867178204,3.1415644107484133,tremor
175,9230791,1.529,-0.48173792511062313,-0.08977242995834617,0.6606990079116812,12.06123596092768,-135.16358222362547,3.428276842536912,tremor
176,9230796,1.534,-0.4711454632077166,-0.0898845473140888,0.6732366174937251,11.51357429001307,-133.35852724638113,3.696929238370829,tremor
177,9230806,1.544,-0.46089630600876663,-0.09011992292165029,0.6856991447689724,10.927070145615284,-131.30788983621625,3.9482335825635726,tremor
178,9230810,1.548,-0.4509766900475443,-0.0904739166847319,0.6980444945959219,10.30658434991887,-129.02891240376937,4.182899889302523,tremor
179,9230815,1.553,-0.4413717810334143,-0.09094061118358997,0.7102322729585695,9.657189921683738,-126.53960751887921,4.401623207266071,tremor
180,9230825,1.563,-0.43206595186252916,-0.0915129068487723,0.7222241140689841,8.984123746743588,-123.85855800818912,4.605072077571913,tremor
181,9230830,1.568,-0.42304305149040017,-0.09218263248018269,0.7339839760764931,8.292736339022449,-121.00472475982536,4.793878700658749,tremor
182,9230839,1.577,-0.41428665756923794,-0.09294066886131544,0.745478400926983,7.588440419895648,-117.99726550794978,4.968631022160527,tremor
183,9230865,1.603,-0.40578030615300276,-0.09377708279532453,0.756676734525272,6.8766590933476595,-114.85536756891537,5.129866891971753,tremor
184,9230875,1.613,-0.3975076926349133,-0.0946812686606306,0.7675513042541365,6.162774426352925,-111.59809699651916,5.278070380394431,tremor
185,9230880,1.618,-0.38945283937476427,-0.09564209455670974,0.7780775520562409,5.4520772519959655,-108.24426588498869,5.413670243403052,tremor
186,9230884,1.622,-0.38160022714546527,-0.09664805025295366,0.7882341225982101,4.749718984893827,-104.81231859523913,5.537040415138988,tremor
187,9230889,1.627,-0.37393488948845444,-0.09768739440886297,0.7980029073772049,4.060666166069167,-101.32023662060236,5.648502284161273,tremor
188,9230899,1.637,-0.366442471173552,-0.0987482988473058,0.8073690468640266,3.389658343072269,-97.78546080733238,5.748328405135988,tremor
189,9230904,1.642,-0.35910925402402727,-0.09981898799513354,0.8163208937986436,2.741169758348868,-94.22482884418982,5.83674723009698,tremor
190,9230908,1.646,-0.3519221551789788,-0.10088787193321391,0.8248499415014673,2.1193751828375147,-90.65452540989605,5.913948422681536,tremor
191,9230913,1.651,-0.34486870421069427,-0.10194367180399375,0.8329507215094812,1.5281201043989363,-87.09004214178724,5.9800883453554325,tremor
192,9230918,1.656,-0.33793700622971884,-0.10297553659335705,0.8406206749919426,0.9708953686532609,-83.5461446554478,6.03529537782538,tremor
193,9230922,1.66,-0.3311156981159627,-0.10397315051882866,0.8478600022720719,0.4508162788961691,-80.03684416672773,6.0796748241251715,tremor
194,9230958,1.696,-0.3243939043221702,-0.10492683040186222,0.8546714944258411,-0.029393901781960993,-76.57537178723953,6.113313283787254,tremor
195,9230962,1.7,-0.3177611974101266,-0.10582761246264995,0.8610603504205148,-0.46741613608390425,-73.17415420666241,6.136282484482117,tremor
196,9231002,1.74,-0.3112075668290373,-0.10666732794403105,0.8670339827158519,-0.8613435847138734,-69.8447901334988,6.14864267819023,tremor
197,9231012,1.75,-0.30472339778627644,-0.10743866686734425,0.8726018138420676,-1.2096854668627666,-66.59802741736688,6.150445765153135,tremor
198,9231017,1.755,-0.29829946075128794,-0.10813522912059417,0.8777750663120253,-1.511366926282097,-63.44374114115593,6.141738317701851,tremor
199,9231022,1.76,-0.29192691134445015,-0.10875156209076915,0.8825665483077043,-1.7657250550481463,-60.39091315147287,6.122564642506592,tremor
200,9231026,1.764,-0.28559730001927897,-0.10928318426116981,0.8869904377675516,-1.9725012709017147,-57.44761353601033,6.092969969483363,tremor
201,9231031,1.769,-0.2793025908489331,-0.10972659459252189,0.8910620676426786,-2.1318302814611636,-54.62098449670258,6.053003804915109,tremor
202,9231036,1.774,-0.27303518870407745,-0.11007926800449182,0.8947977151051703,-2.2442258919479112,-51.91722693734953,6.002723439919054,tremor
203,9231041,1.779,-0.26678797407271176,-0.11033963776601545,0.8982143973688411,-2.3105639248250203,-49.34158991644652,5.942197563880563,tremor
204,9231046,1.784,-0.2605543447053952,-0.11050706601054702,0.9013296765431841,-2.332062526724363,-46.89836294606694,5.871509897545364,tremor
205,9231051,1.789,-0.25432826318524293,-0.11058180387416935,0.9041614756162657,-2.310260146030611,-44.59087097829797,5.790762735650538,tremor
206,9231055,1.793,-0.2481043094418784,-0.11056494289940158,0.9067279072831429,-2.246991476941768,-42.42147183750827,5.700080279485545,tremor
207,9231070,1.808,-0.2418777371645542,-0.1104583593683076,0.9090471169297181,-2.14436168394096,-40.39155584628057,5.5996116508760485,tremor
208,9231075,1.813,-0.23564453301509475,-0.11026465315302834,0.9111371406677252,-2.0047192428437146,-38.501547462729135,5.4895335129164025,tremor
209,9231080,1.818,-0.22940147746288467,-0.10998708253285515,0.9130157789071105,-1.8306277554779145,-36.750908897743955,5.370052275422226,tremor
210,9231116,1.854,-0.22314620590736925,-0.1096294962527665,0.914700485553068,-1.6248371058818911,-35.13814590522126,5.2414059240642255,tremor
211,9231121,1.859,-0.21687726847346236,-0.10919626390571333,0.9162082725307296,-1.3902543191623753,-33.660816212522555,5.103865566480029,tremor
212,9231131,1.869,-0.2105941864739384,-0.10869220551301,0.9175556289867289,-1.129914458822997,-32.3155413335397,4.957736819585497,tremor
213,9231141,1.879,-0.2042975031234819,-0.10812252095259861,0.9187584542306637,-0.8469518605187434,-31.09802272128006,4.803361155967745,tremor
214,9231155,1.893,-0.19798882580500637,-0.1074927196558059,0.9198320033100675,-0.5445719586442272,-30.003063324614388,4.641117280313515,tremor
215,9231160,1.898,-0.19167085715921295,-0.10680855079548349,0.9207908440949611,-0.22602392396812027,-29.0245955970992,4.471422530086267,tremor
216,9231165,1.903,-0.18534741255949727,-0.10607593407062622,0.9216488248814757,0.10542570055562649,-28.155716863783912,4.294734206786839,tremor
217,9231170,1.908,-0.17902342213890926,-0.10530089119049314,0.9224190517689428,0.4465182011730104,-27.388732692743147,4.111550662494694,tremor
218,9231180,1.918,-0.1727049163881154,-0.10448947828013584,0.9231138753579342,0.7940265811040982,-26.715208567015598,3.9224119028353055,tremor
219,9231185,1.923,-0.1663989953434841,-0.10364771964417581,0.923744886591023,1.144777991094955,-26.12602975545398,3.7278994288938923,tremor
220,9231190,1.928,-0.16011378241814314,-0.10278154359391055,0.9243229217550458,1.495674565445144,-25.61146889352624,3.528635031683813,tremor
221,9231195,1.933,-0.1538583648772357,-0.10189672131670198,0.9248580767364148,1.8437125396995413,-25.16126045978926,3.325278278252163,tremor
222,9231199,1.937,-0.1476427237107586,-0.10099881000240696,0.9253597305374549,2.185999552352076,-24.764681107798932,3.118522490199391,tremor
223,9231204,1.942,-0.14147765612726773,-0.10009310160377487,0.9258365778099327,2.519770071605706,-24.410634701787377,2.909089108137598,tremor
224,9231209,1.947,-0.13537469402479704,-0.09918457866795208,0.9262966697511226,2.8423989363481788,-24.087740904727315,2.6977204479740804,tremor
225,9231235,1.973,-0.12934602156533553,-0.09827787861064395,0.9267474621656472,3.1514130554804836,-23.78442626675871,2.485170973868681,tremor
226,9231239,1.977,-0.12340439439474166,-0.09737726759416644,0.9271958688741438,3.4445013680044814,-23.489016935383184,2.2721973262703545,tremor
227,9231244,1.982,-0.11756306217450876,-0.09648662480651496,0.9276483180372811,3.7195232185162053,-23.189832308129088,2.05954743932374,tremor
228,9231254,1.992,-0.11183569505204526,-0.09560943742945982,0.9281108084895763,3.974515334669597,-22.87527910748573,1.8479491477271723,tremor
229,9231259,1.997,-0.10623631365624456,-0.09474880596553693,0.9285889629705227,4.207697594946992,-22.53394542712767,1.638098711488412,tremor
230,9231264,2.002,-0.10077922132172715,-0.09390745893433114,0.9290880752745094,4.417477749034867,-22.15469427606083,1.4306496801371686,tremor
231,9231274,2.012,-0.09547893663547333,-0.09308777533748058,0.9296131488144227,4.602455210325194,-21.726756072213973,1.2262024842932078,tremor
232,9231284,2.022,-0.09035012412796989,-0.0922918128180882,0.9301689248467211,4.761423992266015,-21.23981945757602,1.025295090570749,tremor
233,9231289,2.027,-0.0854075210019295,-0.09152133916784026,0.930759899539724,4.893374816574443,-20.68411976171737,0.8283949921097407,tremor
234,9231294,2.032,-0.08066585815150099,-0.09077786479243988,0.9313903300567494,4.997496388251447,-20.05052445271169,0.6358927372505929,tremor
235,9231303,2.041,-0.07613977427950087,-0.09006267392569697,0.9320642307380771,5.073175813113397,-19.33061498695605,0.448097128770468,tremor
236,9231308,2.046,-0.07184372256109949,-0.0893768527470417,0.9327853611862851,5.119998127468118,-18.5167645819436,0.2652321611838226,tremor
237,9231318,2.056,-0.06779186993026502,-0.0887213130476328,0.9335572085151729,5.137744913397929,-17.602211553562846,0.08743570796069611,tremor
238,9231322,2.06,-0.06399798960677287,-0.08809681064108152,0.9343829661845805,5.126391983479578,-16.581127946106918,-0.08524007449029639,tremor
239,9231327,2.065,-0.06047534790050462,-0.08750395826748984,0.9352655117183413,5.086106133354979,-15.448683212664688,-0.25282669518688744,tremor
240,9231332,2.07,-0.05723658662922759,-0.08694323325067406,0.9362073852218551,5.017240977802406,-14.201102664956514,-0.4154357284364782,tremor
241,9231363,2.101,-0.054293602697257456,-0.08641498061173435,0.9372107700294583,4.920331904171068,-12.835720312957315,-0.573253790136541,tremor
242,9231368,2.106,-0.05165742654051555,-0.08591941270174631,0.9382774760898388,4.796090194227977,-11.351025585186427,-0.7265362340646724,tremor
243,9231373,2.111,-0.04933810125853839,-0.08545660667369893,0.9394089259395649,4.645396379902423,-9.746703308365328,-0.8755997153071192,tremor
244,9231382,2.12,-0.04734456429540546,-0.08502650123964403,0.9406061424474478,4.469292909388479,-8.023666279779,-1.0208137494248213,tremor
245,9231392,2.13,-0.045684533444929454,-0.08462889412465183,0.9418697370563122,4.268976207757547,-6.1840798082518775,-1.1625913579509013,tremor
246,9231402,2.14,-0.04436439870234296,-0.08426344142745837,0.94319989707282,4.045788220353789,-4.231377708321109,-1.3013788488227902,tremor
247,9231407,2.145,-0.043389121073733806,-0.08392965975257309,0.9445963706654668,3.8012075258578375,-2.170269362728495,-1.437644754622939,tremor
248,9231412,2.15,-0.042762138946564,-0.08362693153947294,0.946058448585263,3.536840096590363,-0.006737586861503591,-1.5718679556616457,tremor
249,9231417,2.155,-0.042485282114368035,-0.08335451354485332,0.9475849421557817,3.2544097661746147,2.251972874943589,-1.704525050334584,tremor
250,9231422,2.16,-0.04255869313065773,-0.08311154799768458,0.9491741577087807,2.955748441743239,4.597376310902827,-1.8360770924525618,tremor
251,9231426,2.164,-0.04298075540535053,-0.08289707559546425,0.9508238682898066,2.6427860729678843,7.019776476395667,-1.9669558800670255,tremor
252,9231431,2.169,-0.04374802737668249,-0.0827100492769973,0.9525312840588784,2.317540365966735,9.508306445126312,-2.0975500397398688,tremor
253,9231436,2.174,-0.04485518218734449,-0.08254934760982144,0.9542930233121987,1.982106208548577,12.050977756171719,-2.2281911963395316,tremor
254,9231446,2.184,-0.04629495254175573,-0.0824137866741913,0.9561050864117969,1.6386447561518485,14.634738690970778,-2.3591405489259945,tremor
255,9231450,2.188,-0.04805808078727893,-0.0823021295046115,0.9579628351050482,1.2893721171326042,17.245541501539872,-2.4905761892949614,tremor
256,9231455,2.193,-0.0501332747054316,-0.08221309244738262,0.959860979732833,0.9365475735826367,19.868418446537586,-2.6225815033746476,tremor
257,9231480,2.218,-0.052507169980403404,-0.08214534817938715,0.9617935766595045,0.5824612812581852,22.48756658922496,-2.7551349892897505,tremor
258,9231485,2.223,-0.055164300803584615,-0.08209752556565991,0.9637540379100553,0.22942141018160186,25.086441471422184,-2.8881018136125247,tremor
259,9231495,2.233,-0.05808708056795009,-0.08206820694994268,0.9657351544779271,-0.12025928553042792,27.647859973414157,-3.0212274139802404,tremor
260,9231500,2.238,-0.06125579511584876,-0.08205592380066713,0.9677291340931488,-0.4642774486639043,30.154112846795577,-3.1541334419168647,tremor
261,9231504,2.242,-0.06464861153060283,-0.08205915181367114,0.9697276534583069,-0.8003536015849092,32.5870875042717,-3.286316314876405,tremor
262,9231514,2.252,-0.06824160597209968,-0.08207630657959587,0.9717219241357653,-1.1262470604338508,34.928401628582286,-3.4171485964092856,tremor
263,9231519,2.257,-0.07200881447090664,-0.08210574077834143,0.9737027704857968,-1.4397712002575394,37.159548015774064,-3.545883339408738,tremor
264,9231524,2.262,-0.0759223108056548,-0.08214574361114227,0.9756607173956837,-1.7388089880459476,39.262050807302515,-3.671661414895364,tremor
265,9231528,2.266,-0.07995231548034312,-0.08219454287539216,0.977586085074657,-2.02132869975669,41.217632903044944,-3.793521723124019,tremor
266,9231533,2.271,-0.08406733930780047,-0.08225030977509941,0.9794690879608497,-2.2853997314616077,43.00839389765678,-3.9104140614553393,tremor
267,9231538,2.276,-0.08823436417263854,-0.0823111662749222,0.9812999347993937,-2.5292083999896273,44.61699737003838,-4.021214316780116,tremor
268,9231543,2.281,-0.09241906224112881,-0.08237519456860762,0.9830689271782035,-2.7510736050039135,46.02686581055387,-4.124741567375727,tremor
269,9231548,2.286,-0.09658605330366489,-0.08244044805400816,0.98476655420361,-2.949462195547283,47.22238092057438,-4.219776624972049,tremor
270,9231552,2.29,-0.10069919819719597,-0.08250496309222759,0.9863835815075556,-3.123003854454155,48.18908648474936,-4.305081524356142,tremor
271,9231557,2.295,-0.10472192448586343,-0.0825667707814255,0.9879111333447315,-3.270505288278791,48.913890512615424,-4.379419472260782,tremor
272,9231562,2.3,-0.10861757889907292,-0.08262390799975732,0.9893407671056608,-3.390963491646816,49.38526288014545,-4.441574792431885,tremor
273,9231576,2.314,-0.11234979954495895,-0.0826744270709674,0.990664540086844,-3.483577844012009,49.59342427562654,-4.490372441086497,tremor
274,9231601,2.339,-0.11588289972562385,-0.08271640358469881,0.99187506877059,-3.5477607920514136,49.53052187580416,-4.5246967095099,tremor
275,9231606,2.344,-0.119182254363242,-0.0827479421606193,0.9929655811257492,-3.58314686894407,49.19078688458106,-4.543508775450826,tremor
276,9231611,2.349,-0.12221467968500917,-0.08276718026076967,0.9939299625065523,-3.589599799479984,48.570668939034014,-4.545862815496904,tremor
277,9231616,2.354,-0.12494879696794534,-0.08277229047842125,0.9947627955891827,-3.56721743755292,47.66894252217489,-4.530920452917268,tremor
278,9231621,2.359,-0.1273553718085005,-0.08276148199775034,0.995459394477211,-3.51633428432697,46.48678096414247,-4.4979633893882065,tremor
279,9231626,2.364,-0.12940762148216606,-0.08273300207398974,0.9960158326969013,-3.437521346693473,45.02779433164519,-4.4464041446560705,tremor
280,9231630,2.368,-0.1310814843810787,-0.08268513840757563,0.9964289643744446,-3.3315831206286997,43.298028435241825,-4.37579489536356,tremor
281,9231635,2.373,-0.1323558471508593,-0.0826162231840556,0.9966964375159801,-3.199551525394623,41.305923278584636,-4.285834461733599,tremor
282,9231645,2.383,-0.133212726899394,-0.0825246393440857,0.9968166980614086,-3.0426766737258535,39.06223050591706,-4.176373542500511,tremor
283,9231654,2.392,-0.13363740764285714,-0.08240882936289583,0.9967889833074827,-2.862414440143982,36.57989074620705,-4.04741834385167,tremor
284,9231659,2.397,-0.13361853191094653,-0.08226730649356541,0.9966133034417954,-2.660410882919417,33.87387316163875,-3.8991327794796775,tremor
285,9231664,2.402,-0.13314815006381053,-0.08209866811101836,0.9962904103360243,-2.4384836823688705,30.960980914792152,-3.7318394276215243,tremor
286,9231669,2.407,-0.13222173127724784,-0.08190161053544615,0.9958217534266989,-2.198600874605112,27.859627572495853,-3.546019415871545,tremor
287,9231674,2.412,-0.1308381412406733,-0.08167494455675674,0.9952094234298795,-1.942857279233155,24.589590555742245,-3.3423113724906326,tremor
288,9231679,2.417,-0.12899959232131028,-0.08141761084696712,0.9944560857071089,-1.6734491347150826,21.171748533020033,-3.1215095416659886,tremor
289,9231684,2.422,-0.1267115722390086,-0.0811286945359273,0.9935649062041593,-1.392647557416422,17.6278100760304,-2.8845611112587406,tremor
290,9231693,2.431,-0.12398275713929938,-0.08080743842310933,0.9925394738834133,-1.102771517024616,13.980040919568395,-2.6325627413210997,tremor
291,9231698,2.436,-0.12082491431670414,-0.0804532545769641,0.9913837243165509,-0.8061610552542505,10.250996792218187,-2.3667562081505733,tremor
292,9231725,2.463,-0.11725279869537689,-0.08006573438735755,0.9901018694473992,-0.5051514482995456,6.46326804443289,-2.08852299759021,tremor
293,9231730,2.468,-0.11328404552820283,-0.07964465741227268,0.9886983383533642,-0.2020489151854057,2.6392412697609697,-1.7993776076520753,tremor
294,9231740,2.478,-0.10893905976000909,-0.07918999949755444,0.9871777330813184,0.10089168544287064,-1.199118070570219,-1.5009592766104605,tremor
295,9231744,2.482,-0.10424090042305878,-0.07870194055314328,0.9855448023834151,0.4014869100415177,-5.030459171449025,-1.1950218600745166,tremor
296,9231759,2.497,-0.09921515669856648,-0.07818087201276158,0.9838044346218834,0.6976424332684145,-8.834213707625587,-0.8834216458801726,tremor
297,9231769,2.507,-0.09388981122094049,-0.0776274034721399,0.9819616695026046,0.9873683975049343,-12.590736918500161,-0.5681030027066065,tremor
298,9231774,2.512,-0.08829508596849572,-0.07704236747573011,0.9800217268703793,1.2687924517061513,-16.281421604492255,-0.25108187777463514,tremor
299,9231778,2.516,-0.08246326662067266,-0.07642682110473918,0.9779900497107187,1.5401705294723051,-19.888785355773607,0.06557273279634632,tremor
300,9231783,2.521,-0.0764285023579069,-0.07578204304305858,0.9758723578051111,1.7998954070224251,-23.39653205280371,0.379759128243026,tremor
301,9231788,2.526,-0.07022657945081853,-0.07510952517652049,0.9736747081346583,2.046503074041881,-26.78958944972208,0.6893647762108482,tremor
302,9231793,2.531,-0.06389466835909674,-0.07441095842193107,0.971403558020643,2.278676958677908,-30.054125427776615,0.9922893697682695,tremor
303,9231803,2.541,-0.05747104524127585,-0.07368821323978367,0.9690658270239966,2.4952500837003133,-33.177546214698616,1.2864686831643506,tremor
304,9231808,2.546,-0.05099478965814229,-0.07294331601027895,0.9666689537219415,2.695205297621,-36.14848042878649,1.569898824082222,tremor
305,9231812,2.55,-0.044505460810435035,-0.07217842301714197,0.9642209436056663,2.877673813012445,-38.95675314091437,1.8406604803165119,tremor
306,9231817,2.555,-0.03804275493894725,-0.0713957940854384,0.9617304045078592,3.0419323732302437,-41.5933541799781,2.0969427575077852,tremor
307,9231822,2.56,-0.03164614665964015,-0.07059776789773538,0.9592065662161741,3.1873994336464575,-44.05040459758452,2.3370661825272756,tremor
308,9231848,2.586,-0.025354517191634746,-0.06978674066749935,0.9566592813129356,3.313630765246087,-46.32112456103229,2.5595043983673818,tremor
309,9231858,2.596,-0.019205772861456184,-0.06896514924802019,0.9540990048484345,3.420314856861985,-48.39980500430998,2.7629040129353224,tremor
310,9231863,2.601,-0.013236458091427292,-0.0681354590321328,0.9515367512289695,3.507268406800957,-50.28178423083437,2.946102012538825,tremor
311,9231868,2.606,-0.007481368351540506,-0.06730015632569862,0.9489840276719553,3.574432066719658,-51.963429498228,3.108140142792039,tremor
312,9231872,2.61,-0.001973170146117724,-0.06646174441144383,0.946452744693884,3.6218664550684263,-53.4421226335571,3.248275715760988,tremor
313,9231877,2.615,0.003257963278140404,-0.06562274233099497,0.9439551052550652,3.6497483246646447,-54.71624807741925,3.365988420353972,tremor
314,9231882,2.62,0.008184690546801154,-0.0647856854739529,0.9415034752747182,3.6583666731775093,-55.785181463660315,3.4609828741643867,tremor
315,9231887,2.625,0.01278280452785026,-0.06395312728629134,0.9391102391540268,3.648118538657422,-56.64927684425919,3.533186837452639,tremor
316,9231892,2.63,0.017031488117298356,-0.06312764169721047,0.9367876446354474,3.61950422715217,-57.30985088239914,3.582745196341902,tremor
317,9231897,2.635,0.020913514210775124,-0.062311826127061966,0.9345476417432236,3.573121772128221,-57.76916269096707,3.6100099983658156,tremor
318,9231902,2.64,0.024415382564704595,-0.061508305111230746,0.9324017206748976,3.509660516498761,-58.03038843020027,3.6155269768697824,tremor
319,9231907,2.645,0.027527388867779987,-0.0607197346092477,0.9303607533503622,3.429893822362853,-58.09759024480024,3.6000191226713008,tremor
320,9231916,2.654,0.030243624444870436,-0.0599488069420683,0.9284348428989081,3.334671031554394,-57.97567957288017,3.5643679480259993,tremor
321,9231921,2.659,0.03256190834356597,-0.05919825601857803,0.9266331847229937,3.2249089008281424,-57.67037525908442,3.509593137880247,tremor
322,9231936,2.674,0.034483656792933394,-0.05847086211429645,0.9249639419903293,3.1015827995486984,-57.18815721566074,3.4368312933401537,tremor
323,9231940,2.678,0.03601369782038383,-0.05776945502947488,0.9234341375655247,2.9657179714357578,-56.53621655810162,3.347314437482824,tremor
324,9231945,2.683,0.03716004082314757,-0.05709691409447663,0.9220495636051942,2.81838112321904,-55.72240315899206,3.2423488733116215,tremor
325,9231973,2.711,0.03793361185859709,-0.056456163333673315,0.9208147094070884,2.660672523745605,-54.75517139933637,3.123294865360665,tremor
326,9231977,2.715,0.03834796525415971,-0.055850160235736745,0.9197327076910908,2.4937186978210795,-53.64352458109362,2.991547476436474,tremor
327,9231982,2.72,0.03841898098375701,-0.05528187701456285,0.9188052993047002,2.3186657022259793,-52.39695808457106,2.8485187529409974,tremor
328,9231987,2.725,0.0381645554625495,-0.05475427389401621,0.9180328163343124,2.136672895393716,-51.02540102508681,2.695621341477091,tremor
329,9231992,2.73,0.03760429141044947,-0.05427026467377813,0.9174141836781825,1.9489070665201258,-49.539155971605794,2.5342535506166532,tremor
330,9231997,2.735,0.036759190601443045,-0.05383267550585341,0.9169469392089835,1.7565367727795047,-47.94883625856523,2.3657858416396436,tremor
331,9232002,2.74,0.035651351883630396,-0.05344419835047032,0.916627272656863,1.5607267375663376,-46.26530052536948,2.1915487275552485,tremor
332,9232006,2.744,0.03430367592151429,-0.05310734095118641,0.9164500832393684,1.3626321823840182,-44.49958431720131,2.0128220695814276,tremor
333,9232016,2.754,0.03273957768074026,-0.05282437536787535,0.9164090558384741,1.163392997058426,-42.6628288399308,1.8308257776896633,tremor
334,9232021,2.759,0.030982707691117047,-0.052597287145374164,0.9164967551816217,0.9641276938905721,-40.76620724773266,1.6467119402902128,tremor
335,9232026,2.764,0.029056683490802017,-0.05242772709571198,0.9167047370423493,0.765927135219536,-38.82084912251921,1.4615584202442826,tremor
336,9232030,2.768,0.026984833247222693,-0.05231696745889352,0.9170236749685822,0.5698480635641101,-36.8377640518922,1.276363955096636,tremor
337,9232035,2.773,0.024789954227884207,-0.05226586391116109,0.9174435005144108,0.3769064942417664,-34.82776541072538,1.092044788098989,tremor
338,9232040,2.778,0.022494089420718424,-0.05227482454352593,0.9179535544404335,0.18807105174717823,-32.80139559826028,0.909432835374382,tremor
339,9232045,2.783,0.02011832606107725,-0.052343786570962274,0.9185427459038009,0.004256346185202388,-30.768854081258972,0.729275365900704,tremor
340,9232054,2.792,0.017682620015773812,-0.052472201185434976,0.9191997163200906,-0.17368350188875772,-28.739929642555893,0.552236136817446,tremor
341,9232059,2.797,0.015205649835604951,-0.05265902665948108,0.919913004370995,-0.3449610690549,-26.723938220954558,0.378897888325707,tremor
342,9232064,2.802,0.012704703779165206,-0.052902729558531446,0.9206712085678093,-0.508861440711329,-24.729667631812585,0.20976606090222796,tremor
343,9232069,2.807,0.010195602225907374,-0.05320129373718282,0.9214631438634259,-0.6647474925889867,-22.765330257037235,0.04527355287117986,tremor
344,9232095,2.833,0.007692656660596354,-0.05355223667524619,0.922277989027236,-0.8120645066094195,-20.838524482027083,-0.11421371053675572,tremor
345,9232100,2.838,0.005208664891726037,-0.053952632642745434,0.9231054218391734,-0.9503439904014909,-18.95620525470575,-0.2683906706404374,tremor
346,9232105,2.843,0.0027549404883487976,-0.05439914215218479,0.9239357395936723,-1.0792065830153972,-17.124663697475942,-0.4170067994022759,tremor
347,9232109,2.847,0.00034137276516569767,-0.05488804714361008,0.924759962900919,-1.1983639539380182,-15.34951528764855,-0.5598598530153135,tremor
348,9232114,2.852,-0.002023487788675424,-0.055415291340434436,0.925569921302975,-1.307619638506763,-13.63569580246604,-0.6967900131733927,tremor
349,9232119,2.857,-0.004332324805521462,-0.05597652520634443,0.9263583197628201,-1.4068687952957897,-11.98746403558575,-0.8276746642955118,tremor
350,9232124,2.862,-0.006578938844585423,-0.0565671549256313,0.9271187856170764,-1.4960969119903251,-10.408410230893423,-0.95242398525073,tremor
351,9232128,2.866,-0.008758124638661552,-0.057182394821083615,0.9278458960935444,-1.5753775179972824,-8.901469225972681,-1.070977454708144,tremor
352,9232133,2.871,-0.010865549402247978,-0.05781732261219557,0.9285351869698043,-1.6448689793119007,-7.468937425749679,-1.1833012882618452,tremor
353,9232138,2.876,-0.01289763808262658,-0.05846693689552374,0.929183143377107,-1.7048104522891134,-6.112492909688023,-1.28938674985471,tremor
354,9232148,2.886,-0.014851470325928267,-0.059126216190266576,0.929787174123785,-1.75551706049646,-4.833218185779614,-1.3892492155977856,tremor
355,9232153,2.891,-0.01672469253241207,-0.05979017882786188,0.9303455712146516,-1.7973743391287513,-3.6316253139174686,-1.4829278190542285,tremor
356,9232162,2.9,-0.018515446805182426,-0.06045394287091025,0.9308574564690035,-1.830831973192497,-2.507683302511986,-1.5704854759921767,tremor
357,9232167,2.905,-0.02022231700479103,-0.06111278512843118,0.9313227172851302,-1.8563968472156485,-1.4608478096863036,-1.6520090750211922,tremor
358,9232172,2.91,-0.021844290676865503,-0.061762198207140684,0.9317419336659184,-1.8746254308184016,-0.4900932354647657,-1.7276096287535898,tremor
359,9232177,2.915,-0.023380734473489265,-0.06239794442843226,0.932116298619017,-1.886115546188323,0.4060527316390832,-1.797422206351356,tremor
360,9232182,2.92,-0.024831379943885155,-0.06301610537800627,0.9324475339928016,-1.8914975956593383,1.2294721412837215,-1.8616055082068554,tremor
361,9232187,2.925,-0.0261963162620092,-0.06361312586432466,0.932737803724044,-1.891425363201481,1.9824175441420087,-1.920340991368756,tremor
362,9232192,2.93,-0.027475986565227282,-0.06418585115793177,0.9329896263701715,-1.8865665363642146,2.667470803830423,-1.9738315046104147,tremor
363,9232217,2.955,-0.028671185036753973,-0.06473155657003717,0.9332057886891383,-1.8775931211046124,3.287500409943346,-2.0222994399885637,tremor
364,9232222,2.96,-0.02978305258013754,-0.06524796869629164,0.9333892619177663,-1.8651719388680432,3.845617853451681,-2.0659844491849957,tremor
365,9232227,2.965,-0.030813069771896545,-0.0657332779729679,0.9335431222814652,-1.8499554016542192,4.34513368864313,-2.105140804046133,tremor
366,9232241,2.979,-0.03176304657073728,-0.06618614252346054,0.9336704771338342,-1.8325727555804852,4.789513909816712,-2.1400344988040487,tremor
367,9232246,2.984,-0.032635108857492635,-0.06660568356670112,0.9337743979615807,-1.8136219680512344,5.182337217909614,-2.1709401963760384,tremor
368,9232251,2.989,-0.03343168220518765,-0.06699147288629588,0.9338578612920501,-1.7936624123232519,5.527253663438335,-2.19813811591132,tremor
369,9232256,2.994,-0.03415547335084578,-0.06734351301453231,0.9339236983093627,-1.7732084806878503,5.827945056893054,-2.2219109479249886,tremor
370,9232260,2.998,-0.034809449732181544,-0.06766221088066166,0.933974553728547,-1.7527242360970356,6.088087456616581,-2.24254087078064,tremor
371,9232265,3.003,-0.03539681724872372,-0.0679483457270835,0.9340128542055637,-1.7326191916615594,6.311315983662516,-2.2603067298825397,tremor
372,9232270,3.008,-0.0359209961852583,-0.06820303212956377,0.934040786285643,-1.7132452864873264,6.501192171018762,-2.2754814289129874,tremor
373,9232275,3.013,-0.03638559505675408,-0.06842767898366146,0.9340602836229683,-1.6948951033541169,6.661174026443501,-2.2883295704855864,tremor
374,9232289,3.027,-0.036794382039238044,-0.06862394534807545,0.9340730229499691,-1.67780134840176,6.794588969616993,-2.299105371922725,tremor
375,9232294,3.032,-0.03715125365985463,-0.06879369406902423,0.9340804280419399,-1.662137585812555,6.904609791578456,-2.3080508713304884,tremor
376,9232299,3.037,-0.03746020053103435,-0.06893894414451276,0.934083680720694,-1.648020192244273,6.994233774535855,-2.315394430509146,tremor
377,9232304,3.042,-0.037725270112215464,-0.06906182281549975,0.9340837377789251,-1.6355114672315665,7.066265100706651,-2.321349534690113,tremor
378,9232309,3.047,-0.037950526741317714,-0.06916451838326808,0.9340813525929104,-1.6246238076522648,7.123300667451992,-2.3261138842207756,tremor
379,9232313,3.051,-0.03814000946523442,-0.06924923474164757,0.934077100128308,-1.6153248273137029,7.167719410020444,-2.3298687696208713,tremor
