sample,t_ms,t_s,ax,ay,az,gx,gy,gz,tremor
0,9307597,0.0,-0.3510769946011589,-0.19385865990573165,-0.9798701951331308,-2.5165269479184147,8.08255781849344,-1.5324158136999109,tremor
1,9307621,0.024,-0.35021471391436587,-0.19360831373814022,-0.9804851275120638,-2.3747243543677117,7.041151195786894,-1.471358518069145,tremor
2,9307636,0.039,-0.3490052697768112,-0.1932634830457002,-0.9813227296191712,-2.228815101836991,5.865754373913382,-1.3972738594705019,tremor
3,9307641,0.044,-0.3474141008666552,-0.19281688929876026,-0.9823895927447782,-2.079320366988164,4.554862430124635,-1.3098552033895594,tremor
4,9307646,0.049,-0.3454714153099937,-0.19227858057606662,-0.9836455801890649,-1.9268044666477278,3.10794347394626,-1.208897299260314,tremor
5,9307651,0.054,-0.34324582004945003,-0.19166755032919253,-0.9850258244261029,-1.7718728777723338,1.525505721580719,-1.0943042641795642,tremor
6,9307665,0.068,-0.3408176438989275,-0.1910040764597411,-0.9864606276039543,-1.6151699586865644,-0.190840502931201,-0.9660968361997888,tremor
7,9307670,0.073,-0.33826367652287936,-0.190305704450777,-0.9878858758946094,-1.457376375770343,-2.038326822645012,-0.8244187668457739,tremor
8,9307674,0.077,-0.3356516237775258,-0.18958605551786895,-0.9892461538677428,-1.2992062363359997,-4.012977939347878,-0.6695422218952078,tremor
9,9307679,0.082,-0.3330399012124942,-0.1888550768835307,-0.9904941670286782,-1.1414039257620578,-6.109570886372228,-0.5018720617393209,tremor
10,9307684,0.087,-0.3304794805940147,-0.18811978227928766,-0.9915889417679785,-0.9847406455507872,-8.321603452996651,-0.32194887916094683,tremor
11,9307689,0.092,-0.32801607103806124,-0.18738501857517087,-0.9924939992971604,-0.8300106491419944,-10.641272817244655,-0.13045068289471592,tremor
12,9307694,0.097,-0.32569195694864467,-0.1866540944519297,-0.9931759213670907,-0.6780271737806444,-13.059465391421353,0.07180687125363192,tremor
13,9307703,0.106,-0.3235473318015783,-0.18592924653288284,-0.9936033653134922,-0.5296180688388894,-15.56575883475277,0.2838717845637233,tremor
14,9307708,0.111,-0.3216211710725967,-0.18521196837482548,-0.9937464579944328,-0.3856211233738386,-18.14843712109961,0.5046586207721816,tremor
15,9307713,0.116,-0.31995174367035517,-0.18450323778327746,-0.9935764731993437,-0.24687909858301887,-20.79451946818283,0.7329530605491741,tremor
16,9307718,0.121,-0.3185768590342219,-0.18380367361278538,-0.9930657088451891,-0.11423447462223157,-23.48980384026789,0.9674181343439202,tremor
17,9307743,0.146,-0.31753392763663996,-0.1831136455411984,-0.9921875003467872,0.011476073853282115,-26.218925631475848,1.20660214461451,tremor
18,9307748,0.151,-0.3168598920432727,-0.1824333532340517,-0.9909163248218162,0.1294274534187201,-28.965432023995348,1.448948271577313,tremor
19,9307753,0.156,-0.316591068914268,-0.1817628858592512,-0.9892279647423169,0.23881215342511344,-31.71187239591451,1.6928058415290463,tremor
20,9307758,0.161,-0.31676293004334183,-0.18110226902859963,-0.9870997094686025,0.338846443817648,-34.439905027738696,1.9364432231970496,tremor
21,9307763,0.166,-0.3174098420058181,-0.18045150359731407,-0.9845105797162095,0.42877673757218365,-37.13042022342897,2.1780623046254317,tremor
22,9307767,0.17,-0.31856477825451346,-0.17981059899998633,-0.9814415643370419,0.5078860855680659,-39.7636798169078,2.415814489715136,tremor
23,9307772,0.175,-0.3202590137275269,-0.1791796026634536,-0.977875861575522,0.5755007717158466,-42.31947287324332,2.647818138770248,tremor
24,9307776,0.179,-0.3225218095870923,-0.178558626311556,-0.9737991187171766,0.6309969755896351,-44.777287210957496,2.8721773608461825,tremor
25,9307781,0.184,-0.3253800941514187,-0.17794786952407096,-0.969199665142663,0.6738074678143418,-47.11649616603231,3.087002047296823,tremor
26,9307786,0.189,-0.3288581451107166,-0.17734764063846664,-0.9640687344763889,0.7034282994194022,-49.316559789223135,3.290429015673068,tremor
27,9307801,0.204,-0.3329772775336438,-0.17675837492648316,-0.9584006719342651,0.7194254402145217,-51.35723941742505,3.480644111129895,tremor
28,9307810,0.213,-0.33775554183936907,-0.17618064989708554,-0.952193123232893,0.721441313738417,-53.21882428823591,3.6559050889862683,tremor
29,9307831,0.234,-0.3432074357477159,-0.1756151975459351,-0.9454472015892929,0.7092011686051828,-54.88236857504233,3.8145650770358497,tremor
30,9307836,0.239,-0.34934363416895553,-0.17506291337080504,-0.9381676294596062,0.6825192185597396,-56.32993690834488,3.955096389059658,tremor
31,9307840,0.243,-0.35617074101435214,-0.17452486198956668,-0.930362851767185,0.641304475667482,-57.54485611911606,4.076114430975229,tremor
32,9307865,0.268,-0.36369106696275333,-0.17400227922392486,-0.9220451174783598,0.5855661919072744,-58.511970594491224,4.176401407881681,tremor
33,9307870,0.273,-0.37190243727566324,-0.17349657054310788,-0.9132305265165658,0.5154188137124865,-59.217898277769784,4.254929504493172,tremor
34,9307874,0.277,-0.3807980337891577,-0.17300930579557136,-0.9039390391760328,0.431086342451071,-59.651283975651495,4.310883174380314,tremor
35,9307879,0.282,-0.39036627521067585,-0.17254221019388846,-0.8941944454135388,0.33290598302505475,-59.80304625833113,4.3436801365458155,tremor
36,9307888,0.291,-0.4005907398037759,-0.17209715155923577,-0.8840242916661151,0.22133095430844518,-59.66661385565739,4.352990642277625,tremor
37,9307914,0.317,-0.4114501344485019,-0.1716761238772952,-0.8734597631683706,0.09693232983629643,-59.23814706750798,4.338754541706371,tremor
38,9307924,0.327,-0.4229183139123544,-0.17128122726593864,-0.8625355201306739,-0.03960022482619485,-58.51673932116269,4.301195648970993,tremor
39,9307949,0.352,-0.434964353947256,-0.17091464450481678,-0.8512894865971854,-0.1874589495715037,-57.50459362767412,4.2408328786590745,tremor
40,9308005,0.408,-0.4475526815280572,-0.17057861432534485,-0.839762591342511,-0.3457198462495969,-56.207168326580636,4.158487606151949,tremor
41,9308010,0.413,-0.4606432651474667,-0.17027540170412186,-0.8279984608020314,-0.5133460059045883,-54.633286210653,4.055286696677856,tremor
42,9308025,0.428,-0.4741918675396905,-0.17000726544369948,-0.8160430647807173,-0.689192504725353,-52.79520100868275,3.9326606678305227,tremor
43,9308030,0.433,-0.48815036244781806,-0.169776423366791,-0.803944316566777,-0.872012956189039,-50.70861545004635,3.792336519748893,tremor
44,9308034,0.437,-0.502467115990143,-0.1695850155012116,-0.7917516301006456,-1.0604677994547331,-48.392645867377105,3.636324897807558,tremor
45,9308039,0.442,-0.5170874317542322,-0.16943506569795114,-0.7795154380070082,-1.2531343929261312,-45.86972950619879,3.466901435253002,tremor
46,9308044,0.447,-0.5319540569415802,-0.16932844220236104,-0.7672866755543408,-1.448518958669284,-43.16547229398235,3.2865823359009934,tremor
47,9308062,0.465,-0.5470077447365748,-0.16926681778197714,-0.7551162369137315,-1.6450703844499954,-40.308436653466536,3.0980944810017967,tremor
48,9308068,0.471,-0.5621878656583105,-0.16925163009479768,-0.7430544113851755,-1.8411958379555848,-37.32987093162287,2.9043405689112474,tremor
49,9308077,0.48,-0.5774330580952356,-0.16928404304744304,-0.7311503084616036,-2.0352780878340626,-34.263384076564016,2.708360013173853,tremor
50,9308082,0.485,-0.5926819056970707,-0.16936490993009679,-0.7194512815985256,-2.225694364212626,-31.144571240258554,2.5132865232111796,tremor
51,9308087,0.49,-0.6078736270175986,-0.16949473911207827,-0.7080023612375017,-2.4108365308852138,-28.01059791006051,2.3223034589148543,tremor
52,9308091,0.494,-0.6229487609670956,-0.16967366303129497,-0.6968457079170458,-2.589132282068187,-24.89975187874031,2.138598174852827,tremor
53,9308118,0.521,-0.6378498303989808,-0.1699014111126239,-0.6860200961715494,-2.7590670145248946,-21.850973780709044,1.9653166436919836,tremor
54,9308128,0.531,-0.652521965641708,-0.1701772871097851,-0.675560439388241,-2.9192059565926693,-18.90337797551621,1.8055196622461795,tremor
55,9308133,0.536,-0.6669134701323894,-0.17050015119129766,-0.6654973649034011,-3.068216060318004,-16.095776090247085,1.6621418794246592,tremor
56,9308138,0.541,-0.6809763116857537,-0.17086840689548263,-0.6558568474079802,-3.204887092586784,-13.466215312473837,1.5379547235225923,tremor
57,9308143,0.546,-0.6946665254618236,-0.17127999287668846,-0.6466599072322325,-3.3281513143418096,-11.051542428583662,1.4355340465014956,tremor
58,9308152,0.555,-0.70794451833164,-0.17173237917039333,-0.637922378335506,-3.437101130286716,-8.887002744835456,1.3572329765491877,tremor
59,9308157,0.56,-0.7207752688491507,-0.17222256753300494,-0.6296547489077179,-3.5310041324397066,-7.0058806935591,1.3051601264153811,tremor
60,9308162,0.565,-0.7331284220754297,-0.17274709527654425,-0.6218620754695469,-3.6093150501762152,-5.439186393854427,1.2811629892017071,tremor
61,9308167,0.57,-0.7449782836945483,-0.1733020419327954,-0.6145439693134062,-3.6716842563514076,-4.215389913394035,1.2868160977212062,tremor
62,9308172,0.575,-0.7563037228501478,-0.1738830380595657,-0.6076946521276497,-3.7179626615459522,-3.360202622679352,1.3234133449563772,tremor
63,9308181,0.584,-0.7670879975960037,-0.17448527555504298,-0.6013030757650233,-3.748203047117073,-2.8964029667115585,1.3919637628690547,tremor
64,9308191,0.594,-0.7773185204931282,-0.17510351898418688,-0.595353099438384,-3.762658121839917,-2.843702302238284,1.493190028061798,tremor
65,9308201,0.604,-0.7869865843820408,-0.1757321176504872,-0.5898237162641017,-3.7617758038035873,-3.218645278927479,1.6275290004716747,tremor
66,9308206,0.609,-0.7960870693654357,-0.17636501846578148,-0.5846893201729372,-3.7461923877955012,-4.034538732423204,1.7951337046920934,tremor
67,9308211,0.614,-0.8046181512519659,-0.17699578005892203,-0.5799200039321993,-3.7167243204505236,-5.301403337613875,1.9958763312089414,tremor
68,9308216,0.619,-0.8125810290015303,-0.17761758897328386,-0.5754818794968859,-3.674359252944171,-7.025943350599775,2.2293520582927124,tremor
69,9308248,0.651,-0.8199796841967671,-0.1782232791663153,-0.5713374131567543,-3.620246886535153,-9.211531490003017,2.4948837559013692,tremor
70,9308252,0.655,-0.8268206796591971,-0.17880535627126584,-0.5674457698505952,-3.555689906503979,-11.858208079483333,2.791527896756382,tremor
71,9308257,0.66,-0.833112997772491,-0.17935602815454904,-0.5637631632862776,-3.4821350600535377,-14.962695597337314,3.1180822082860864,tremor
72,9308262,0.665,-0.8388679128770151,-0.17986724317207883,-0.5602432107049998,-3.401164214489697,-18.51843131750156,3.4730956804770146,tremor
73,9308267,0.67,-0.8440988872445072,-0.18033073720424764,-0.5568372928354699,-3.3144850628534877,-22.515621469469774,3.854881458337755,tremor
74,9308277,0.68,-0.848821477232073,-0.18073809008125796,-0.5534949205507467,-3.2239210393027475,-26.94132025549826,4.261532918186668,tremor
75,9308281,0.684,-0.8530532353771972,-0.1810807914684941,-0.5501641099407116,-3.1313999687657224,-31.77953630999245,4.6909429241898,tremor
76,9308291,0.694,-0.8568135952686281,-0.18135031573350413,-0.546791767051951,-3.0389410049587027,-37.01136797139228,5.140825959310605,tremor
77,9308296,0.699,-0.8601237287349052,-0.1815382048152166,-0.5433240825720679,-2.9486395079859973,-42.615167240826125,5.608742580336257,tremor
78,9308301,0.704,-0.8630063688487666,-0.1816361576988433,-0.5397069354155306,-2.8626496697955996,-48.566730722420495,6.092125493520852,tremor
79,9308306,0.709,-0.8654855969218368,-0.18163612478779284,-0.5358863026960354,-2.7831648899003607,-54.83951440184047,6.588306489406108,tremor
80,9308310,0.713,-0.8675865964372399,-0.18153040526445519,-0.5318086721469784,-2.712396101468538,-61.40486800826403,7.0945434914157985,tremor
81,9308315,0.718,-0.8693353811482982,-0.18131174544156436,-0.5274214518538188,-2.6525484180097516,-68.23228400655134,7.608047034710323,tremor
82,9308320,0.723,-0.870758507893915,-0.18097343611451883,-0.5226733713234147,-2.6057965942332384,-75.28965597686289,8.126005580012938,tremor
83,9308330,0.733,-0.8718827867217772,-0.18050940701828724,-0.5175148675273233,-2.5742598640093517,-82.54354121955816,8.64560917370943,tremor
84,9308335,0.738,-0.8727350014694311,-0.17991431665275923,-0.5118984496756095,-2.559976731639833,-89.95942283309547,9.164071088194792,tremor
85,9308367,0.77,-0.8733416529494922,-0.17918363594438436,-0.5057790371272173,-2.5648802477790347,-97.50196720056377,9.678647212818937,tremor
86,9308372,0.775,-0.873728734409832,-0.17831372443047,-0.4991142659866392,-2.590774203294671,-105.13527369948744,10.186653109062481,tremor
87,9308376,0.779,-0.8739215453736897,-0.1773018978562732,-0.49186476143390967,-2.639310549535047,-112.82311438421718,10.6854787777253,tremor
88,9308381,0.784,-0.8739445460111464,-0.17614648624422544,-0.48399437443037435,-2.7119682462635715,-120.52916222327795,11.172601287382204,tremor
89,9308391,0.794,-0.8738212506516984,-0.1748468816254113,-0.47547038285352283,-2.8100336814555456,-128.21720709222814,11.64559546480039,tremor
90,9308395,0.798,-0.873574156468136,-0.1734035747285009,-0.4662636581571028,-2.9345827990741435,-135.85135910174841,12.102142850779217,tremor
91,9308400,0.803,-0.87322470190526,-0.17181818002552998,-0.4563487992875518,-3.086465089728086,-143.39623902333489,12.540039095345744,tremor
92,9308405,0.808,-0.8727932489859892,-0.17009344866492815,-0.4457042358664687,-3.266289625568278,-150.8171556215101,12.957199923190766,tremor
93,9308415,0.818,-0.8722990839928159,-0.16823326899926666,-0.43431230265665915,-3.474413344361405,-158.08026967152,13.351665757987451,tremor
94,9308424,0.827,-0.8717604319562003,-0.16624265464162083,-0.4221592871616056,-3.710931799748203,-165.15274439915294,13.72160506280958,tremor
95,9308429,0.832,-0.8711944816279465,-0.1641277202461042,-0.40923545196512523,-3.97567258600804,-172.0028820943072,14.065316440113754,tremor
96,9308434,0.837,-0.8706174189078778,-0.16189564547631963,-0.3955350331967032,-4.268191610192945,-178.60024678574206,14.381229542197742,tremor
97,9308439,0.842,-0.8700444677681346,-0.159554627864104,-0.38105621638881765,-4.5877723236904275,-184.9157731553069,14.66790487088671,tremor
98,9308449,0.852,-0.8694899383843624,-0.15711382543857333,-0.36580109102307,-4.933427948398549,-190.92186230189938,14.924032587863387,tremor
99,9308454,0.857,-0.8689672823423031,-0.154583290105858,-0.3497755852491936,-5.303906653364579,-196.5924654816824,15.1484305054804,tremor
100,9308459,0.862,-0.8684891544451261,-0.15197389278412016,-0.3329893825749959,-5.697699569396773,-201.90315747595028,15.340041471632516,tremor
101,9308464,0.867,-0.8680674798710057,-0.14929724126061647,-0.3154558227081327,-6.113051481586536,-206.83120169831585,15.497930391395794,tremor
102,9308500,0.903,-0.8677135243409099,-0.1465655916609429,-0.2971917891086289,-6.547974016437594,-211.35560949021698,15.621281135238135,tremor
103,9308504,0.907,-0.8674379637342639,-0.1437917543352635,-0.27821758610354014,-7.000261137262925,-215.45719622211323,15.709393566066836,tremor
104,9308509,0.912,-0.8672509484991338,-0.14098899490547384,-0.25855680853348545,-7.467506767408321,-219.11863676886242,15.76168087911457,tremor
105,9308514,0.917,-0.8671621575575705,-0.1381709312085295,-0.23823620675687793,-7.9471243615951535,-222.32452262057274,15.777667399383404,tremor
106,9308519,0.922,-0.8671808364426975,-0.13535142692456564,-0.21728554938482902,-8.436368232236019,-225.0614223385997,15.756986932336469,tremor
107,9308524,0.927,-0.8673158151535942,-0.13254448278038744,-0.19573748539426628,-8.932356410955906,-227.31794636010616,15.699381722600435,tremor
108,9308528,0.931,-0.8675755025070434,-0.12976412634035314,-0.1736274063768927,-9.43209479297301,-229.08481640975364,15.604702045695753,tremor
109,9308533,0.936,-0.8679678553491711,-0.1270243015081391,-0.1509933087535678,-9.932502279824803,-230.354939075512,15.472906439541877,tremor
110,9308538,0.941,-0.8685003226355487,-0.12433875894387796,-0.12787565492087655,-10.430436607171833,-231.12348248568398,15.304062574888345,tremor
111,9308543,0.946,-0.8691797659235698,-0.12172094864092946,-0.10431723157022102,-10.922720520619611,-231.38795450309507,15.098348764686039,tremor
112,9308548,0.951,-0.8700123591264283,-0.11918391590149367,-0.0803630028740211,-11.406167946513719,-231.14828044082154,14.85605611704714,tremor
113,9308553,0.956,-0.8710034713767718,-0.11674020190179052,-0.056059955892162075,-11.877609802058094,-230.40687800863222,14.57759133815049,tremor
114,9308557,0.96,-0.8721575374988195,-0.11440174995038388,-0.031456935422220306,-12.33391910603002,-229.1687270196904,14.263480184199105,tremor
115,9308562,0.965,-0.8734779208800023,-0.11217981842430096,-0.006604465594078634,-12.772035089487032,-227.44143131193405,13.914371542513564,tremor
116,9308567,0.97,-0.8749667734831319,-0.1100849012247592,0.018445444222210273,-13.18898606009438,-225.2352703496732,13.53104209169944,tremor
117,9308572,0.975,-0.8766248973862771,-0.10812665643546446,0.04363951119092643,-13.58191083574441,-222.56323804891136,13.114401452483623,tremor
118,9308577,0.98,-0.8784516116371067,-0.10631384369867825,0.0689234098898143,-13.948078626066668,-219.4410664977223,12.665497698486321,tremor
119,9308582,0.985,-0.8804446274328684,-0.10465427065313868,0.09424202303667255,-14.284907299343036,-215.88723240656398,12.185523054463811,tremor
120,9308587,0.99,-0.8825999337660431,-0.10315474860696842,0.11953971205240643,-14.58998002269435,-211.92294431046886,11.675819572153005,tremor
121,9308614,1.017,-0.8849116947912689,-0.10182105744916588,0.1447606066534936,-14.86106030054151,-207.57210874330772,11.137884543142833,tremor
122,9308619,1.022,-0.8873721593589571,-0.10065791963448942,0.16984891186922352,-15.096105456275373,-202.8612737978505,10.573375385827715,tremor
123,9308628,1.031,-0.8899715825299312,-0.09966898290712697,0.1947492301438586,-15.293278602363218,-197.8195486518535,9.984113730524973,tremor
124,9308633,1.036,-0.8926981585510321,-0.09885681125906919,0.219406895597573,-15.450959125903067,-192.47849775820129,9.37208842227768,tremor
125,9308638,1.041,-0.8955379648203172,-0.09822288345573127,0.2437683171550548,-15.567751687144872,-186.8720084636653,8.739457160369568,tremor
126,9308648,1.051,-0.8984749168049243,-0.0977675983175741,0.26778132711954294,-15.642493699756564,-181.03613086384092,8.088546490964312,tremor
127,9308652,1.055,-0.9014907346075162,-0.09749028584075295,0.2913955318194146,-15.67426124416781,-175.00888876814955,7.421849860945892,tremor
128,9308657,1.06,-0.9045649227702753,-0.09738922319092187,0.3145626610988994,-15.662373363417453,-168.83006078524616,6.742023429868896,tremor
129,9308662,1.065,-0.9076747658129416,-0.09746165462651808,0.3372369135821502,-15.606394703658921,-162.54093078268224,6.051879332078713,tremor
130,9308667,1.07,-0.9107953427965455,-0.09770381450693036,0.3593752947492489,-15.506136486096214,-156.18400734927056,5.3543760936342135,tremor
131,9308672,1.075,-0.9138995647899695,-0.09811095271215943,0.380937944886847,-15.361655830184382,-149.80271240468582,4.652605946555574,tremor
132,9308677,1.08,-0.9169582394232024,-0.09867736203012062,0.4018884539009776,-15.173253485305567,-143.44103975781042,3.949778847965088,tremor
133,9308681,1.084,-0.9199401666919207,-0.0993964073364795,0.42219415981043185,-14.941470065633714,-137.1431852039985,3.2492031005939896,tremor
134,9308686,1.089,-0.9228122698035973,-0.1002605566782014,0.4418264274969946,-14.667080916891868,-130.95315065418194,2.5542625788163718,tremor
135,9308691,1.094,-0.9255397641145195,-0.10126141465265419,0.46076090400473324,-14.351089770929097,-124.9143257815443,1.8683906860352084,tremor
136,9308696,1.099,-0.9280863661081874,-0.10238975872452702,0.478977746387384,-13.994721360799577,-119.06905172754398,1.1950412997270623,tremor
137,9308701,1.104,-0.9304145429377104,-0.103635579317952,0.496461817831417,-13.599413170897106,-113.45817250028713,0.5376570936363658,tremor
138,9308706,1.109,-0.9324858013491363,-0.10498812463852245,0.5132028475623814,-13.166806480221512,-108.12058079471751,-0.10036424343887249,tremor
139,9308710,1.113,-0.9342610128923119,-0.1064359512030922,0.529195549902832,-12.698736821928899,-103.09276603353723,-0.7157052504899686,tremor
140,9308737,1.14,-0.9357007703068185,-0.10796698097630791,0.5444396978193023,-12.197223932333522,-98.40837342801674,-1.3051646452298957,tremor
141,9308742,1.145,-0.9367657679762615,-0.10956856583344875,0.5589401464070933,-11.664461202696389,-94.09778370414871,-1.8656931332666933,tremor
142,9308746,1.149,-0.93741719757744,-0.11122755980388559,0.5727068020709668,-11.10280458447307,-90.18772366457044,-2.394428157515637,tremor
143,9308751,1.154,-0.9376171487798862,-0.11293039922774749,0.5857545337453055,-10.514760842673859,-86.70091774848984,-2.8887266501712876,tremor
144,9308756,1.159,-0.9373290043175173,-0.11466319061896357,0.5981030234220577,-9.902975011933897,-83.65579009171098,-3.346194893695007,tremor
145,9308766,1.169,-0.9365178190576103,-0.11641180570756239,0.6097765545219914,-9.270216891682288,-81.0662253325911,-3.7647147041235587,tremor
146,9308771,1.174,-0.9351506737754849,-0.11816198286092243,0.6208037381944548,-8.619366424450847,-78.94139470048728,-4.142465307044562,tremor
147,9308776,1.179,-0.9331969960718818,-0.11989943387871367,0.6312171793732168,-7.9533978404628725,-77.28565186492963,-4.47794047183083,tremor
148,9308800,1.203,-0.9306288431009615,-0.12160995503827775,0.6410530862571782,-7.275362527258241,-76.09850067581291,-4.769960693168935,tremor
149,9308805,1.208,-0.9274211433499389,-0.12327954125170558,0.6503508287234201,-6.588370692576343,-75.37463439529067,-5.017680442298783,tremor
150,9308834,1.237,-0.9235518973836417,-0.12489450228848552,0.6591524528849807,-5.895572016710022,-75.10404354911759,-5.220590717318496,tremor
151,9308862,1.265,-0.9190023398527167,-0.12644158020161417,0.6675021604010256,-5.200135610232484,-75.27218746311112,-5.3785172553668685,tremor
152,9308866,1.269,-0.9137570666679663,-0.1279080673136826,0.675445762038869,-4.505229671788089,-75.86022322991448,-5.491614802005842,tremor
153,9308872,1.275,-0.9078041316559327,-0.12928192426983273,0.6830301152436263,-3.814001252164872,-76.84528539018588,-5.5603577832657525,tremor
154,9308876,1.279,-0.9011351161741794,-0.13055189763266478,0.6903025551088398,-3.1295564725811493,-78.20080982784552,-5.585527647361391,tremor
155,9308881,1.284,-0.8937451734559124,-0.13170763622023798,0.6973103273378178,-2.454941444835076,-79.89689589944227,-5.56819708498858,tremor
156,9308886,1.289,-0.885633047470287,-0.13273980490300244,0.7041000307934213,-1.793124038986804,-81.90070131048466,-5.509711316779908,tremor
157,9308890,1.293,-0.8768010643502263,-0.1336401939767019,0.7107170762735581,-1.1469765680022683,-84.17686455967016,-5.411666647012246,tremor
158,9308895,1.298,-0.8672550932759026,-0.1344018216314185,0.7172051673547988,-0.5192594150066078,-86.68794987992494,-5.27588651293382,tremor
159,9308900,1.303,-0.8570044732572608,-0.13501902654369993,0.7236058085678135,0.08739438789173995,-89.39490954930723,-5.104395302495917,tremor
160,9308904,1.307,-0.8460619025612359,-0.13548754730974352,0.7299578457982902,0.670493618221235,-92.25755826754111,-4.899390265211145,tremor
161,9308909,1.312,-0.8344432885201299,-0.13580458537071458,0.7362970436070889,1.2277023357883774,-95.23505403582274,-4.663211895757577,tremor
162,9308914,1.317,-0.8221675570121803,-0.135968848283658,0.7426557040797799,1.7568523308783608,-98.28637967900654,-4.39831322105497,tremor
163,9308919,1.322,-0.809256422850322,-0.13598057065224656,0.7490623317844407,2.2559544986942925,-101.37081885418856,-4.107228461735697,tremor
164,9308923,1.326,-0.7957341244517087,-0.13584151070679115,0.755541349367907,2.7232090891054104,-104.44842014665205,-3.7925415620729916,tremor
165,9308928,1.331,-0.781627128291228,-0.1355549213511072,0.7621128681856841,3.157014790968227,-107.48044271315672,-3.4568550855883164,tremor
166,9308933,1.336,-0.7669638105886067,-0.13512549540983768,0.7687925180775866,3.555976630086116,-110.42977694047839,-3.1027599594802595,tremor
167,9308937,1.34,-0.7517741252852636,-0.13455928575122084,0.7755913399188932,3.9189126798805525,-113.26133378496007,-2.7328065277686546,tremor
168,9308942,1.345,-0.736089268501075,-0.13386360187092627,0.7825157438578917,4.244859589922991,-115.94239687918385,-2.3494773482884064,tremor
169,9308947,1.35,-0.7199413502161885,-0.13304688535653442,0.7895675351729098,4.533076919668404,-118.4429321526521,-1.955162141438155,tremor
170,9308951,1.354,-0.7033630838238513,-0.13211856737670405,0.7967440084396746,4.7830502245287505,-120.7358506102124,-1.5521352571738714,tremor
171,9308956,1.359,-0.6863875034064053,-0.13108891193489,0.8040381092048737,4.99449278933332,-122.79722101647805,-1.1425359576682126,tremor
172,9308983,1.386,-0.6690477170963339,-0.12996884908585785,0.8114386606464384,5.167345852473554,-124.60643050007108,-0.7283517139714949,tremor
173,9308987,1.39,-0.6513767027507088,-0.12876980262569782,0.8189306508349244,5.301777125921999,-126.14629245392528,-0.31140459841968876,tremor
174,9308992,1.395,-0.6334071495324436,-0.12750351690869727,0.8264955743316712,5.398177411068285,-127.4031024737084,0.10665925954732845,tremor
175,9308997,1.4,-0.615171346105303,-0.1261818873743702,0.8341118201787311,5.457155157242214,-128.36664432713087,0.5243772798593412,tremor
176,9309002,1.405,-0.59670111332612,-0.12481679904822487,0.8417550970658856,5.479528909061171,-129.0301489821664,0.940475288044388,tremor
177,9309007,1.41,-0.5780277768440334,-0.12341997671398991,0.8493988857196124,5.466317713938567,-129.39021050097153,1.3538698374109448,tremor
178,9309012,1.415,-0.5591821730872445,-0.1220028496939418,0.8570149083430189,5.418729678159385,-129.44666313791342,1.7636682157516899,tremor
179,9309016,1.419,-0.5401946808312659,-0.12057643329387616,0.8645736051668643,5.338148949484097,-129.2024242916609,2.169166341373911,tremor
180,9309021,1.424,-0.5210952699254935,-0.11915122804881784,0.8720446087544418,5.226121464203796,-128.6633080840193,2.5698447326202634,tremor
181,9309026,1.429,-0.5019135587800684,-0.11773713701687218,0.8793972075458688,5.084339831539352,-127.83781430750857,2.9653627134380662,tremor
182,9309031,1.434,-0.482678872811768,-0.11634340057551176,0.8866007911455912,4.91462774102045,-126.73689733647936,3.3555509970557726,tremor
183,9309036,1.439,-0.46342029710986876,-0.11497854752994181,0.8936252709734916,4.718924268323499,-125.37371936767349,3.740402769333655,tremor
184,9309041,1.444,-0.4441667179782962,-0.11365036088278622,0.9004414710479572,4.499268420853592,-123.7633920757417,4.120063370985527,tremor
185,9309046,1.449,-0.42494684959424744,-0.11236585635122819,0.9070214847949496,4.2577842080791175,-121.9227104604111,4.494818654551574,tremor
186,9309051,1.454,-0.4057892436547307,-0.11113127164250716,0.913338994841426,3.9966664495279884,-119.8698823413237,4.865082072954894,tremor
187,9309056,1.459,-0.3867222814360935,-0.10995206458523625,0.9193695537277115,3.7181674546150396,-117.6242566377976,5.231380548133973,tremor
188,9309060,1.463,-0.36777414906457995,-0.1088329184259622,0.9250908243439838,3.4245846326033083,-115.20605326712867,5.594339173573409,tremor
189,9309066,1.469,-0.34897279790821467,-0.1077777528951495,0.9304827796525286,3.118249025556276,-112.6360972183459,5.954664821645776,tremor
190,9309071,1.474,-0.3303458927934286,-0.10678973997820505,0.9355278619049748,2.8015147066676462,-109.93555911720927,6.31312875151249,tremor
191,9309075,1.478,-0.31192075118757956,-0.1058713236489612,0.940211102121,2.476748952497667,-107.1257043974043,6.6705483431206565,tremor
192,9309080,1.483,-0.29372427656263017,-0.10502424309413033,0.944520201085493,2.146323079468668,-104.22765303254353,7.027768116476646,tremor
193,9309106,1.509,-0.27578288889119446,-0.1042495591476949,0.9484455735638341,1.8126038292481914,-101.26215165942793,7.385640231534035,tremor
194,9309111,1.514,-0.2581224546818042,-0.10354768374914597,0.951980357839985,1.4779451893377145,-98.24935982735299,7.7450047001454365,tremor
195,9309116,1.519,-0.24076821821901334,-0.10291841224158138,0.9551203930483415,1.1446805387601726,-95.20865203105983,8.106669575316266,tremor
196,9309121,1.524,-0.2237447348352324,-0.10236095825605902,0.9578641670839756,0.8151150108741374,-92.15843711550708,8.471391413991086,tremor
197,9309125,1.528,-0.20707580620324897,-0.10187399082234655,0.9602127381161044,0.4915179674508364,-89.11599657141574,8.839856338320828,tremor
198,9309135,1.538,-0.19078441687760242,-0.10145567324083088,0.9621696328794261,0.17611548541515032,-86.09734317011282,9.212662046408155,tremor
199,9309150,1.553,-0.17489267067461878,-0.10110370317405283,0.963740724970713,-0.1289172254693891,-83.11710131551528,9.590301144580794,tremor
200,9309155,1.558,-0.15942172498879723,-0.10081535338286064,0.9649340963368405,-0.42146352905463774,-80.18841041306982,9.973146184490034,tremor
201,9309160,1.563,-0.14439172081761686,-0.10058751254145772,0.9657598850167615,-0.6994732162231231,-77.32285244628301,10.361436782350166,tremor
202,9309170,1.573,-0.12982170613577143,-0.10041672560692098,0.9662301220142864,-0.9609704962796233,-74.53040477461667,10.755269166683783,tremor
203,9309174,1.577,-0.11572955035791649,-0.10029923327620985,0.9663585599587952,-1.204062091343655,-71.81941888852644,11.154588441107245,tremor
204,9309184,1.587,-0.10213184798870417,-0.1002310101231672,0.966160495986977,-1.4269453815834072,-69.19662545782415,11.559183761554303,tremor
205,9309189,1.592,-0.08904381020325869,-0.10020780106198673,0.9656525910764119,-1.6279165413857595,-66.66716547955753,11.968686518047814,tremor
206,9309199,1.602,-0.07647914403823983,-0.10022515583210839,0.9648526878999817,-1.8053786075391793,-64.23464667733971,12.38257148670205,tremor
207,9309203,1.606,-0.06444992008750844,-0.10027846124889762,0.9637796291579913,-1.957849429065989,-61.90122355540433,12.800160786891588,tremor
208,9309229,1.632,-0.05296643103499444,-0.10036297102539596,0.9624530782814019,-2.0839694631217367,-59.667698720806854,13.22063035222177,tremor
209,9309239,1.642,-0.04203704491240919,-0.1004738330543013,0.9608933443723343,-2.1825094001978735,-57.533642328572626,13.643018515631448,tremor
210,9309243,1.646,-0.03166805845370029,-0.10060611415307291,0.9591212132321537,-2.2523776207419224,-55.497525872783555,14.066236236197312,tremor
211,9309248,1.651,-0.021863557076634767,-0.10075482241577914,0.9571577862878534,-2.2926274985434496,-53.55686614762609,14.489078475129833,tremor
212,9309253,1.656,-0.012625288615699228,-0.1009149274689716,0.9550243291294335,-2.3024645683950844,-51.70837510057615,14.910236265835106,tremor
213,9309258,1.661,-0.003952557845902703,-0.1010813790748596,0.9527421311945042,-2.281253564319382,-49.94811147314063,15.328309103176295,tremor
214,9309263,1.666,0.004157851881758837,-0.10124912464313053,0.9503323778813353,-2.228525312074309,-48.271630487843865,15.741817375259993,tremor
215,9309268,1.671,0.01171172478281127,-0.101413126287217,0.9478160360513287,-2.1439834305507044,-46.674128307456314,16.14921465724467,tremor
216,9309273,1.676,0.01871742298306895,-0.10156837808139185,0.9452137535144857,-2.0275107662153506,-45.15057850820586,16.548899771439388,tremor
217,9309277,1.68,0.025185859184737425,-0.10170992413746852,0.9425457726953114,-1.879175456956217,-43.695858340093004,16.939228587917707,tremor
218,9309282,1.685,0.031130431496571857,-0.10183287802655955,0.9398318582693637,-1.6992364990703226,-42.30486307147628,17.318525592652783,tremor
219,9309287,1.69,0.03656692189263569,-0.10193244393111038,0.9370912381583391,-1.488148674624619,-40.97260721345578,17.685095284043314,tremor
220,9309297,1.7,0.04151336119061804,-0.10200393973859118,0.9343425568884424,-1.2465666853758215,-39.69431187608272,18.037233474017814,tremor
221,9309301,1.704,0.045989864592631546,-0.10204282209693741,0.9316038399658002,-0.9753483321720843,-38.465477907799055,18.373238569178582,tremor
222,9309306,1.709,0.05001844264761682,-0.10204471326148998,0.9288924676168918,-0.675556573696797,-37.28194479956875,18.69142289377855,tremor
223,9309311,1.714,0.05362279293051146,-0.10200542939366647,0.9262251559951644,-0.3484602951844623,-36.13993559216846,18.990124092073028,tremor
224,9309316,1.719,0.05682807777101638,-0.10192100984116795,0.9236179437799215,0.004466382603180635,-35.03608821818174,19.267716614157745,tremor
225,9309321,1.724,0.05966069302277118,-0.10178774685039654,0.921086181998655,0.3815464196087857,-33.967473858755,19.52262324804783,tremor
226,9309356,1.759,0.06214803219851317,-0.10160221513763247,0.9186445248921913,0.7809039532818911,-32.93160301939668,19.753326613908317,tremor
227,9309370,1.773,0.06431824940285856,-0.10136130077218289,0.9163069197149738,1.200470314529933,-31.926420143240737,19.958380489428123,tremor
228,9309375,1.778,0.06620002351625905,-0.10106222889119218,0.9140865935277196,1.6379920764388007,-30.950287693447702,20.136420798132438,tremor
229,9309380,1.783,0.06782232521216283,-0.10070258985569117,0.9119960353100257,2.091041214581386,-30.001960755945486,20.28617607633745,tremor
230,9309390,1.793,0.06921418780077372,-0.10028036355286167,0.9100469721037219,2.5570274142495175,-29.080553342772344,20.40647724424051,tremor
231,9309395,1.798,0.07040448266347961,-0.09979394163647218,0.9082503383794771,3.0332125127240226,-28.185497709976413,20.496266535257863,tremor
232,9309399,1.802,0.0714217001222234,-0.09924214756812651,0.9066162383601443,3.516727019142052,-27.316498128204287,20.554605471525026,tremor
233,9309404,1.807,0.07229373685338684,-0.09862425437221788,0.9051539015827629,4.004588613641937,-26.473480638542938,20.58068180204517,tremor
234,9309409,1.812,0.0730476912760641,-0.09794000004437987,0.903871632488925,4.493722492257003,-25.656540370615545,20.57381534065719,tremor
235,9309414,1.817,0.073709668622023,-0.09718960055497025,0.9027767552659385,4.980983394516115,-24.86588798103266,20.53346265661154,tremor
236,9309419,1.822,0.07430459756960475,-0.09637376036591183,0.9018755554994462,5.4631791262099,-24.101796685864397,20.459220584588035,tremor
237,9309429,1.832,0.07485606036699573,-0.09549368033376368,0.9011732204335006,5.937095369176488,-23.36455121913511,20.350828534751543,tremor
238,9309433,1.836,0.07538613827410097,-0.09455106280993568,0.9006737797662698,6.399521551983119,-22.65439986520937,20.208169596395614,tremor
239,9309438,1.841,0.07591527392648045,-0.09354811367988418,0.9003800489452785,6.847277538604084,-21.971510503020575,20.031270440371422,tremor
240,9309443,1.846,0.07646215189419693,-0.09248754101962454,0.9002935768778044,7.277240875044035,-21.315931380415982,19.820300036633856,tremor
241,9309478,1.881,0.07704359830900531,-0.09137255000340543,0.9004145998561917,7.6863743149925465,-20.687557123220262,19.57556721613774,tremor
242,9309483,1.886,0.07767450001153811,-0.09020683368098506,0.9007420033343179,8.071753324877253,-20.086100293957383,19.297517123706065,tremor
243,9309488,1.891,0.07836774328720916,-0.08899455925967281,0.9012732930042993,8.430593248148531,-19.511068669887248,18.98672663194256,tremor
244,9309493,1.896,0.07913417198717689,-0.08774034957025047,0.9020045764377445,8.760275791630354,-18.9617483234055,18.64389881561874,tremor
245,9309498,1.901,0.07998256472396341,-0.08644925945755393,0.9029305563944414,9.058374484985933,-18.43719255552706,18.269856619971424,tremor
246,9309507,1.91,0.08091963089761955,-0.08512674690759107,0.9040445367713068,9.322678756544438,-17.936216731898153,17.865535893093412,tremor
247,9309522,1.925,0.08195002550510003,-0.08377863880048134,0.9053384420598428,9.551216263893021,-17.45739907413068,17.431977989021767,tremor
248,9309526,1.929,0.0830763829427002,-0.08241109126401507,0.9068028510852701,9.742273118786152,-16.999087449870242,16.970322179176748,tremor
249,9309536,1.939,0.08429937025071677,-0.08103054469983853,0.9084270456914924,9.894411659663826,-16.55941217299493,16.48179812896187,tremor
250,9309541,1.944,0.08561776039536735,-0.07964367366462224,0.910199074883814,10.006485456831397,-16.13630476394209,15.96771869810966,tremor
251,9309546,1.949,0.08702852617597621,-0.07825733190823993,0.9121058347171592,10.077651285319462,-15.727522526601417,15.429473305643661,tremor
252,9309551,1.954,0.08852695515490355,-0.07687849299082217,0.9141331639032972,10.107377863857417,-15.330678674379117,14.868522064425424,tremor
253,9309555,1.958,0.09010678563392208,-0.07551418700983743,0.916265954705046,10.095451228768772,-14.943277588414206,14.28639083958335,tremor
254,9309560,1.963,0.0917603631666196,-0.0741714340595226,0.9184882782033231,10.041976683404185,-14.562754621367437,13.684667324179081,tremor
255,9309565,1.968,0.09347881643636027,-0.07285717511565531,0.9207835224893877,9.947377333311541,-14.18651967783412,13.064998158700778,tremor
256,9309570,1.973,0.09525225058071071,-0.07157820109076914,0.9231345417798028,9.812389282452218,-13.812003614553426,12.42908705186345,tremor
257,9309596,1.999,0.09706995524375912,-0.07034108084313677,0.9255238139085789,9.638053624710667,-13.436706317414679,11.778693791782102,tremor
258,9309601,2.004,0.09892062383373587,-0.06915208895378767,0.9279336031610134,9.425705415661193,-13.058245139909586,11.11563397280998,tremor
259,9309605,2.008,0.10079257972650792,-0.06801713411762442,0.9303461250381585,9.176959848611085,-12.674402253837501,10.441779209610083,tremor
260,9309610,2.013,0.10267400458569063,-0.06694168903555678,0.9327437093591924,8.893695882148437,-12.283169401643184,9.759057572023877,tremor
261,9309615,2.018,0.10455316366171499,-0.06593072274948603,0.935108958187293,8.578037572604572,-11.882788574291885,9.06945395535939,tremor
262,9309620,2.023,0.10641862292852566,-0.06498863642990253,0.9374248954165026,8.232333358695586,-11.471787267745485,8.375010100250607,tremor
263,9309625,2.028,0.10825945319962535,-0.06411920370006483,0.9396751054388465,7.859133535312583,-11.049007177568676,7.677823990947279,tremor
264,9309630,2.033,0.11006541688281038,-0.06332551665148192,0.9418438590489052,7.461166145632826,-10.613625458204174,6.980048387000259,tremor
265,9309635,2.038,0.1118271337265057,-0.06260993876221711,0.9439162255576985,7.041311518017937,-10.165167987849479,6.283888277206225,tremor
266,9309645,2.048,0.1135362227240196,-0.06197406596165093,0.9458781709019157,6.602575675676436,-9.703514425599915,5.591597082603028,tremor
267,9309650,2.053,0.11518541822094068,-0.06141869708191279,0.9477166422749798,6.148062850588005,-9.228895201700379,4.905471473670704,tremor
268,9309654,2.057,0.11676865916134588,-0.0609438148868849,0.9494196404064228,5.680947337726459,-8.741880914868258,4.227844703154025,tremor
269,9309659,2.062,0.1182811512586202,-0.06054857876636107,0.9509762810202907,5.204444932452921,-8.243364890613838,3.5610783890601576,tremor
270,9309664,2.067,0.1197194026420463,-0.060231330021742184,0.9523768471773849,4.721784204861079,-7.73453985608838,2.9075527127420404,tremor
271,9309669,2.072,0.12108123417940195,-0.05998961045210871,0.9536128341460247,4.236177879496628,-7.216869801890439,2.2696550258403816,tremor
272,9309674,2.077,0.12236576619106973,-0.05982019468165785,0.9546769881777769,3.750794604261489,-6.692058138697148,1.6497668889474688,tremor
273,9309679,2.082,0.12357338364574552,-0.05971913635966814,0.9555633401354217,3.268731404633543,-6.162013234377531,1.0502495958590576,tremor
274,9309688,2.091,0.12470568216209314,-0.05968182802132402,0.9562672343891325,2.7929871257984193,-5.6288123527226155,0.473428271539167,tremor
275,9309693,2.096,0.12576539724066946,-0.05970307403085882,0.9567853528281957,2.3264371646080875,-5.094664922027992,-0.07842532989019581,tremor
276,9309718,2.121,0.12675631912805296,-0.05977717564647995,0.9571157332970682,1.8718097853234992,-4.561875951430959,-0.6031111592954267,tremor
277,9309723,2.126,0.12768319559086025,-0.059898026859263355,0.9572577813227561,1.4316642988555763,-4.032810292680572,-1.0985201285720885,tremor
278,9309728,2.131,0.12855162468450934,-0.060059219278974736,0.9572122737127614,1.0083713666363419,-3.509858318955799,-1.5626540393221866,tremor
279,9309733,2.136,0.12936793938494714,-0.060254153987355966,0.9569813525032748,0.6040956689072965,-2.9954034635020776,-1.9936459037362118,tremor
280,9309738,2.141,0.13013908575535588,-0.060476157975532734,0.9565685078237212,0.22078115255963834,-2.491791933957479,-2.3897803558283464,tremor
281,9309743,2.146,0.13087249617315952,-0.06071860254596458,0.9559785484779281,-0.13986095694107437,-2.001304799231775,-2.749513837634498,tremor
282,9309748,2.151,0.1315759590552817,-0.06097502090450891,0.9552175593662771,-0.4763612339562516,-1.52613253976208,-3.071494235738506,tremor
283,9309752,2.155,0.13225748648891295,-0.06123922210466289,0.9542928452319809,-0.7874981229523929,-1.0683520620902944,-3.3545796364383538,tremor
284,9309757,2.16,0.13292518119315702,-0.06150539854133697,0.9532128605691674,-1.0723009549192122,-0.629906106165787,-3.59785586356309,tremor
285,9309762,2.165,0.1335871042931832,-0.061768224328491314,0.9519871258607194,-1.3300499189896857,-0.21258491783866776,-3.8006524638869426,tremor
286,9309767,2.17,0.13425114546948325,-0.06202294212899374,0.9506261306148394,-1.5602730519544632,0.18198998226438384,-3.9625568145680123,tremor
287,9309772,2.175,0.13492489713464303,-0.06226543632362859,0.9491412239454398,-1.7627403581178454,0.5523801311401824,-4.083426047738831,tremor
288,9309777,2.18,0.13561553437125823,-0.0624922907912703,0.9475444937013394,-1.93745521606843,0.8973427733706606,-4.163396519766019,tremor
289,9309782,2.185,0.13632970241911005,-0.06270083000307924,0.9458486354022384,-2.0846432669423844,1.2158420554412008,-4.202890595254711,tremor
290,9309786,2.189,0.13707341350928376,-0.06288914258872737,0.9440668124933265,-2.2047390112072818,1.507058995324007,-4.202620566943586,tremor
291,9309791,2.194,0.13785195478978218,-0.0630560869914417,0.9422125096899365,-2.2983703693251316,1.7704004568699174,-4.163589591331824,tremor
292,9309796,2.199,0.13866980895448955,-0.06320127927281992,0.9402993814503163,-2.3663414880845792,2.005507351582587,-4.087089585575248,tremor
293,9309801,2.204,0.1395305889607024,-0.06332506354425484,0.9383410978870014,-2.4096141011910337,2.2122622767265407,-3.974696102883276,tremor
294,9309806,2.209,0.14043698789150896,-0.06342846588210035,0.9363511907023584,-2.4292877810120803,2.3907967767791876,-3.8282602789998856,tremor
295,9309811,2.214,0.14139074458947729,-0.06351313292765547,0.934342902007904,-2.4265794478700458,2.5414983825358983,-3.64989801646691,tremor
296,9309816,2.219,0.14239262516980283,-0.06358125668502079,0.9323290391560293,-2.402802532790894,2.6650175348246092,-3.441976639174204,tremor
297,9309841,2.244,0.1434424199376718,-0.06363548731750378,0.9303218389705216,-2.359346217041727,2.7622744315381955,-3.20709930022978,tremor
298,9309851,2.254,0.1445389546267897,-0.06367883601475302,0.9283328449890457,-2.297655191532535,2.834465737394888,-2.9480874558501777,tremor
299,9309856,2.259,0.14568011431590688,-0.06371457026235143,0.9263728014709467,-2.219210379399974,2.883070952787376,-2.6679617218329112,tremor
300,9309861,2.264,0.1468628779712895,-0.06374610408717156,0.9244515678758266,-2.125511031312546,2.9098580485726426,-2.3699214047131747,tremor
301,9309871,2.274,0.14808336140180717,-0.06377688605678024,0.9225780571690573,-2.0180585289405037,2.9168877627438583,-2.057322952545404,tremor
302,9309875,2.278,0.14933686653386444,-0.06381028795330149,0.9207602005969433,-1.8983421266747726,2.9065157739896406,-1.7336575153548888,tremor
303,9309880,2.283,0.15061793526888675,-0.06384949709565059,0.9190049405168225,-1.7678267442389222,2.8813918674107226,-1.4025277588898821,tremor
304,9309885,2.288,0.15192040667587015,-0.0638974152294168,0.9173182515523438,-1.6279428119821893,2.844455215047954,-1.0676240460004789,tremor
305,9309890,2.293,0.1532374767807716,-0.06395656673120022,0.9157051888916249,-1.4800780784437348,2.798925004219878,-0.7327000876351762,tremor
306,9309895,2.298,0.1545617606422092,-0.0640290185868178,0.9141699610871344,-1.3255712213523099,2.748285835511562,-0.4015481651623301,tremor
307,9309900,2.303,0.155885356678705,-0.06411631421557128,0.9127160233765842,-1.1657070590296925,2.696267548191968,-0.07797403114432282,tremor
308,9309910,2.313,0.1571999133040552,-0.06421942274859459,0.9113461864296466,-1.001713137234092,2.6468193847532473,0.2342283996242242,tremor
309,9309914,2.317,0.15849669783727147,-0.06433870485376288,0.9100627346164886,-0.834757462807513,2.6040786528678113,0.5313024578580668,tremor
310,9309919,2.322,0.15976666741424406,-0.06447389565788213,0.9088675474495386,-0.6659471636443357,2.57233425970429,0.8095541223173554,tremor
311,9309924,2.327,0.16100054129608787,-0.0646241047718072,0.9077622178065953,-0.4963278671038413,2.555985663555297,1.0653773226882717,tremor
312,9309929,2.332,0.1621888736156003,-0.06478783289477648,0.9067481609062713,-0.326883601244698,2.559497906587692,1.2952790562410916,tremor
313,9309934,2.337,0.16332212530287332,-0.06496300397473978,0.905826708738172,-0.15853703521825088,2.5873534687352984,1.4959042353513385,tremor
314,9309939,2.342,0.16439073375068453,-0.06514701144227819,0.904999185675091,0.007850109470495177,2.6440017311391593,1.6640601806945996,tremor
315,9309964,2.367,0.1653851787696664,-0.06533677662683547,0.9042669622189872,0.17147662193820953,2.7338068717522095,1.7967406649331816,tremor
316,9309969,2.372,0.16629604356040892,-0.06552881711936283,0.9036314851590164,0.33160145041627576,2.8609950449284236,1.89114939272512,tremor
317,9309974,2.377,0.16711406976425042,-0.0657193225884398,0.903094283750953,0.4875435032740224,3.029601724482778,1.9447227753120864,tremor
318,9309978,2.381,0.16783020606878485,-0.06590423541935632,0.9026569527705772,0.6386816186424871,3.2434201123722453,1.9551518246178028,tremor
319,9309983,2.386,0.16843565024224472,-0.06607933355375328,0.9023211143804074,0.7844546671436584,3.505951523206491,1.9204029579050865,tremor
320,9309988,2.391,0.16892188477851267,-0.06624031306451098,0.902088361652691,0.9243617058182092,3.8203586368919367,1.8387374758040047,tremor
321,9309998,2.401,0.16928070651803853,-0.06638286828538727,0.9019601873194928,1.0579620642255945,4.189422459355581,1.7087294588687956,tremor
322,9310013,2.416,0.16950425067141967,-0.0665027676943938,0.9019379018862547,1.1848752188651779,4.615503740140702,1.529281822962823,tremor
323,9310017,2.42,0.16958500963869544,-0.066595924189172,0.9020225456427146,1.3047803020527433,5.100509465738002,1.2996402819711506,tremor
324,9310022,2.425,0.16951584693431307,-0.06665845885576323,0.9022147993054732,1.4174150978376776,5.645864885965649,1.0194049875647675,tremor
325,9310028,2.431,0.1692900064508772,-0.06668675778213377,0.9025148979913163,1.5225744003037862,6.252491353793269,0.6885396494610357,tremor
326,9310032,2.435,0.16890111727154816,-0.06667752187159182,0.9029225529255841,1.620107646133311,6.920790087474444,0.3073779828963232,tremor
327,9310037,2.44,0.1683431942935855,-0.06662780994548378,0.9034368847435654,1.709915779175053,7.65063181466781,-0.12337262285090228,tremor
328,9310042,2.445,0.16761063504832807,-0.0665350756760223,0.9040563714847898,1.7919473547250546,8.441352140959557,-0.6026302761619856,tremor
329,9310047,2.45,0.1666982132709998,-0.066397199052504,0.904778813468304,1.8661939403333268,9.291752404449433,-1.1289406177118584,tremor
330,9310052,2.455,0.1656010699532825,-0.06621251315622675,0.9056013162361789,1.9326849140737932,10.200105736137472,-1.700481710132991,tremor
331,9310057,2.46,0.16431470276656568,-0.06597982700406611,0.9065202917280067,1.9914817973954357,11.164168042638046,-2.3150717522253847,tremor
332,9310061,2.464,0.16283495484041877,-0.06569844512423208,0.9075314768653245,2.042672285867846,12.181193659232207,-2.9701795720645072,tremor
333,9310087,2.49,0.16115800389170482,-0.06536818435940558,0.9086299678452888,2.086364155633936,13.247955478450608,-3.662937844650881,tremor
334,9310092,2.495,0.15928035260902942,-0.06498938816604136,0.9098102677323252,2.1226792245907964,14.36076942799272,-4.390158975981204,tremor
335,9310097,2.5,0.15719882100833124,-0.06456293841629274,0.9110663444606373,2.1517475340155823,15.515523232983323,-5.148353594481734,tremor
336,9310102,2.505,0.15491054121655123,-0.06409026444242541,0.9123916961751654,2.1737018884980115,16.70770943151029,-5.933751590340106,tremor
337,9310107,2.51,0.15241295485924067,-0.06357334882683856,0.9137794209647507,2.188672852134168,17.9324626053813,-6.742325641404328,tremor
338,9310112,2.515,0.1497038129762478,-0.0630147292594528,0.9152222884456145,2.1967842523041154,19.184600737290094,-7.5698171592741685,tremor
339,9310116,2.519,0.14678117820751801,-0.062417495670777305,0.9167128112583743,2.1981491952781824,20.458670516489036,-8.41176457928407,tremor
340,9310126,2.529,0.14364342890171233,-0.0617852818069592,0.9182433152564508,2.192866555601291,21.74899629576266,-9.263533901485088,tremor
341,9310136,2.539,0.14028926481093917,-0.06112225044270113,0.9198060079028353,2.181017867628003,23.0497322619789,-10.120351364775477,tremor
342,9310141,2.544,0.13671771413854855,-0.06043307152858043,0.9213930450756679,2.162664526124399,24.354917230771346,-10.977338101559665,tremor
343,9310146,2.549,0.1329281418841474,-0.05972289273938239,0.9229965970290401,2.137845196886458,25.658531323033635,-11.829546575008047,tremor
344,9310151,2.554,0.12892025965164583,-0.058997302123985566,0.9246089145879112,2.1065733508939775,26.95455363590728,-12.671998546322847,tremor
345,9310155,2.558,0.12469413731986079,-0.05826228284267704,0.9262223967248797,2.0688348680985627,28.23701989257965,-13.499724259308534,tremor
346,9310160,2.563,0.12025021719203706,-0.05752416029548926,0.9278296604596263,2.024585707796079,29.500078953611695,-14.307802469480778,tremor
347,9310175,2.578,0.11558933141753852,-0.05678954227242055,0.929423613558031,1.973749705791618,30.738047009066726,-15.091400889588591,tremor
348,9310180,2.583,0.11071272359561679,-0.05606525306783864,0.9309975298255921,1.9162166247652115,31.945458257049854,-15.84581657598402,tremor
349,9310212,2.615,0.10562207550470842,-0.05535826276718352,0.9325451259473648,1.8518406419452094,33.11711092182513,-16.566515744189548,tremor
350,9310217,2.62,0.10031953982609797,-0.05467561310152247,0.9340606379187978,1.780439496547766,34.248107578045804,-17.249172481443054,tremor
351,9310222,2.625,0.09480777953305694,-0.05402434134979545,0.9355388942832553,1.7017945321043848,35.33388890915229,-17.8897058210589,tremor
352,9310227,2.63,0.08909001430705453,-0.053411403746557735,0.9369753828161177,1.615651856890801,36.370260193729564,-18.48431465557564,tremor
353,9310231,2.634,0.08317007396271679,-0.052843599745223076,0.9383663071042275,1.5217248163936998,37.353409937717046,-19.029509987003475,tremor
354,9310236,2.639,0.07705245847129186,-0.05232749832607441,0.9397086296875454,1.4196979336395652,38.2799201353271,-19.52214403801922,tremor
355,9310246,2.649,0.07074240382484812,-0.05186936735611383,0.9410000989780324,1.3092324319854913,39.146767662691545,-19.959435776808807,tremor
356,9310251,2.654,0.06424595271947592,-0.051475106826982926,0.9422392579267556,1.189973412344973,39.95131631947877,-20.33899244447667,tremor
357,9310261,2.664,0.057570028866563046,-0.05115018663053995,0.9434254332605618,1.0615587115499103,40.69129907968464,-20.658826725386554,tremor
358,9310265,2.668,0.05072251364105988,-0.050899589383262896,0.9445587049676828,0.923629417661545,41.36479025003232,-20.917369277395757,tremor
359,9310275,2.678,0.043712323677206504,-0.05072775867776223,0.9456398565187877,0.7758419575276226,41.97016752627547,-21.11347645091684,tremor
360,9310299,2.702,0.03654948782232206,-0.050638553016912495,0.9466703070336313,0.6178815983840755,42.506064435338395,-21.246433180014762,tremor
361,9310304,2.707,0.029245221440379617,-0.050635205573212154,0.947652027229392,0.44947711896596576,42.97131436358324,-21.315951219434137,tremor
362,9310309,2.712,0.021811995326415444,-0.05072028982824079,0.9485874415075655,0.27041631089240736,43.36488823787605,-21.322163097658127,tremor
363,9310334,2.737,0.014263595439781472,-0.05089569111757949,0.9494793189437111,0.08056187456287268,43.68582881140935,-21.26561230559499,tremor
364,9310339,2.742,0.006615168428470026,-0.05116258416924874,0.9503306562344989,-0.12013281584022542,43.93318522596563,-21.14724029937677,tremor
365,9310348,2.751,-0.0011167531720172293,-0.051521416884868845,0.9511445558390926,-0.33160867064426225,44.10595189171466,-20.968370858284075,tremor
366,9310353,2.756,-0.008914252673326895,-0.051971900834420076,0.9519241026488823,-0.5536871806713307,44.203015632615056,-20.730692235843506,tremor
367,9310358,2.761,-0.016758064044447393,-0.05251300914415325,0.9526722425517165,-0.7860586269203984,44.22311451959286,-20.436237416483014,tremor
368,9310363,2.766,-0.024627644452886302,-0.053142982570014,0.9533916662321962,-1.0282726864436507,44.16481101454137,-20.087362676131548,tremor
369,9310368,2.771,-0.032501286933722784,-0.053859344503096436,0.9540847014638233,-1.2797317914325934,44.02648116056153,-19.68672456125596,tremor
370,9310373,2.776,-0.040356272948581504,-0.05465892542673146,0.9547532169925326,-1.5396874678152537,43.80632069605303,-19.23725535121705,tremor
371,9310378,2.781,-0.04816906196384674,-0.05553789695797227,0.955398540876265,-1.8072397634885862,43.502368190815424,-18.74213705064355,tremor
372,9310382,2.785,-0.0559155128396357,-0.05649181511215956,0.956021395826802,-2.081339784921354,43.11254462003206,-18.204773968156637,tremor
373,9310387,2.79,-0.06357112998124664,-0.05751567189613767,0.9566218536965878,-2.36079529650637,42.63470821940833,-17.628763971161508,tremor
374,9310392,2.795,-0.07111132598656099,-0.05860395383504576,0.9571993107673926,-2.6442792963413173,42.066723008500254,-17.01786855657702,tremor
375,9310397,2.8,-0.07851169197875998,-0.05975070563576277,0.9577524849370432,-2.9303414579768168,41.406539022932044,-16.375981934626505,tremor
376,9310401,2.804,-0.08574826693306863,-0.06094959694140203,0.9582794352778544,-3.2174223107022906,40.6522820378588,-15.707099377756323,tremor
377,9310411,2.814,-0.092797798023979,-0.062193990072573785,0.9587776037735414,-3.50387001133088,39.80235036465505,-15.01528513240909,tremor
378,9310416,2.819,-0.09963798522289308,-0.06347700679776744,0.9592438783524857,-3.7879595300661735,38.85551613146758,-14.304640222883215,tremor
379,9310421,2.824,-0.10624770490840538,-0.06479159251816631,0.9596746756500375,-4.0679140266123355,37.811028291342595,-13.579270489806806,tremor
380,9310430,2.833,-0.11260720891976798,-0.06613057675695008,0.9600660412769554,-4.341928128183839,36.66871441925725,-12.843255197673908,tremor
381,9310457,2.86,-0.11869829708372548,-0.06748672945026542,0.9604137647660064,-4.608192740759751,35.42907815163038,-12.100616515971714,tremor
382,9310461,2.864,-0.12450446258948986,-0.06885281316407638,0.9607135058303657,-4.864920937338462,34.093388903526495,-11.35529013068691,tremor
383,9310466,2.869,-0.1300110105345655,-0.07022163190803471,0.9609609281168648,-5.110374386922355,32.663760326933726,-10.611097186022773,tremor
384,9310471,2.874,-0.13520515045189063,-0.0715860775875806,0.9611518363077576,-5.34288973150037,31.14321393914409,-9.87171770138471,tremor
385,9310476,2.879,-0.14007606370446077,-0.07293917527169375,0.9612823122524953,-5.560904294115021,29.53572452861054,-9.140665567062872,tremor
386,9310481,2.884,-0.14461494644895156,-0.0742741283624629,0.9613488458153812,-5.762980507040576,27.846244352758326,-8.421265201066493,tremor
387,9310486,2.889,-0.14881502861889137,-0.07558436448963085,0.9613484563016885,-5.947828477198343,26.080703747281614,-7.71662995252503,tremor
388,9310491,2.894,-0.1526715692310032,-0.07686358258801247,0.961278800654823,-6.114326149699336,24.24598653161709,-7.02964236411233,tremor
389,9310496,2.899,-0.15618182839242867,-0.07810580120709089,0.9611382650767835,-6.261536587461053,22.34987949084121,-6.362936454795413,tremor
390,9310505,2.908,-0.1593450167443885,-0.07930540769361283,0.9609260372899104,-6.388721955407249,20.40099620947383,-5.718882249165003,tremor
391,9310510,2.913,-0.1621622237319521,-0.08045720751210078,0.9606421573074936,-6.495353882563887,18.408676587568767,-5.099572849518456,tremor
392,9310515,2.918,-0.1646363270014395,-0.08155647265166989,0.9602875452947635,-6.5811199750635545,16.382864433650298,-4.506814404446409,tremor
393,9310520,2.923,-0.16677188630604675,-0.08259898783324748,0.9598640058638204,-6.645926368011851,14.333966544291119,-3.942119353165829,tremor
394,9310530,2.933,-0.16857502641232686,-0.08358109309562205,0.9593742089419808,-6.68989633249933,12.272697583780216,-3.406703303234934,tremor
395,9310535,2.938,-0.1700533144809996,-0.08449972130923225,0.9588216481675306,-6.7133650890753795,10.209915800377638,-2.90148582483763,tremor
396,9310549,2.952,-0.17121563805575374,-0.08535242924374914,0.9582105785775944,-6.716871108640096,8.156455077305857,-2.427095319434249,tremor
397,9310554,2.957,-0.17207208991752654,-0.08613742099476603,0.9575459361218407,-6.701144290258684,6.122958934310544,-1.9838779509103965,tremor
398,9310581,2.984,-0.1726338654345727,-0.0868535628422848,0.9568332422038405,-6.6670914767045515,4.1197218176261226,-1.5719104259337617,tremor
399,9310585,2.988,-0.17291317653535768,-0.0875003889365257,0.9560784969454185,-6.615779791574298,2.1565423589366963,-1.191016199619974,tremor
400,9310590,2.993,-0.17292318414195354,-0.08807809753040836,0.9552880651238621,-6.5484182585004005,0.24259234959465875,-0.8407844976723347,tremor
401,9310595,2.998,-0.17267794818326898,-0.0885875377407563,0.954468558720444,-6.4663381108393345,-1.6136958752570998,-0.5205914253542271,tremor
402,9310600,3.003,-0.1721923916643022,-0.0890301869819074,0.9536267197652862,-6.370972143606692,-3.4047219718799933,-0.22962239823760805,tremor
403,9310610,3.013,-0.1714822731349108,-0.08940811928124703,0.9527693067328349,-6.263833416308113,-5.123789292238443,0.03310482920969455,tremor
404,9310615,3.018,-0.17056416052144013,-0.08972396470256595,0.951902987214317,-6.146493591358925,-6.7651558052743805,0.26871717095483194,tremor
405,9310619,3.022,-0.16945539873287238,-0.08998086013373557,0.9510342390406867,-6.020561184414893,-8.324064951127506,0.47846377215698416,tremor
406,9310624,3.027,-0.16817406371317173,-0.09018239179790763,0.9501692615039236,-5.887660003024587,-9.796757669662043,0.6636945222154145,tremor
407,9310630,3.033,-0.16673889660612976,-0.09033253005862454,0.9493138978556606,-5.74940805247195,-11.18046722252303,0.8258397835641499,tremor
408,9310635,3.038,-0.1651692132951538,-0.0904355574143919,0.9484735698585355,-5.607397189239914,-12.473398670444421,0.9663914707125699,tremor
409,9310654,3.057,-0.16348478660270538,-0.09049599099199591,0.9476532248198891,-5.463173801120105,-13.674694993919536,1.0868854871235545,tremor
410,9310663,3.066,-0.1617057006851503,-0.09051850129899133,0.9468572952330863,-5.318220785228078,-14.784391867048743,1.188885416044407,tremor
411,9310668,3.071,-0.15985217942600338,-0.09050782941042236,0.946089670869474,-5.173941077002338,-15.80336301206346,1.2739672817008445,tremor
412,9310673,3.076,-0.15794439269177038,-0.09046870505458017,0.9453536828872597,-5.031642954085043,-16.733257879621327,1.3437051638827333,tremor
413,9310708,3.111,-0.1560022459738567,-0.09040576815244929,0.9446520992452727,-4.892527303938937,-17.576433145868293,1.3996574664829773,tremor
414,9310713,3.116,-0.15404516007644242,-0.09032349622929758,0.9439871304382581,-4.757677009305904,-18.335879250674772,1.4433537010580388,tremor
415,9310718,3.121,-0.1520918480855083,-0.09022613978757145,0.9433604443323524,-4.628048570758839,-19.015142993222945,1.4762817333797955,tremor
416,9310728,3.131,-0.15016009688140664,-0.09011766727544193,0.9427731887111348,-4.504466043794271,-19.618247100912598,1.499875534964854,tremor
417,9310733,3.136,-0.1482665599896422,-0.09000172077167637,0.9422260200719694,-4.387617315197595,-20.149607697703743,1.5155035660118203,tremor
418,9310737,3.14,-0.14642656771089413,-0.08988158298073128,0.9417191372412425,-4.278052685139958,-20.613950676152722,1.5244579803681895,tremor
419,9310747,3.15,-0.14465395938959297,-0.08976015561889783,0.9412523184824504,-4.176185667775649,-21.01622807041028,1.527944882678379,tremor
420,9310752,3.155,-0.14296094153485764,-0.08963994879317326,0.940824960920784,-4.082295880788585,-21.36153560316011,1.5270758828339406,tremor
421,9310772,3.175,-0.14135797442913403,-0.08952308055181614,0.9404361212744886,-3.9965338643711603,-21.65503262856795,1.5228611860470989,tremor
422,9310781,3.184,-0.13985368893127478,-0.08941128544572528,0.9400845570482055,-3.918927650073817,-21.90186571363708,1.5162044319595378,tremor
423,9310786,3.189,-0.13845483443805948,-0.08930593070851735,0.939768767495758,-3.8493908865021154,-22.10709708534164,1.50789945589325,tremor
424,9310791,3.194,-0.1371662584058475,-0.08920803855578342,0.9394870337951616,-3.787732319253776,-22.275639108772193,1.498629091039783,tremor
425,9310796,3.199,-0.13599091741595104,-0.08911831311598296,0.9392374579983045,-3.733666415834754,-22.412195843564792,1.4889660640462576,tremor
426,9310801,3.204,-0.13492991944371135,-0.08903717061154728,0.9390180004263692,-3.6868249236322654,-22.521212554963245,1.4793759627392646,tremor
427,9310826,3.229,-0.13398259671551507,-0.08896477157335204,0.9388265152846271,-3.6467691523217396,-22.606833845472202,1.4702221801687734,tremor
428,9310831,3.234,-0.13314660827215116,-0.08890105406187994,0.9386607843692396,-3.6130027822522224,-22.672870840066274,1.4617726696136488,tremor
429,9310836,3.239,-0.13241807106594658,-0.08884576706037263,0.9385185488320525,-3.5849850153156773,-22.72277761902676,1.4542082849913847,tremor
