sample,t_ms,t_s,ax,ay,az,gx,gy,gz,tremor
0,9223793,0.0,-0.14113923805474507,-0.043292564227829275,-1.1149481217198813,4.25720185238476,7.881264483782385,-4.432864433867307,tremor
1,9223798,0.005,-0.1410796221209764,-0.043615578517684245,-1.1139943676229147,4.201063145926782,7.8763059617698605,-4.162032924744247,tremor
2,9223803,0.01,-0.1409960402180684,-0.04406241199903463,-1.1126786863823313,4.140856481158959,7.835176398259748,-3.876079729913607,tremor
3,9223827,0.034,-0.14088763038688853,-0.044643308419474614,-1.1109715089965946,4.076137325577974,7.753249675160131,-3.5746338349882,tremor
4,9223832,0.039,-0.14075947330425412,-0.04534569350276852,-1.1089088268501066,4.006484415998542,7.625796051367822,-3.257350775340372,tremor
5,9223837,0.044,-0.1406208184228184,-0.04614474035983556,-1.1065604924078047,3.931507816124509,7.448012985608054,-2.923918712424426,tremor
6,9223846,0.053,-0.140483092178073,-0.04701325306483053,-1.1040011328136585,3.8508566635218617,7.215058726636268,-2.5740653036329064,tremor
7,9223866,0.073,-0.14035867921848336,-0.04792695584569903,-1.1012948413288468,3.7642264662903484,6.922088522874747,-2.2075653571044587,tremor
8,9223870,0.077,-0.14026042839843497,-0.04886614544512989,-1.098490583655494,3.671365840468599,6.564293256717065,-1.82424923285818,tremor
9,9223875,0.082,-0.1402015784124849,-0.049815455091755625,-1.0956230895236299,3.572082612574454,6.136940254830324,-1.424011921783607,tremor
10,9223890,0.097,-0.14019585229159234,-0.05076295736807939,-1.0927156196891998,3.4662492436372743,5.63541596904865,-1.0068227065352573,tremor
11,9223956,0.163,-0.14025758100365565,-0.05169921459352205,-1.089782844086575,3.353807558279684,5.055270169477744,-0.572735284586027,tremor
12,9223961,0.168,-0.1404017963408997,-0.052616498049986804,-1.0868332049224172,3.2347727826769317,4.392261248223165,-0.12189821370452088,tremor
13,9223966,0.173,-0.1406442754696517,-0.05350821436081396,-1.08387066894057,3.10923690779768,3.642402199513864,0.3454344771200399,tremor
14,9223971,0.178,-0.14100153755507747,-0.05436851004872519,-1.0808959638879185,2.977371399869559,2.8020068135702227,0.8288926842035765,tremor
15,9223975,0.182,-0.14149079879133986,-0.05519201039992037,-1.0779074332335496,2.839429280210704,1.867735589165852,1.327979821265904,tremor
16,9223980,0.187,-0.1421298929601521,-0.05597365316082265,-1.0749016273989065,2.6957465932432756,0.8366408310884,1.8420628091786768,tremor
17,9223984,0.191,-0.14293716367420722,-0.056708586835668984,-1.0718737209915752,2.546743275824498,-0.2937896418802531,2.3703626771522006,tremor
18,9223989,0.196,-0.1439313331503488,-0.057392112116616496,-1.0688178189211759,2.3929234335630842,-1.525590788699872,2.9119459980940015,tremor
19,9224004,0.211,-0.14513135120611398,-0.05801965182314836,-1.0657271937117037,2.234875021045577,-2.8602812739638215,3.465717387062982,tremor
20,9224019,0.226,-0.14655622731051848,-0.05858673964117424,-1.0625944816527677,2.0732689135743896,-4.298827682332351,4.030413295510173,tremor
21,9224045,0.252,-0.14822484793799962,-0.05908902132750117,-1.0594118553834775,1.9088573487121954,-5.841612670392041,4.6045973354603795,tremor
22,9224080,0.287,-0.1501557811296777,-0.05952226430505593,-1.0561711837640442,1.7424717070271252,-7.488407692740964,5.186657366147266,tremor
23,9224090,0.297,-0.15236707001317826,-0.05988237305803765,-1.0528641854131637,1.575019593762837,-9.238350909445948,5.774804569231425,tremor
24,9224094,0.301,-0.15487601702950748,-0.060165408688217285,-1.0494825793242082,1.4074811783720316,-11.089930838590051,6.367074726243664,tremor
25,9224099,0.306,-0.15769896072180517,-0.06036761158350158,-1.0460182340155668,1.240904748523295,-13.040976266290945,6.961331892953794,tremor
26,9224115,0.322,-0.1608510471154795,-0.060485426497417026,-1.042463315388371,1.0764014395226333,-15.088652873127904,7.55527464021744,tremor
27,9224120,0.327,-0.16434599792666874,-0.060515529529181294,-1.0388104326373215,0.9151391078486225,-17.22946698041097,8.146444999822362,tremor
28,9224145,0.352,-0.1681958780509698,-0.06045485658836385,-1.0350527810360062,0.7583353270727987,-19.459276755983286,8.732240217504962,tremor
29,9224150,0.357,-0.1724108649942161,-0.060300632965267914,-1.0311842800921303,0.6072494948436746,-21.773311138689763,9.30992737444776,tremor
30,9224165,0.372,-0.17699902311110452,-0.06005040363263696,-1.027199705368922,0.46317405071526635,-24.166196635564432,9.87666089352633,tremor
31,9224211,0.418,-0.18196608572306167,-0.059702063890477615,-1.0230948121499297,0.32742481660876516,-26.631992011917344,10.429502896870504,tremor
32,9224216,0.423,-0.18731524839890162,-0.059253889942099576,-1.0188664490584713,0.20133048466795186,-29.164230733960043,10.965446326473463,tremor
33,9224231,0.438,-0.19304697689048295,-0.058704568961851326,-1.0145126597177088,0.08622129110564232,-31.755970844507747,11.481440679892456,tremor
34,9224236,0.443,-0.1991588333945499,-0.058053228188620125,-1.0100327705481593,-0.016583070923986948,-34.39985176196173,11.974420149214671,tremor
35,9224245,0.452,-0.2056453249355173,-0.057299462557743444,-1.0054274628426576,-0.10578623217558127,-37.0881572907534,12.441333884046138,tremor
36,9224250,0.457,-0.21249777772505593,-0.05644336036905118,-1.0006988273287127,-0.18012854187584237,-39.81288391145066,12.879178029272586,tremor
37,9224254,0.461,-0.2197042413649275,-0.055485526480151655,-0.9958503995195362,-0.2384009851144719,-42.56581317759857,13.285029117571947,tremor
38,9224269,0.476,-0.22724942673585236,-0.05442710251144341,-0.9908871742663027,-0.27945952189818457,-45.338586788758995,13.656078327453992,tremor
39,9224284,0.491,-0.23511468136396613,-0.05326978355277861,-0.985815598059176,-0.30223973469427423,-48.12278264444988,13.98966605154795,tremor
40,9224289,0.496,-0.2432780059687744,-0.052015830870972675,-0.980643537791322,-0.30577165549522567,-50.90998992081332,14.283316157260284,tremor
41,9224304,0.511,-0.25171411574882474,-0.05066808013060677,-0.9753802249084966,-0.2891946229398146,-53.69188095649007,14.534769262734276,tremor
42,9224341,0.548,-0.26039454972372034,-0.049229944654339365,-0.970036174124477,-0.2517719959802185,-56.460277488211794,14.742014296713307,tremor
43,9224346,0.553,-0.26928783109967824,-0.047705413260946794,-0.96462307619123,-0.1929055276126452,-59.20720855089592,14.903317567641201,tremor
44,9224350,0.557,-0.2783596811453581,-0.04609904223323688,-0.9591536645702989,-0.1121491884684722,-61.9249571969033,15.017248549165135,tremor
45,9224355,0.562,-0.2875732884387659,-0.04441594099542531,-0.9536415562603511,-0.009222233504649914,-64.60609317402394,15.082701613656521,tremor
46,9224359,0.566,-0.29688963454967543,-0.04266175113520727,-0.948101067505147,0.11597867267844748,-67.24348889481853,15.098913020658804,tremor
47,9224375,0.582,-0.30626787622614204,-0.040842618499692444,-0.9425470056505083,0.263368421625392,-69.83031643391348,15.065472585889527,tremor
48,9224380,0.587,-0.31566578293122527,-0.03896515822957287,-0.9369944390505968,0.4326636307777415,-72.36002386985803,14.98232960494746,tremor
49,9224395,0.602,-0.325040227100858,-0.037036412771637044,-0.9314584476502729,0.6233741006741242,-74.82629002462656,14.849792776553832,tremor
50,9224410,0.617,-0.3343477227451733,-0.035063803124512266,-0.9259538576888209,0.8347956291039912,-77.22295755329573,14.668524061630476,tremor
51,9224415,0.622,-0.343545006003712,-0.0330550738216807,-0.9204949648567929,1.0660042586524467,-79.54394539728617,14.439526623429066,tremor
52,9224420,0.627,-0.3525896490644208,-0.03101823242629203,-0.9150952511365426,1.3158520617069716,-81.78314279826175,14.16412720902072,tremor
53,9224425,0.632,-0.36144069661040473,-0.028961484580776863,-0.9097671013886128,1.582964606591686,-83.9342883077529,13.843953536876665,tremor
54,9224434,0.641,-0.37005931183790525,-0.02689316589302443,-0.9045215264334246,1.8657402863326316,-85.99083845070645,13.480907434697519,tremor
55,9224439,0.646,-0.37840941724292965,-0.024821672126792607,-0.8993678998679674,2.1623517172095146,-87.94583185860338,13.077134620057658,tremor
56,9224465,0.672,-0.3864583139198006,-0.02275538928258202,-0.8943137161187946,2.47074942507854,-89.79175573488797,12.634992133846474,tremor
57,9224470,0.677,-0.39417726217219495,-0.02070262519779178,-0.8893643772336105,2.7886680370540433,-91.52042237415856,12.157014520629874,tremor
58,9224474,0.681,-0.4015420059613047,-0.018671544254468868,-0.8845230156065714,3.1136351919770138,-93.12286398083917,11.645879888341751,tremor
59,9224489,0.696,-0.40853322428136984,-0.016670106653345305,-0.8797903591644012,3.4429833837122312,-94.58925404171599,11.104376951082129,tremor
60,9224494,0.701,-0.41513689408175175,-0.014706013493599264,-0.8751646444880834,3.773864959682629,-95.90886288638576,10.535374047701302,tremor
61,9224498,0.705,-0.421344551852823,-0.012786658598752972,-0.8706415819426196,4.1032705048310705,-97.07005382937575,9.941790936097366,tremor
62,9224524,0.731,-0.42715344435947145,-0.01091908767146382,-0.8662143752194392,4.428050831638226,-98.06032450457799,9.32657390307687,tremor
63,9224529,0.736,-0.4325665630720875,-0.009109964975706241,-0.8618737958651902,4.744942752224697,-98.86639577203769,8.692674427869932,tremor
64,9224534,0.741,-0.43759256136900704,-0.007365547379908471,-0.8576083114787271,5.050598712424295,-99.47434803982725,8.043031336967694,tremor
65,9224539,0.746,-0.4422455582347354,-0.005691665307528949,-0.8534042644044374,5.341620205449641,-99.86980220731839,7.380556142706859,tremor
66,9224590,0.797,-0.446544836569129,-0.004093709985767378,-0.849246096030346,5.614594652871118,-100.03813994065845,6.7081211050196154,tremor
67,9224595,0.802,-0.45051444796177015,-0.002576626377553827,-0.8451166103202,5.866135172225354,-99.96475589344679,6.0285494979358,tremor
68,9224600,0.807,-0.4541827384637139,-0.0011449112898384724,-0.8409972691293865,6.092922406990987,-99.63533309196121,5.344607583763282,tremor
69,9224604,0.811,-0.4575818111104035,0.0001973837131108683,-0.8368685113862829,6.291747445329448,-99.03613230723133,4.658997883912579,tremor
70,9224614,0.821,-0.46074694052951176,0.0014466448921636585,-0.8327100885086844,6.459554827103524,-98.15428688821096,3.9743534704398833,tremor
71,9224618,0.825,-0.4637159531298607,0.0025996847572897375,-0.8285014094078272,6.593484704438841,-96.97809592653869,3.29323315997227,tremor
72,9224623,0.83,-0.46652858369010436,0.0036537268300697464,-0.8242218898417698,6.6909133282728765,-95.49731030104714,2.6181176394377523,tremor
73,9224628,0.835,-0.46922581631609367,0.00460638745215172,-0.8198513023727408,6.749491152009292,-93.70340775848942,1.9514066646565371,tremor
74,9224633,0.84,-0.47184921524642515,0.00545565556196386,-0.8153701244726133,6.767177968599331,-91.58985454959976,1.2954175329238344,tremor
75,9224637,0.844,-0.47444024918009176,0.006199871538156747,-0.8107598832294325,6.742274630206657,-89.15235217818487,0.652385034347942,tremor
76,9224652,0.859,-0.4770396118294029,0.006837706319654077,-0.8060034955576394,6.673451036122116,-86.3890684925524,0.024463037139092543,tremor
77,9224657,0.864,-0.4796865413291488,0.007368142049674892,-0.8010856027865036,6.559770204345992,-83.3008526068005,-0.5862722352519477,tremor
78,9224662,0.869,-0.48241814201751315,0.007790455460031423,-0.7959928979978975,6.400708348038736,-79.89143289923423,-1.1778173210845664,tremor
79,9224666,0.873,-0.48526871402559546,0.00810420512898955,-0.7907144435146697,6.196170938633751,-76.16759648975386,-1.7482353103773822,tremor
80,9224721,0.928,-0.48826909910771754,0.008309223631361677,-0.785241974536281,5.946504737424294,-72.1393471190037,-2.2956488251934855,tremor
81,9224726,0.933,-0.49144605504189726,0.008405615462268722,-0.7795701831820459,5.652505715751744,-67.82003641412429,-2.8182329634792187,tremor
82,9224731,0.938,-0.4948216751478973,0.008393761435032896,-0.773696975369854,5.315422672675426,-63.22646156312323,-3.3142091957079094,tremor
83,9224736,0.943,-0.498412873013783,0.008274329976492401,-0.7676236914026475,4.9369562229499895,-58.3789210069434,-3.7818413087088714,tremor
84,9224745,0.952,-0.5022309543644192,0.008048295319900683,-0.7613552802489261,4.519252709510737,-53.30121931133697,-4.219434448348648,tremor
85,9224750,0.957,-0.5062812975989028,0.007716962025553434,-0.7549004175346322,4.06489254651863,-48.02061294080386,-4.6253381430811,tremor
86,9224755,0.962,-0.5105631619374092,0.007281994604637494,-0.7482715582593776,3.57687255919851,-42.56768999718013,-4.9979539418451004,tremor
87,9224765,0.972,-0.515069637775844,0.006745450383543488,-0.7414849171239029,3.0585820548675744,-36.97617886014667,-5.335748005066167,tremor
88,9224770,0.977,-0.5197877482620823,0.006109813228799496,-0.7345603719510674,2.513772598807192,-31.282682910709184,-5.637268661640355,tremor
89,9224775,0.982,-0.5246987047975374,0.005378025439964554,-0.7275212887808827,1.9465217264468235,-25.526341007367648,-5.901168606930402,tremor
90,9224780,0.987,-0.5297783126375862,0.004553515055741395,-0.7203942705489086,1.361191053509861,-19.748415998187998,-6.126231097091051,tremor
91,9224785,0.992,-0.5349975164611609,0.003640216009645408,-0.7132088345335692,0.7623794218281842,-13.99181617391111,-6.311399222046022,tremor
92,9224790,0.997,-0.540323070042222,0.0026425789766209946,-0.7059970267356733,0.15487183707673852,-8.300557095340988,-6.455807127449737,tremor
93,9224794,1.001,-0.5457183092088256,0.0015655713037427607,-0.6987929838416731,-0.45641497115011687,-2.7191735819081693,-6.558811904130569,tremor
94,9224799,1.006,-0.5511440032660356,0.0004146650382706469,-0.6916324552804635,-1.0664894901059203,2.7079062307029718,-6.620024764622204,tremor
95,9224804,1.011,-0.5565592570939416,-0.0008041873212562583,-0.6845522990249544,-1.67034396038769,7.93701100547261,-6.639340075254674,tremor
96,9224836,1.043,-0.561922434293965,-0.002084589184111652,-0.67758996519363,-2.2630135901468593,12.925885180498893,-6.616960807980342,tremor
97,9224841,1.048,-0.5671920711020781,-0.0034197477412971893,-0.6707829812234273,-2.839635527417915,17.634340305053264,-6.553419023398704,tremor
98,9224846,1.053,-0.5723277513485115,-0.004802532453617248,-0.6641684515257427,-3.3955066683706723,22.02488157323724,-6.449590110858454,tremor
99,9224851,1.058,-0.5772909145223379,-0.006225543050272371,-0.6577825832602653,-3.926139360885031,26.063292505496037,-6.306699714984268,tremor
100,9224855,1.062,-0.5820455719315699,-0.007681185791163931,-0.6516602483362658,-4.427314028969722,29.71916174374138,-6.1263225739916995,tremor
101,9224860,1.067,-0.5865589098694625,-0.00916175661814875,-0.6458345901148618,-4.895127718702173,32.96633774040885,-5.910372850971428,tremor
102,9224865,1.072,-0.5908017633693543,-0.010659529678056749,-0.6403366816187556,-5.326037582293672,35.78329949355106,-5.661085906478213,tremor
103,9224870,1.077,-0.5947489493206317,-0.01216684953427975,-0.635195240388428,-5.7168983866886975,38.1534341887257,-5.380991809451738,tremor
104,9224874,1.081,-0.5983794532394324,-0.013676225202224706,-0.6304364034564985,-6.064993247857114,40.06521549908891,-5.072881206704616,tremor
105,9224879,1.086,-0.6016764696876266,-0.01518042396605829,-0.6260835642319218,-6.368056938785811,41.51227926062037,-4.739764464090975,tremor
106,9224884,1.091,-0.6046273020657965,-0.016672562784842804,-0.6221572713772534,-6.624291293685018,42.493396216831,-4.38482524215898,tremor
107,9224889,1.096,-0.6072231331004044,-0.018146195002051252,-0.6186751880171113,-6.832372433242794,43.01234448385589,-4.011369862785167,tremor
108,9224894,1.101,-0.6094586825962466,-0.019595390058461507,-0.6156521078418022,-6.991449763762433,43.0776872796643,-3.622773956216855,tremor
109,9224898,1.105,-0.6113317737046602,-0.021014803993473007,-0.6131000228949269,-7.101136951253929,42.702464202629756,-3.2224279510628278,tremor
110,9224903,1.11,-0.6128428328424331,-0.022399738713379455,-0.6110282361071688,-7.161495331764355,41.90380680593454,-2.81368298411284,tremor
111,9224908,1.115,-0.6139943512834526,-0.023746188306676914,-0.6094435100306518,-7.173010478974329,40.702491262963854,-2.399798762815017,tremor
112,9224912,1.119,-0.6147903381566501,-0.02505087108810857,-0.6083502418284882,-7.136562892273577,39.12244245593555,-1.9838948135422318,tremor
113,9224917,1.124,-0.6152357949712461,-0.026311246541134863,-0.6077506534868744,-7.0533939736081015,37.19020478920124,-1.568906400205802,tremor
114,9224922,1.129,-0.6153362407464243,-0.02752551688368822,-0.6076449855553664,-6.925068609698364,34.93439540495953,-1.1575462098542888,tremor
115,9224927,1.134,-0.6150973142932626,-0.02869261357926513,-0.6080316825968689,-6.753435749037193,32.38515525465127,-0.7522726844151217,tremor
116,9224932,1.139,-0.6145244761893842,-0.02981216972327735,-0.608907559041911,-6.540588344783412,29.57361266360294,-0.3552656385604085,tremor
117,9224963,1.17,-0.613622827581956,-0.03088447981526468,-0.6102679353645563,-6.28882391887589,26.531372663834674,0.031590452060375154,tremor
118,9224968,1.175,-0.6123970563505369,-0.031910448933219884,-0.6121067364504242,-6.000606800418747,23.29004354844962,0.4067153748939584,tremor
119,9224978,1.185,-0.6108515137604135,-0.032891533694396374,-0.6144165466373539,-5.6785328341711585,19.880809939110875,0.7688344649363525,tremor
120,9224982,1.189,-0.6089904171799403,-0.033829677551373324,-0.6171886189728131,-5.3252970862249285,16.334059292719896,1.1169726389955992,tremor
121,9224987,1.194,-0.6068181674569713,-0.03472724289943307,-0.6204128394328358,-4.943664831649415,12.679066358528418,1.450441764498488,tremor
122,9224992,1.199,-0.6043397637284605,-0.0355869421924411,-0.624077649837148,-4.536445912562933,8.943737782015583,1.7688220892038056,tremor
123,9224997,1.204,-0.6015612940552441,-0.03641176986254771,-0.6281699356942514,-4.106472406168864,5.15441693827285,2.0719385543565343,tremor
124,9225006,1.213,-0.5984904773606593,-0.037204936405310196,-0.6326748870662515,-3.6565794335961916,1.3357472002589397,2.359832879152817,tremor
125,9225011,1.218,-0.5951372306048869,-0.037969805592614154,-0.637575841728657,-3.1895888649962756,-2.4894097973379616,2.632732351683714,tremor
126,9225016,1.223,-0.5915142347971956,-0.038709835446803835,-0.6428541204674478,-2.708295630477998,-6.300005753465258,2.8910162987020813,tremor
127,9225021,1.228,-0.5876374741688752,-0.03942852336316559,-0.6484888643908533,-2.215456327137665,-10.076793189248349,3.135181236166378,tremor
128,9225025,1.232,-0.5835267244198472,-0.040129355600853824,-0.6544568837353018,-1.71377981389594,-13.802275799214938,3.3658057225914737,tremor
129,9225030,1.237,-0.5792059682221061,-0.040815761260337965,-0.6607325269180309,-1.2059194982051649,-17.460629328898907,3.5835159428229546,tremor
130,9225035,1.242,-0.5747037189302853,-0.041491070808735805,-0.6672875776340127,-0.6944670305000765,-21.037601102516664,3.7889530340435678,tremor
131,9225040,1.247,-0.5700532365551876,-0.04215847918265296,-0.6740911866997689,-0.1819471252766211,-24.520396553764197,3.9827431204707033,tremor
132,9225045,1.252,-0.5652926233754619,-0.042821013473640826,-0.6811098441789339,0.3291867808915509,-27.8975611073509,4.165470940713442,tremor
133,9225049,1.256,-0.560464790006114,-0.043481505169937006,-0.6883073961304509,0.8365563433785814,-31.158865506669155,4.337657827907101,tremor
134,9225054,1.261,-0.5556172862539209,-0.044142566878903056,-0.6956451091257141,1.3378619323564767,-34.29520216617459,4.49974463813799,tremor
135,9225086,1.293,-0.5508019946459451,-0.04480657337991293,-0.7030817844907151,1.8308864337322666,-37.29849932235806,4.652080021132979,tremor
136,9225091,1.298,-0.5460746881313424,-0.04547564675454037,-0.7105739230264411,2.3134996252120343,-40.16165862641134,4.794914194144345,tremor
137,9225095,1.302,-0.5414944571769454,-0.04615164521528784,-0.7180759397080662,2.7836635273948804,-42.87852030562269,4.928398125561483,tremor
138,9225100,1.307,-0.5371230153586791,-0.04683615512228838,-0.7255404265160885,3.239439080413763,-45.44385808300557,5.052587778308443,tremor
139,9225105,1.312,-0.5330238965918466,-0.04753048556367665,-0.7329184600866246,3.678994378145752,-47.85340376030761,5.167452829194951,tremor
140,9225115,1.322,-0.529261561232791,-0.048235664803517785,-0.7401599493059552,4.100614511503415,-50.103898950214344,5.272889088707413,tremor
141,9225120,1.327,-0.5259004322045341,-0.048952437888506645,-0.7472140163871568,4.502712854838923,-52.19316915964737,5.3687337066176894,tremor
142,9225124,1.331,-0.5230038857610982,-0.04968126476142114,-0.7540294034610495,4.883843405895292,-54.120213523058254,5.454782168246425,tremor
143,9225129,1.336,-0.5206332241927792,-0.05042231836053444,-0.7605548954169683,5.242713591549189,-55.885302148370855,5.530806068907514,tremor
144,9225134,1.341,-0.5188466594050334,-0.05117548238814398,-0.7667397487669181,5.578196805739053,-57.49007235811565,5.596570699171375,tremor
145,9225138,1.345,-0.5176983366947301,-0.051940348696734966,-0.7725341157786387,5.8893438673745075,-58.937615054416554,5.651851571359928,tremor
146,9225143,1.35,-0.517237427138566,-0.05271621454676699,-0.7778894530897715,6.17539257710873,-60.23254290824855,5.696449152827153,tremor
147,9225148,1.355,-0.5175073148320061,-0.05350208030642615,-0.7827589045045988,6.435774608262982,-61.3810329733095,5.73020122954907,tremor
148,9225153,1.36,-0.5185449018675328,-0.054296648455766615,-0.787097648688871,6.6701190809612685,-62.39083758168518,5.75299249421407,tremor
149,9225157,1.364,-0.520380049563019,-0.055098324987014884,-0.7908632039914201,6.878252327844601,-63.27125893031231,5.764761130896244,tremor
150,9225162,1.369,-0.5230351692391717,-0.055905224423293924,-0.7940156845721573,7.0601935498650885,-64.03308454767334,5.765502350511435,tremor
151,9225167,1.374,-0.5265249700395115,-0.05671517968292831,-0.7965180043036499,7.21614626721902,-64.68848276660405,5.755269013524212,tremor
152,9225172,1.379,-0.5308563651599288,-0.057525757882776564,-0.798336027405201,7.346485682341642,-65.25085934501088,5.734169650914299,tremor
153,9225177,1.384,-0.5360285316903235,-0.058334282902593536,-0.7994386673161572,7.4517422820097785,-65.73467839352912,5.702364349109693,tremor
154,9225204,1.411,-0.5420331133473207,-0.059137865137407646,-0.7997979377669882,7.532582209158972,-66.15525270076195,5.66005908383734,tremor
155,9225209,1.416,-0.5488545500021114,-0.059933438376750185,-0.7993889621971592,7.589785123786699,-66.52851025744225,5.6074991524819575,tremor
156,9225219,1.426,-0.5564705134960394,-0.06071780322180977,-0.7981899493922624,7.624220427557493,-66.87074503805903,5.544962344005338,tremor
157,9225223,1.43,-0.5648524263138562,-0.06148767595887109,-0.796182144233354,7.6368228207878905,-67.19836062616892,5.472752389514517,tremor
158,9225233,1.44,-0.5739660386924823,-0.06223974142269153,-0.7933497625970665,7.628568171539332,-67.5276149350971,5.391193072262602,tremor
159,9225238,1.445,-0.5837720407835367,-0.06297070814831701,-0.7896799187172846,7.600450602174101,-67.87437321360164,5.300623188139884,tremor
160,9225243,1.45,-0.5942266892610084,-0.06367736402576456,-0.7851625519002331,7.55346155427454,-68.25387504690964,5.201392385196459,tremor
161,9225252,1.459,-0.6052824317231491,-0.06435663071555064,-0.7797903576467566,7.488571401572221,-68.68051947832943,5.093857800351047,tremor
162,9225257,1.464,-0.6168885167639964,-0.06500561522390011,-0.7735587262484823,7.406713968138634,-69.16767091283536,4.978381354344678,tremor
163,9225262,1.469,-0.6289915820975814,-0.06562165724656756,-0.7664656900174374,7.308774101966346,-69.72748727083284,4.855327550656364,tremor
164,9225267,1.474,-0.6415362170905433,-0.06620237114619296,-0.7585118786643154,7.195578276450525,-70.37077102817206,4.7250616391786515,tremor
165,9225271,1.478,-0.6544654990968748,-0.06674568171104568,-0.7497004810921313,7.067888061492488,-71.1068433386591,4.587948043181041,tremor
166,9225276,1.483,-0.6677215048549808,-0.0672498531367544,-0.7400372110948332,6.92639622931188,-71.94344135500803,4.444349001993759,tremor
167,9225280,1.487,-0.6812457988302734,-0.06771351096211718,-0.7295302741642267,6.771725236072361,-72.88663906707667,4.294623446361534,tremor
168,9225328,1.535,-0.694979899825551,-0.06813565696020893,-0.7181903327887976,6.604427842562817,-73.94079237197433,4.139126193716323,tremor
169,9225333,1.54,-0.7088657256400913,-0.0685156772207859,-0.7060304681975721,6.424989694517453,-75.10850955375027,3.9782076148782335,tremor
170,9225343,1.55,-0.7228460134733917,-0.06885334384272224,-0.693066137292973,6.233833755667041,-76.39064865755148,3.8122139525785412,tremor
171,9225357,1.564,-0.736864711822061,-0.06914881077198902,-0.679315124264538,6.031326543894676,-77.78634310385043,3.6414884290029605,tremor
172,9225366,1.573,-0.7508673384977463,-0.06940260436766146,-0.6647974868179771,5.81778613368904,-79.29305613828028,3.4663731572210463,tremor
173,9225371,1.578,-0.7648012994463861,-0.06961560926618357,-0.6495354969753899,5.593491844939377,-80.9066634804173,3.287211714181487,tremor
174,9225376,1.583,-0.7786161641382715,-0.06978905006321076,-0.6335535760866116,5.358695451702146,-82.62156217130537,3.1043521064727773,tremor
175,9225450,1.657,-0.7922638949631249,-0.06992446926484425,-0.6168782232484251,5.11363364427508,-84.4308024707737,2.9181498021495074,tremor
176,9225454,1.661,-0.8056990297929234,-0.07002370189574839,-0.5995379359699736,4.858541394015786,-86.32623890322984,2.7289705086692706,tremor
177,9225470,1.677,-0.8188788183316362,-0.07008884711014686,-0.5815631217650432,4.59366582011901,-88.29869620093474,2.5371924232078578,tremor
178,9225475,1.682,-0.8317633139843468,-0.07012223715223989,-0.5629859993817992,4.319280142909156,-90.33814585363159,2.3432077428964186,tremor
179,9225479,1.686,-0.8443154238559323,-0.0701264040648117,-0.5438404885045582,4.035697322809026,-92.43388912654943,2.1474232842593124,tremor
180,9225484,1.691,-0.8565009202459881,-0.07010404463876725,-0.5241620868935555,3.7432830201510994,-94.57474265725088,1.9502601189138868,tremor
181,9225489,1.696,-0.8682884176678767,-0.07005798420546044,-0.5039877340370139,3.4424675608053525,-96.74922302091012,1.7521521875825632,tremor
182,9225493,1.7,-0.8796493199485621,-0.06999113996886905,-0.48335566049096307,3.133756648721228,-98.94572693126797,1.5535439079219482,tremor
183,9225498,1.705,-0.8905577423220338,-0.06990648463536984,-0.46230522220743925,2.8177406220458567,-101.15270401023119,1.354886843022299,tremor
184,9225503,1.71,-0.9009904135957097,-0.0698070111148932,-0.4408767193291041,2.4951020991533834,-103.35881931310246,1.1566355447089913,tremor
185,9225507,1.714,-0.9109265634513171,-0.06969569903658042,-0.41911119917900436,2.166621900962104,-105.55310304411583,0.959242725449422,tremor
186,9225522,1.729,-0.9203477997591714,-0.06957548374916114,-0.39705024351438634,1.8331831638162672,-107.72508514901423,0.7631539398491529,tremor
187,9225537,1.744,-0.9292379804645485,-0.06944922837149607,-0.37473574055901654,1.4957735733576376,-109.86491275097951,0.5688019678935279,tremor
188,9225542,1.749,-0.9375830841723825,-0.0693196993383405,-0.3522096428993411,1.155485661195877,-111.9634487486682,0.37660108878988147,tremor
189,9225575,1.782,-0.9453710830260413,-0.06918954576951132,-0.3295137130478883,0.8135151266824352,-114.01235038020982,0.18694142346306675,tremor
190,9225580,1.787,-0.9525918208493629,-0.06906128288996742,-0.30668925934201696,0.4711571878833,-116.00412720425227,0.00018351340780739956,tremor
191,9225584,1.791,-0.9592368988059121,-0.06893727963919243,-0.28377686578889194,0.12980102663759638,-117.93217870451507,-0.1833467027679295,tremor
192,9225589,1.796,-0.9652995700650008,-0.06881975050995102,-0.2608161203321396,-0.2090775467953149,-119.79081245840759,-0.3633623587960633,tremor
193,9225594,1.801,-0.9707746442283451,-0.06871075153003559,-0.23784534661400816,-0.5439250457928314,-121.57524439795982,-0.5396194299796281,tremor
194,9225623,1.83,-0.9756584016604593,-0.06861218014789923,-0.21490134451389234,-0.8731207065107064,-123.28158307620293,-0.7119196775573905,tremor
195,9225654,1.861,-0.9799485174698099,-0.06852577863077916,-0.19201914454013513,-1.1949881863596028,-124.90680003050119,-0.8801126801599293,tremor
196,9225669,1.876,-0.9836439947693746,-0.06845314047270386,-0.1692317806027897,-1.507808450605985,-126.44868831309456,-1.0440969145924457,tremor
197,9225696,1.903,-0.9867451069971397,-0.06839571927181767,-0.14657008493251075,-1.8098337684961538,-127.90581107300802,-1.203819903636095,tremor
198,9225706,1.913,-0.98925334936634,-0.068354839568886,-0.12406250812040316,-2.0993027502121784,-129.27744183029364,-1.359277494426559,tremor
199,9225711,1.918,-0.9911713997055712,-0.06833170919997889,-0.10173496661076781,-2.3744563364382856,-130.56349792796516,-1.5105123542018162,tremor
200,9225715,1.922,-0.992503088834948,-0.06832743275790787,-0.07961071955278291,-2.6335546139003285,-131.76446865196857,-1.6576117689549912,tremor
201,9225720,1.927,-0.9932533801596689,-0.0683430257587044,-0.05771027664706524,-2.87489428910599,-132.88133963309917,-1.8007048143855344,tremor
202,9225725,1.932,-0.9934283574568245,-0.06837942908061806,-0.03605133839073103,-3.0968266169418284,-133.91551529564865,-1.939958949739591,tremor
203,9225729,1.936,-0.9930352190531185,-0.06843752320264625,-0.014648769839322937,-3.297775551281994,-134.86874122868971,-2.075576070963635,tremor
204,9225734,1.941,-0.9920822758833353,-0.06851814173196306,0.006485391373517743,-3.4762558610242382,-135.74302839761202,-2.207788052120252,tremor
205,9225739,1.946,-0.9905789503763273,-0.06862208368344043,0.027341892493296778,-3.6308909384318206,-136.54058107586806,-2.336851803361304,tremor
206,9225744,1.951,-0.988535772791244,-0.06875012396534179,0.04791418887775886,-3.760430018891007,-137.26373025834584,-2.46304387988311,tremor
207,9225748,1.955,-0.9859643715461668,-0.06890302153763506,0.06819833394040595,-3.863764532365545,-137.91487412235875,-2.5866546886978514,tremor
208,9225753,1.96,-0.9828774542455979,-0.0690815247471531,0.08819283742294044,-3.9399433156500523,-138.49642683791157,-2.7079823573459207,tremor
209,9225763,1.97,-0.9792887765053483,-0.06928637341055727,0.10789849432019877,-3.988186429139733,-139.01077670749984,-2.8273263487023366,tremor
210,9225767,1.974,-0.9752130962614021,-0.06951829731473431,0.12731818747793222,-4.007897340955778,-139.46025425392605,-2.9449809261752278,tremor
211,9225772,1.979,-0.9706661119889001,-0.06977801093711945,0.14645666754191916,-3.9986732646929584,-139.84711049196653,-3.0612285908652668,tremor
212,9225777,1.984,-0.9656643840939195,-0.07006620435626157,0.1653203145262837,-3.9603134652073115,-140.17350523308403,-3.1763336238254154,tremor
213,9225782,1.989,-0.9602252396142765,-0.07038353052358423,0.1839168857616193,-3.8928253801982278,-140.44150489268833,-3.2905358711134847,tremor
214,9225786,1.993,-0.9543666612170137,-0.07073058929437323,0.2022552553556849,-3.7964284445002288,-140.65308890304723,-3.404044907934015,tremor
215,9225818,2.025,-0.9481071622584367,-0.07110790885848586,0.22034515053200637,-3.6715555494958583,-140.81016348787912,-3.517034713342918,tremor
216,9225823,2.03,-0.9414656503407981,-0.07151592545157287,0.23819689028869634,-3.5188521200756404,-140.91458124109562,-3.629638981089756,tremor
217,9225828,2.035,-0.9344612823349472,-0.07195496243711268,0.25582113172430127,-3.3391728396573375,-140.9681647047992,-3.741947186643045,tremor
218,9225833,2.04,-0.9271133142244325,-0.07242520998917493,0.2732286290911847,-3.133576090940164,-140.9727320055601,-3.8540015251356556,tremor
219,9225837,2.044,-0.9194409493539765,-0.07292670664039659,0.2904300101491794,-2.9033162016776775,-140.93012260973032,-3.9657948267605474,tremor
220,9225842,2.049,-0.9114631887365506,-0.0734593238763283,0.30743557371194186,-2.649833594981725,-140.84222138381352,-4.077269539079689,tremor
221,9225847,2.054,-0.9031986870010722,-0.0740227547686555,0.32425511143610586,-2.374742951970346,-140.7109793567512,-4.188317834115907,tremor
222,9225851,2.058,-0.8946656173576876,-0.07461650737140446,0.34089775594237,-2.079819509032684,-140.53842984725568,-4.298782850020395,tremor
223,9225866,2.073,-0.8858815486209022,-0.07523990328284268,0.35737185632678503,-1.7669836366113758,-140.32669892646254,-4.4084610150467025,tremor
224,9225871,2.078,-0.876863336856739,-0.07589208142615453,0.3736848810750674,-1.4382838818182035,-140.07800952141048,-4.517105331851421,tremor
225,9225876,2.083,-0.8676270336042515,-0.07657200674922374,0.38984334740312626,-1.0958787006198913,-139.79467880516262,-4.624429432974533,tremor
226,9225881,2.088,-0.8581878118736679,-0.07727848321497792,0.40585277519937013,-0.7420171495018505,-139.47910883622515,-4.730112166310836,tremor
227,9225890,2.097,-0.848559910282902,-0.07801017017458148,0.42171766311917125,-0.37901884104735617,-139.13377068650811,-4.8338024422577925,tremor
228,9225899,2.106,-0.8387565948404682,-0.07876560100608547,0.43744148402234634,-0.009253484472963338,-138.76118253528713,-4.935124073982252,tremor
229,9225904,2.111,-0.8287901371290259,-0.07954320277513072,0.4530266968463313,0.3648796700068505,-138.36388241180543,-5.033680363390135,tremor
230,9225909,2.116,-0.8186718071162612,-0.08034131564633146,0.4684747721329605,0.740972177748402,-137.94439643513238,-5.129058219714771,tremor
231,9225946,2.153,-0.8084118786237037,-0.08115821086010475,0.4837862287177559,1.1166262464843306,-137.50520351689542,-5.220831638825465,tremor
232,9225951,2.158,-0.7980196456504521,-0.0819921062979644,0.49896067947198697,1.4894738030129722,-137.04869756314125,-5.308564416100401,tremor
233,9225956,2.163,-0.7875034481851118,-0.08284117897422655,0.5139968843688367,1.8571945129356164,-136.5771482477511,-5.3918120117007655,tremor
234,9225961,2.168,-0.7768707066412562,-0.08370357416838965,0.5288928094389284,2.2175325188011237,-136.09266143603776,-5.47012253186793,tremor
235,9225966,2.173,-0.7661279644055059,-0.08457741128747065,0.5436456903376934,2.568311720951207,-135.59714030684884,-5.5430368331042255,tremor
236,9225970,2.177,-0.7552809380872785,-0.08546078686447563,0.5582520992754867,2.9074495023619007,-135.0922481495858,-5.610087800768313,tremor
237,9225975,2.182,-0.7443345749355857,-0.08635177532290728,0.5727080140097156,3.232968876486122,-134.5793737040716,-5.6707989025180785,tremor
238,9225980,2.187,-0.7332931166442397,-0.08724842825647017,0.5870088875210944,3.5430091022422845,-134.05959977860834,-5.72468216873662,tremor
239,9225985,2.192,-0.7221601685097364,-0.08814877299527962,0.6011497169340255,3.835834857307083,-133.53367573880226,-5.771235800610584,tremor
240,9225994,2.201,-0.7109387727155163,-0.08905081117459884,0.6151251102204732,4.10984408917817,-133.00199431882845,-5.809941643908487,tremor
241,9225999,2.206,-0.699631484438373,-0.08995251791547913,0.6289293492643732,4.363574675124168,-132.46457307637345,-5.840262786451846,tremor
242,9226008,2.215,-0.688240449521858,-0.09085184209643585,0.6425564479696667,4.595710020546135,-131.92104069781286,-5.861641538788909,tremor
243,9226013,2.22,-0.6767674826233416,-0.09174670806699714,0.6560002042736821,4.805083714257284,-131.37062826508264,-5.873498045293555,tremor
244,9226018,2.225,-0.6652141449780851,-0.09263501904621183,0.6692542451752185,4.990683342553035,-130.81216552438806,-5.875229753104619,tremor
245,9226022,2.229,-0.653581821183604,-0.09351466236957444,0.6823120641891393,5.151653545271959,-130.2440821523687,-5.866211942496491,tremor
246,9226027,2.234,-0.6418717946402837,-0.09438351669253049,0.6951670509725414,5.287298379250765,-129.66441399564263,-5.845799494023618,tremor
247,9226032,2.239,-0.6300853214534395,-0.09523946121635966,0.7078125132028097,5.397083039334731,-129.07081425796298,-5.813330032592282,tremor
248,9226036,2.243,-0.6182237026896883,-0.09608038695893398,0.7202416910973547,5.4806349744490515,-128.4605696191049,-5.768128544174742,tremor
249,9226041,2.248,-0.6062883548819469,-0.09690421003637299,0.7324477652259777,5.537744424604227,-127.83062128880833,-5.709513506446931,tremor
250,9226067,2.274,-0.5942808785956784,-0.09770888684377171,0.7444238584644342,5.568364392012692,-127.17759102777157,-5.636804511437356,tremor
251,9226072,2.279,-0.5822031247122985,-0.09849243092166532,0.7561630330668869,5.572610045029402,-126.49781220314341,-5.549331289851162,tremor
252,9226077,2.284,-0.5700572578689148,-0.09925293117532329,0.7676582839051979,5.5507575392432775,-125.78736597714357,-5.446443979238846,tremor
253,9226082,2.289,-0.5578458162430884,-0.09998857098976564,0.7789025289593731,5.503242228895319,-125.04212273324944,-5.32752441952457,tremor
254,9226087,2.294,-0.5455717666267793,-0.10069764767090204,0.7898885981766606,5.430656235576768,-124.25778880005493,-5.191998216257347,tremor
255,9226092,2.299,-0.5332385535426235,-0.10137859155470362,0.8006092218688201,5.333745338999065,-123.42995842106274,-5.039347286646171,tremor
256,9226102,2.309,-0.5208501410633841,-0.10202998406743503,0.8110570198948511,5.21340515475022,-122.55417073650578,-4.8691225942820315,tremor
257,9226106,2.313,-0.5084110460363468,-0.1026505739924576,0.8212244929754231,5.0706765653888,-121.6259713020923,-4.6809567827011085,tremor
258,9226111,2.318,-0.49592636160859416,-0.10323929120478882,0.8311040175944693,4.906740373667047,-120.64097738933266,-4.474576433662756,tremor
259,9226116,2.323,-0.4834017702997241,-0.10379525717660794,0.8406878460471516,4.722911149923418,-119.59494601594884,-4.249813701366256,tremor
260,9226126,2.333,-0.47084354636001474,-0.10431779163786688,0.8499681132721844,4.520630250016819,-118.48384336715355,-4.006617106066542,tremor
261,9226130,2.337,-0.45825854774897146,-0.10480641489569899,0.8589368521393717,4.301457986444307,-117.30391401671024,-3.74506130638369,tremor
262,9226140,2.347,-0.44565419871841694,-0.10526084547029879,0.8675860188301697,4.067064943984812,-116.05174817137332,-3.4653557064068257,tremor
263,9226145,2.352,-0.4330384646186598,-0.10568099288656291,0.8759075298321091,3.819222441632698,-114.72434507225987,-3.1678517899440046,tremor
264,9226150,2.357,-0.4204198210910539,-0.10606694566134635,0.883893311851869,3.5597921529121126,-113.31917071176322,-2.853049108502537,tremor
265,9226154,2.361,-0.40780722019195675,-0.10641895473567774,0.891535365626223,3.290714904873713,-111.83420817347955,-2.5215998788185896,tremor
266,9226159,2.366,-0.3952100561510919,-0.10673741280968932,0.8988258441718244,3.013998681482847,-110.26799917322458,-2.1743121649791437,tremor
267,9226164,2.371,-0.3826381333651182,-0.1070228302370651,0.9057571454693696,2.7317058614472574,-108.61967575976948,-1.8121516237552624,tremor
268,9226190,2.397,-0.37010163885534886,-0.10727580831897479,0.9123220189387357,2.4459397271909573,-106.88898160573102,-1.4362417763352753,tremor
269,9226194,2.401,-0.35761112078711316,-0.10749701099654184,0.9185136843532272,2.1588302944240376,-105.076282854294,-1.0478627373986045,tremor
270,9226204,2.411,-0.345177473780954,-0.1076871360598638,0.9243259611058898,1.8725195347544543,-103.18256903637202,-0.6484482931117485,tremor
271,9226209,2.416,-0.3328119306907512,-0.10784688704471056,0.9297534050463148,1.5891461001677434,-101.20944505888541,-0.2395811886047898,tremor
272,9226214,2.421,-0.3205260593763889,-0.10797694694937494,0.9347914495324929,1.3108297050536066,-99.15911560839943,0.1770135223978688,tremor
273,9226219,2.426,-0.3083317619083132,-0.10807795476317719,0.939436546955494,1.0396553678472786,-97.03436346879194,0.599477190677715,tremor
274,9226224,2.431,-0.2962412727784829,-0.10815048556678028,0.9436863068276762,0.7776577478743706,-94.83852321900213,1.025828421975366,tremor
275,9226228,2.435,-0.2842671521919898,-0.10819503467189867,0.9475396265742867,0.5268058275547821,-92.57545159642441,1.4539760703690776,tremor
276,9226233,2.44,-0.27242227044154477,-0.10821200595054083,0.9509968114056688,0.28898818622884265,-90.2494955377766,1.8817343032227254,tremor
277,9226238,2.445,-0.26071977972142696,-0.10820170419752458,0.954059680034598,0.06599909217124279,-87.86545859722418,2.3068395908330914,tremor
278,9226243,2.45,-0.2491730704689452,-0.108164331105756,0.9567316535011249,-0.14047439399645778,-85.42856614007577,2.726969406003106,tremor
279,9226247,2.454,-0.23779571034855787,-0.10809998423557853,0.9590178249381694,-0.3288641567388742,-82.9444294570529,3.139762362240332,tremor
280,9226252,2.459,-0.22660136521305804,-0.10800865824254849,0.9609250087198731,-0.4977315118013576,-80.41900875954931,3.5428394772232426,tremor
281,9226257,2.464,-0.21560370267091641,-0.10789024759777784,0.9624617680491674,-0.6457764114929961,-77.8585749038775,3.9338262239650232,tremor
282,9226262,2.469,-0.20481628013823783,-0.10774455008717795,0.9636384206322216,-0.7718454027235255,-75.26966964477795,4.310375028558608,tremor
283,9226267,2.474,-0.19425242034084036,-0.10757127049693392,0.9644670226296096,-0.8749384282287971,-72.6590642248458,4.670187891017817,tremor
284,9226272,2.479,-0.1839250780488833,-0.10737002406051527,0.964961331544924,-0.9542146040062671,-70.03371615870397,5.011038841527863,tremor
285,9226282,2.489,-0.17384670228247304,-0.10714033942949389,0.9651367490941237,-1.0089971280650532,-67.40072416322083,5.330795992115774,tremor
286,9226287,2.494,-0.16402909826224188,-0.10688166110545265,0.9650102453830808,-1.0387774731509554,-64.76728131100187,5.627442995615268,tremor
287,9226312,2.519,-0.15448329298200772,-0.10659335140347799,0.9646002659035914,-1.0432189889030141,-62.1406266304527,5.899099772658772,tremor
288,9226317,2.524,-0.14521940750438173,-0.10627469208707134,0.9639266229444406,-1.0221599927905836,-59.52799551954625,6.144042406616131,tremor
289,9226327,2.534,-0.13624653806349873,-0.10592488581690418,0.9630103730210591,-0.97561637641034,-56.93656945360629,6.360722128074191,tremor
290,9226332,2.539,-0.1275726470205073,-0.10554305751633816,0.9618736818855765,-0.9037837075746468,-54.3734255275962,6.547783307161906,tremor
291,9226337,2.544,-0.11920446388610056,-0.10512825571928777,0.9605396786234623,-0.8070387754207368,-51.84548638054948,6.704080342794349,tremor
292,9226341,2.548,-0.11114739614474735,-0.10467945397267986,0.9590323002974446,-0.6859405029701194,-49.35947102779487,6.8286932913320015,tremor
293,9226346,2.553,-0.10340544950949059,-0.10419555243816389,0.9573761285706212,-0.5412301336892662,-46.921847102995315,6.9209420266903345,tremor
294,9226351,2.558,-0.09598115743745449,-0.10367537997456146,0.9555962197226133,-0.37383058272589353,-44.538784997793854,6.980398681297983,tremor
295,9226356,2.563,-0.08887552013972601,-0.10311769716628935,0.953717929454596,-0.18484482937357774,-42.21611437746212,7.006898089659156,tremor
296,9226361,2.568,-0.08208795381292164,-0.10252120096746603,0.9517667338508597,0.024446784282223268,-39.959283539041635,7.00054594582145,tremor
297,9226366,2.573,-0.07561625129952118,-0.10188453182725155,0.9497680478190088,0.2525904912923208,-37.773322061435806,6.961724390256739,tremor
298,9226371,2.578,-0.06945655576708248,-0.10120628432112812,0.9477470422654507,0.49796441925828955,-35.66280717577563,6.89109475542755,tremor
299,9226375,2.582,-0.06360334923088458,-0.10048502241242344,0.9457284611802671,0.7587854316687702,-33.63183426004538,6.789597218574061,tremor
300,9226385,2.592,-0.05804945780980659,-0.0997193004923272,0.9437364397131593,1.0331176204295849,-31.683991832777124,6.658447134402882,tremor
301,9226390,2.597,-0.05278607550451324,-0.0989076912845878,0.9417943242301573,1.3188825615873268,-29.8223413825233,6.49912785205339,tremor
302,9226395,2.602,-0.04780280803925232,-0.09804882154614807,0.9399244952611692,1.6138714233913125,-28.049402319147475,6.313379864127121,tremor
303,9226399,2.606,-0.043087737942777975,-0.09714141624307203,0.9381481941939857,1.915758987612694,-26.367142270223333,6.103186194119702,tremor
304,9226404,2.611,-0.03862751159405224,-0.09618435153264515,0.9364853545528188,2.2221196117126993,-24.77697287589522,5.870754003101616,tremor
305,9226409,2.616,-0.034407448457867876,-0.09517671644458739,0.9349544387279424,2.530445121807915,-23.279751163596323,5.61849248487309,tremor
306,9226436,2.643,-0.03041167221176757,-0.09411788264045859,0.933572281103266,2.8381645854955213,-21.87578651194071,5.348987217588155,tremor
307,9226440,2.647,-0.026623262935271747,-0.09300758106066341,0.9323539386630797,3.142665869973329,-20.564853141042807,5.064971245200255,tremor
308,9226450,2.657,-0.0230244289988831,-0.09184598367386428,0.9313125503455469,3.4413188438754374,-19.34620799681761,4.769293269272222,tremor
309,9226460,2.667,-0.01959669674706413,-0.09063378796941773,0.9304592066393644,3.7315000299123597,-18.218613833456022,4.464883434583884,tremor
310,9226465,2.672,-0.016321115511608433,-0.08937230133373614,0.9298028311716408,4.01061846051775,-17.180367240382218,4.154717284102104,tremor
311,9226469,2.676,-0.013178474930052465,-0.08806352207546049,0.9293500762797581,4.276142433705508,-16.22933129835469,3.8417785340497437,tremor
312,9226474,2.681,-0.010149531006777542,-0.08671021364451377,0.9291052347650173,4.525626815888417,-15.36297247296374,3.5290213717702894,tremor
313,9226479,2.686,-0.007215236879613801,-0.08531596853751389,0.9290701701658064,4.756740495907962,-14.578401259348647,3.219333003023912,tremor
314,9226484,2.691,-0.0043569738764269285,-0.08388525848896985,0.9292442679504047,4.967293561068209,-13.872415985511056,2.915497170825329,tremor
315,9226489,2.696,-0.001556778190849917,-0.08242346779614142,0.9296244100120644,5.155263741103358,-13.241549073032951,2.6201593393117224,tremor
316,9226493,2.7,0.0012024416066461626,-0.08093690699575583,0.9302049747535748,5.318821649113826,-12.682114952862904,2.3357941897249725,tremor
317,9226498,2.705,0.0039367009634524875,-0.07943280458592904,0.9309778648765612,5.4563543398335295,-12.19025874865295,2.0646760165981264,tremor
318,9226503,2.71,0.006660754180811102,-0.0779192750525535,0.9319325647407934,5.5664867068111175,-11.762004778836994,1.8088525437329441,tremor
319,9226513,2.72,0.009387931857471356,-0.07640526210383754,0.9330562288249482,5.6481002543071215,-11.393303898461223,1.570122603145387,tremor
320,9226518,2.725,0.012130004581829484,-0.07490045672753615,0.9343338023921006,5.700348811109256,-11.080078709279366,1.350018036691133,tremor
321,9226527,2.734,0.014897075848844409,-0.0734151904485724,0.9357481749257242,5.722670806519941,-10.81826571847269,1.1497900901035971,tremor
322,9226532,2.739,0.0176975064050388,-0.07196030496192676,0.9372803662370901,5.714797806487797,-10.603853629472518,0.9704004739129316,tremor
323,9226559,2.766,0.020537871387059398,-0.07054700012321038,0.9389097443379737,5.676759109169622,-10.432917107696092,0.8125171682817622,tremor
324,9226564,2.771,0.023422950769547396,-0.06918666306663485,0.9406142732270619,5.608882316667521,-10.301645576898983,0.6765149529337708,tremor
325,9226569,2.776,0.02635575283083788,-0.06789068194710723,0.9423707876960502,5.5117899189938715,-10.20636685053181,0.5624805496809397,tremor
326,9226573,2.78,0.029337569622953506,-0.06667024842337343,0.9441552912081266,5.386392030044659,-10.143565652808741,0.4702221705136475,tremor
327,9226578,2.785,0.032368062811357394,-0.06553615347380853,0.9459432719433827,5.233875490938077,-10.109897298660329,0.3992831673765894,tremor
328,9226583,2.79,0.03544537771362296,-0.06449858145022551,0.947710031330138,5.055689601532817,-10.10219695786578,0.34895938504427787,tremor
329,9226588,2.795,0.03856628287835133,-0.0635669074351644,0.9494310188402424,4.853528762668522,-10.117485023877867,0.31831973380371503,tremor
330,9226593,2.8,0.04172633207140925,-0.06274950298940515,0.9510821665447347,4.629312318247788,-10.152969149801773,0.306229430726232,tremor
331,9226597,2.804,0.04492004505716375,-0.062053555269421176,0.9526402169086469,4.385161885040707,-10.20604351089991,0.31137531155332243,tremor
332,9226602,2.809,0.048141103080346324,-0.06148490426404449,0.9540830375349558,4.123376455061329,-10.274285811825347,0.3322925923597231,tremor
333,9226607,2.814,0.05138255449220521,-0.061047902548793,0.955389917014468,3.8464055560192323,-10.355452485470117,0.3673924624721274,tremor
334,9226612,2.819,0.05463702556049602,-0.06074530148863271,0.9565418366568775,3.55682076444504,-10.447472439988337,0.414989917209367,tremor
335,9226617,2.824,0.05789693120161899,-0.060578167239567875,0.957521713619504,3.2572858863125704,-10.548439616096303,0.4733312886856591,tremor
336,9226622,2.829,0.061154680219681935,-0.060545829211191095,0.9583146117638882,2.9505261508862306,-10.656604534621655,0.5406210010896055,tremor
337,9226627,2.834,0.06440286967091918,-0.060645862862538646,0.9589079174079489,2.6392968017956395,-10.770364957935692,0.6150471574984385,tremor
338,9226631,2.838,0.06763446322278321,-0.060874107821381994,0.959291477959922,2.326351509618414,-10.888255764418778,0.6948056514756696,tremor
339,9226636,2.843,0.07084294886236636,-0.061224721355550134,0.9594577021860903,2.0144110658980856,-11.00893814027618,0.7781225825768074,tremor
340,9226651,2.858,0.07402247203062438,-0.06169026620293439,0.959401621556182,1.706132842798148,-11.131188220557894,0.8632748368342038,tremor
341,9226656,2.863,0.07716794120198149,-0.062261830712903685,0.9591209127242476,1.404081509805854,-11.253885352357774,0.94860876899585,tremor
342,9226682,2.889,0.08027510405672904,-0.06292917821000908,0.9586158817559938,1.1107014846464278,-11.376000198251244,1.032556989894726,tremor
343,9226687,2.894,0.08334059363999002,-0.06368092152640581,0.9578894112417182,0.8282915575505744,-11.496582936088464,1.1136533156160342,tremor
344,9226697,2.904,0.08636194516297326,-0.06450471784729978,0.9569468719763029,0.5589820687783189,-11.614751832205192,1.1905459703631929,tremor
345,9226701,2.908,0.08933758525095802,-0.06538747846085403,0.9557960014630624,0.3047149473433192,-11.729682464204101,1.2620091488629683,tremor
346,9226706,2.913,0.09226679636283108,-0.06631558775605827,0.954446752088103,0.06722684465983393,-11.840597848982767,1.3269530375776228,tremor
347,9226711,2.918,0.09514965974194746,-0.06727512586710008,0.9529111123650541,-0.15196447282811287,-11.946759697916347,1.384432372403409,tremor
348,9226716,2.923,0.09798698061711747,-0.06825208966714998,0.9512029051076311,-0.35157037156461857,-12.047460979950726,1.4336535814832425,tremor
349,9226721,2.928,0.10078019950239618,-0.06923260729423884,0.9493375667079541,-0.5305381980709664,-12.142019928327176,1.4739805313815653,tremor
350,9226726,2.933,0.10353129339679767,-0.07020314197969707,0.9473319118660272,-0.6880547411395834,-12.229775579352134,1.504938866655385,tremor
351,9226731,2.938,0.10624267050369976,-0.07115068159350256,0.9452038881341899,-0.8235463807261328,-12.310084883173092,1.5262189083621045,tremor
352,9226736,2.943,0.1089170618104351,-0.07206291098295349,0.9429723245259627,-0.9366760498580848,-12.382321378494105,1.537677057247423,tremor
353,9226741,2.948,0.11155741252244443,-0.0729283648346477,0.9406566782166014,-1.0273371880493871,-12.445875377662588,1.5393356339982995,tremor
354,9226745,2.952,0.11416677596106822,-0.07373655941716249,0.9382767830642847,-1.0956449130788743,-12.500155568016973,1.531381084620126,tremor
355,9226750,2.957,0.11674821213389965,-0.07447810215222665,0.9358526033398348,-1.141924681060295,-12.544591902469447,1.5141604856447373,tremor
356,9226755,2.962,0.11930469279219287,-0.0751447785090299,0.9334039957002056,-1.1666987409190352,-12.578639629419838,1.4881763015265932,tremor
357,9226760,2.967,0.12183901441767207,-0.07572961621526982,0.930950482101293,-1.1706707174557833,-12.601784300109847,1.4540793736746218,tremor
358,9226765,2.972,0.12435372024359939,-0.07622692722580306,0.9285110360350824,-1.1547086765073207,-12.61354758839315,1.4126601548317141,tremor
359,9226770,2.977,0.12685103212014556,-0.07663232828138461,0.9261038842016064,-1.1198270359025,-12.613493758714275,1.3648382411834765,tremor
360,9226774,2.981,0.12933279278500034,-0.07694274122231892,0.923746325485125,-1.0671676862538024,-12.601236616761398,1.3116502942848527,tremor
361,9226779,2.986,0.13180041889374278,-0.0771563744927365,0.9214545688857408,-0.9979806754994666,-12.5764467684684,1.254236482203889,tremor
362,9226804,3.011,0.13425486499107786,-0.07727268748032295,0.9192435918458498,-0.9136047908617896,-12.538858993410058,1.1938256016379794,tremor
363,9226809,3.016,0.13669659844800178,-0.07729233948466199,0.9171270201850555,-0.8154483430766452,-12.48827950791649,1.1317190689098535,tremor
364,9226814,3.021,0.13912558523197485,-0.07721712519685436,0.915117030594727,-0.7049704228449755,-12.424592856496854,1.0692739874626223,tremor
365,9226819,3.026,0.14154128619935144,-0.0770498986076431,0.9132242763243943,-0.5836628616468557,-12.34776813838004,1.007885513145899,tremor
366,9226824,3.031,0.1439426633931927,-0.0767944872487542,0.9114578363104013,-0.45303309176663364,-12.257864261733202,0.9489687471177739,tremor
367,9226829,3.036,0.14632819560196972,-0.07645559862477735,0.9098251875677408,-0.31458806604835127,-12.155033929066251,0.8939403906878368,tremor
368,9226834,3.041,0.14869590220528112,-0.07603872062443309,0.9083322002208076,-0.16981936718409418,-12.039526093606225,0.8442003977522137,tremor
369,9226838,3.045,0.15104337412627158,-0.07555001762175947,0.9069831541244121,-0.02018960860882952,-11.911686683080328,0.801113859118559,tremor
370,9226843,3.05,0.15336781054999254,-0.07499622389610595,0.9057807756538596,0.13287979653791476,-11.771957457817672,0.7659933493703214,tremor
371,9226848,3.055,0.15566605997114522,-0.07438453591677302,0.9047262929432424,0.2880194460220172,-11.620872947742804,0.7400819613505528,tremor
372,9226854,3.061,0.15793466411625906,-0.07372250495239976,0.9038195076337188,0.4439213091849843,-11.459055491054727,0.7245372458510896,tremor
373,9226858,3.065,0.1601699033489768,-0.07301793137391269,0.903058881057489,0.5993466297134998,-11.287208469573233,0.7204162637954489,tremor
374,9226863,3.07,0.16236784230731824,-0.07227876191993128,0.9024416327200089,0.7531323825435485,-11.106107895895022,0.728661943708397,tremor
375,9226868,3.075,0.16452437472398926,-0.07151299108267707,0.9019638489399067,0.9041963152589165,-10.916592551269186,0.750090917910413,tremor
376,9226873,3.08,0.16663526662440512,-0.07072856764969941,0.901620599547708,1.0515406213734273,-10.719552899113488,0.7853829872822308,tremor
377,9226877,3.084,0.16869619735882582,-0.0699333073027567,0.9014060606144192,1.1942543093426716,-10.515919009438932,0.8350723374716188,tremor
378,9226882,3.089,0.17070279818116052,-0.06913481203216267,0.9013136412635988,1.3315143474135926,-10.306647728172495,0.8995405990601953,tremor
379,9226887,3.094,0.17265068831515293,-0.06834039697629445,0.9013361127029499,1.4625856799995307,-10.092709316516022,0.9790118102144486,tremor
380,9226892,3.099,0.17453550862966177,-0.06755702514604617,0.9014657376852395,1.586820224898483,-9.875073772772751,1.073549303711487,tremor
381,9226897,3.104,0.17635295316551913,-0.06679125034727303,0.9016943986701126,1.7036549707371733,-9.654697036815762,1.1830545034085571,tremor
382,9226902,3.109,0.1780987988123707,-0.06604916847475435,0.9020137230098029,1.8126092990162823,-9.43250727078995,1.307267580665883,tremor
383,9226927,3.134,0.17976893342940106,-0.06533637722212587,0.9024152035294041,1.913281654213484,-9.20939141361071,1.4457698903112517,tremor
384,9226932,3.139,0.18135938265274248,-0.06465794413580912,0.9028903129283045,2.0053456788947233,-8.986182223305578,1.597988079450736,tremor
385,9226937,3.144,0.18286633555934886,-0.06401838283844832,0.9034306105121614,2.0885459201646994,-8.763646046805247,1.7631997425887853,tremor
386,9226942,3.149,0.18428616929526026,-0.06342163715898524,0.9040278398959579,2.162693201165804,-8.542471582682982,1.9405404851016879,tremor
387,9226947,3.154,0.18561547275455245,-0.0628710728313263,0.904674016511439,2.2276597388793595,-8.323259918375658,2.12901225392508,tremor
388,9226952,3.159,0.1868510694239007,-0.06236947635951275,0.9053615040005816,2.28337407904386,-8.10651612271182,2.3274927961499365,tremor
389,9226956,3.163,0.18799003957408061,-0.06191906059173028,0.9060830788568572,2.3298159120707815,-7.892642654959935,2.5347461091076156,tremor
390,9226961,3.168,0.18902974205785614,-0.061521476495826746,0.9068319829577869,2.3670108316418195,-7.681934813665804,2.749433747354838,tremor
391,9226966,3.173,0.18996783603466616,-0.06117783058312976,0.9076019638893524,2.395025100794767,-7.4745783934114405,2.9701268524235145,tremor
392,9226976,3.183,0.19080230296025638,-0.06088870738361761,0.9083873031765587,2.4139604977654936,-7.2706496466539035,3.1953187702555357,tremor
393,9226995,3.202,0.19153146913313573,-0.06065419633285822,0.9091828326949184,2.4239493226949467,-7.070117563820151,3.4234381190840133,tremor
394,9227000,3.207,0.19215402896733286,-0.06047392238997,0.9099839396461669,2.4251496524203056,-6.872848394100206,3.65286216879572,tremor
395,9227005,3.212,0.19266906896568517,-0.060347079669304256,0.9107865605545272,2.417740930285091,-6.678612242757731,3.881930394657136,tremor
396,9227010,3.217,0.19307609212451482,-0.06027246734271573,0.9115871648081864,2.401919969546683,-6.487091511320422,4.108958076202796,tremor
397,9227015,3.222,0.19337504225087426,-0.06024852706087118,0.9123827283687226,2.3778974335275107,-6.297890903343581,4.332249825924279,tremor
398,9227025,3.232,0.19356632746174438,-0.06027338115488396,0.9131706984221905,2.345894836052599,-6.1105486996529175,4.550112949723539,tremor
399,9227050,3.257,0.1936508419940363,-0.0603448709135054,0.9139489499540945,2.306142085029497,-5.9245490048767,4.7608705589083335,tremor
400,9227055,3.262,0.19362998540336698,-0.060460594283836995,0.9147157354828945,2.258875572495786,-5.7393346728473436,4.96287436942459,tremor
401,9227060,3.267,0.19350567827069734,-0.06061794241308074,0.9154696294507213,2.2043367976977746,-5.554320626920009,5.154517136678836,tremor
402,9227065,3.272,0.1932803736539849,-0.060814134534523376,0.9162094689983223,2.1427714969185163,-5.368907301257812,5.334244683536116,tremor
403,9227069,3.276,0.19295706368863313,-0.061046250802074986,0.9169342929978067,2.0744292449833535,-5.182493942275496,5.500567485590388,tremor
404,9227074,3.281,0.1925392809253079,-0.061311262791516996,0.9176432812562757,1.9995634877519473,-4.994491528546528,5.652071782255939,tremor
405,9227079,3.286,0.19203109417403913,-0.061606061507638255,0.9183356957363332,1.9184319615009242,-4.804335094633079,5.787430184420437,tremor
406,9227084,3.291,0.19143709878654946,-0.06192748285727823,0.9190108254815604,1.8312974533237243,-4.61149527890196,5.905411748296649,tremor
407,9227089,3.296,0.19076240144821494,-0.0622723306609677,0.9196679367070056,1.7384288557175394,-4.415488953878858,6.004891479857701,tremor
408,9227094,3.301,0.19001259966432374,-0.06263739737252717,0.9203062292382682,1.640102467163951,-4.215888835301631,6.084859225355208,tremor
409,9227099,3.306,0.18919375621164874,-0.0630194827497639,0.9209248001796501,1.5366034877304935,-4.012331999006179,6.144427892812343,tremor
410,9227108,3.315,0.188312368886539,-0.06341541076564243,0.921522615383081,1.4282276541125314,-3.8045272612523022,6.182840939170841,tremor
411,9227113,3.32,0.18737533591695835,-0.06382204506681675,0.9220984889943038,1.3152829520911906,-3.5922613975841067,6.199479049322817,tremor
412,9227118,3.325,0.18638991742159927,-0.06423630327788557,0.9226510710882346,1.1980913364438188,-3.3754041879874084,6.1938659273772805,tremor
413,9227123,3.33,0.18536369329864807,-0.06465517042104671,0.9231788431855,1.076990379993159,-3.15391228288779,6.165673117940531,tremor
414,9227133,3.34,0.18430451791487343,-0.06507571167974044,0.9236801212748563,0.9523347669610195,-2.9278318876329843,6.114723776504572,tremor
415,9227138,3.345,0.1832204719479212,-0.06549508468926844,0.9241530658502892,0.8244975441055596,-2.6973002654117164,6.040995313266864,tremor
416,9227147,3.354,0.18211981171675312,-0.06591055149340402,0.9245956983961422,0.6938710486575149,-2.4625460620184363,5.944620843505607,tremor
417,9227173,3.38,0.18101091632232352,-0.06631949026671682,0.9250059237008805,0.5608674452703482,-2.2238884606547256,5.825889389799534,tremor
418,9227177,3.384,0.17990223291653323,-0.06671940686730077,0.9253815573308461,0.42591882311114204,-1.9817351801507646,5.685244796677918,tremor
419,9227182,3.389,0.17880222042311056,-0.06710794625088674,0.9257203575357751,0.28947682492736765,-1.736579334804493,5.523283335691937,tremor
420,9227187,3.394,0.17771929204707768,-0.06748290374167426,0.9260200607853756,0.15201179804511175,-1.4889951788610916,5.340749996623972,tremor
421,9227192,3.399,0.1766617569258697,-0.06784223611634782,0.9262784200604317,0.014011470135275948,-1.2396327653990256,5.138533477227759,tremor
422,9227202,3.409,0.17563776129179004,-0.0681840724172779,0.9264932449590809,-0.12402083969882928,-0.9892115604904639,4.917659899310118,tremor
423,9227206,3.413,0.17465522953153825,-0.06850672437255993,0.9266624426452678,-0.2615684595813474,-0.7385130703115106,4.679285293560836,tremor
424,9227211,3.418,0.17372180554559657,-0.06880869626863484,0.9267840586729491,-0.3981040350129163,-0.48837256091829495,4.424686909800835,tremor
425,9227216,3.423,0.1728447948310445,-0.06908869409932593,0.9268563167702415,-0.5330926079404349,-0.2396699757930161,4.155253423748383,tremor
426,9227221,3.428,0.1720311077383606,-0.06934563380495627,0.9268776567585949,-0.6659950758797933,0.00667981772983237,3.8724741262977584,tremor
427,9227226,3.433,0.17128720438694078,-0.0695786484162483,0.9268467699033299,-0.7962719943004672,0.2497372985741918,3.577927196344973,tremor
428,9227235,3.442,0.1706190417643256,-0.06978709392766613,0.9267626311299408,-0.923387676757478,0.48854890593040734,3.273267172551035,tremor
429,9227250,3.457,0.17003202357709132,-0.06997055374068888,0.926624527680738,-1.0468145379909037,0.7221578139724314,2.960211752273993,tremor
430,9227255,3.462,0.16953095346058594,-0.07012884153612467,0.9264320839138211,-1.1660376154579526,0.9496146828163203,2.6405280564232765,tremor
431,9227260,3.467,0.16911999217982196,-0.07026200245331131,0.9261852820471127,-1.280559195337094,1.1699882110699298,2.316018506096078,tremor
432,9227264,3.471,0.16880261945214495,-0.0703703124710119,0.9258844787144099,-1.389903461385691,1.3823753365717442,1.9885064596324653,tremor
433,9227269,3.476,0.16858160098382174,-0.07045427589929051,0.9255304172266189,-1.4936210800551917,1.5859109610888467,1.6598217575437646,tremor
434,9227293,3.5,0.16845896123529547,-0.0705146209041656,0.9251242354273107,-1.5912936328162135,1.7797771050924618,1.3317863192279795,tremor
435,9227298,3.505,0.16843596232046468,-0.07055229299886888,0.9246674690118021,-1.6825378062040282,1.963211423950018,1.006199930852914,tremor
436,9227303,3.51,0.16851308931845255,-0.07056844644922468,0.9241620501605431,-1.7670092518669382,2.135515033767655,0.6848263585103979,tremor
437,9227308,3.515,0.16869004215098363,-0.07056443355844871,0.9236103013380634,-1.844406034024416,2.296059603430157,0.3693799145019946,tremor
438,9227313,3.52,0.16896573407246251,-0.07054179182046623,0.9230149241404106,-1.914471591268392,2.444293670880592,0.061512597535363346,tremor
439,9227318,3.525,0.16933829674309747,-0.07050222896121104,0.9223789831396914,-1.9769971532160113,2.5797481395001918,-0.23719808001714612,tremor
440,9227323,3.53,0.16980509180832126,-0.07044760592341726,0.9217058847678257,-2.031823568199665,2.7020409079623455,-0.5252604729787539,tremor
441,9227327,3.534,0.17036272888458467,-0.0703799178905665,0.920999351392607,-2.078842513748661,2.8108805865493154,-0.8012792971135388,tremor
442,9227332,3.539,0.17100708984429944,-0.07030127348817083,0.9202633908570369,-2.117997076134879,2.9060692559211563,-1.063965151533947,tremor
443,9227337,3.544,0.17173335929257896,-0.07021387234368802,0.9195022618682471,-2.149281699032448,2.987504231326429,-1.312142997409661,tremor
444,9227342,3.549,0.17253606112660844,-0.0701199812282564,0.9187204357272793,-2.172741514505841,3.055178806169095,-1.544759532615441,tremor
445,9227346,3.553,0.17340910105671334,-0.0700219090423716,0.9179225549797329,-2.188471081265853,3.1091819627084942,-1.760889413942407,tremor
446,9227351,3.558,0.17434581493982348,-0.06992198094220187,0.917113389636042,-2.1966125645043615,3.1496970531375568,-1.959740290699353,tremor
447,9227356,3.563,0.1753390227266308,-0.06982251193248805,0.9162977916568142,-2.1973533986421114,3.176999470631278,-2.1406566258894992,tremor
448,9227366,3.573,0.17638108775129538,-0.06972578027527784,0.9154806484225029,-2.1909234797456763,3.1914533469620423,-2.303122293211019,tremor
449,9227380,3.587,0.17746398099754743,-0.06963400108061249,0.9146668359081644,-2.1775919389542064,3.193507330160346,-2.4467619495237143,tremor
450,9227385,3.592,0.17857934986119006,-0.06954930045503822,0.9138611722647726,-2.1576635524471923,3.1836895106316083,-2.571341193142012,tremor
451,9227390,3.597,0.17971859080453945,-0.06947369058527982,0.9130683724712976,-2.1314748474079344,3.162601575043939,-2.676765528484295,tremor
452,9227415,3.622,0.18087292517570072,-0.06940904612611372,0.9122930046705487,-2.099389967041683,3.1309122731833647,-2.7630781671922557,tremor
453,9227420,3.627,0.18203347735851588,-0.06935708224253445,0.9115394487417331,-2.0617963608864964,3.0893502846782694,-2.8304567048246025,tremor
454,9227430,3.637,0.1831913543389071,-0.06931933462732029,0.9108118575990869,-2.019100369114659,3.0386965723500574,-2.8792087211457016,tremor
455,9227434,3.641,0.1843377257271324,-0.06929714177817851,0.9101141216429431,-1.9717227706216198,2.9797763095907124,-2.909766361595804,tremor
456,9227439,3.646,0.18546390326441745,-0.06929162977662717,0.9094498367291585,-1.9200943637021046,2.9134504723360934,-2.922679967359739,tremor
457,9227444,3.651,0.18656141886148855,-0.06930369976638669,0.9088222759646792,-1.8646516447051429,2.840607192086318,-2.9186108297003885,tremor
458,9227449,3.656,0.18762210025654819,-0.0693340182844097,0.9082343655796686,-1.8058326445933761,2.7621529737808204,-2.8983231493981223,tremor
459,9227454,3.661,0.18863814343208135,-0.06938301055408634,0.9076886650686459,-1.744072976504621,2.679003889196235,-2.862675284894744,tremor
460,9227459,3.666,0.18960218098732118,-0.06945085680827391,0.9071873517338644,-1.679802139812878,2.592076861027565,-2.8126103752629232,tremor
461,9227464,3.671,0.19050734572329456,-0.0695374916698659,0.9067322097038991,-1.6134401184105462,2.502281153596107,-2.7491464280297095,tremor
462,9227468,3.675,0.1913473287596915,-0.06964260657966931,0.9063246234399821,-1.5453943039347275,2.4105101824902877,-2.6733659671539383,tremor
463,9227473,3.68,0.19211643156842792,-0.06976565522530888,0.9059655756833335,-1.4760567693235196,2.3176337474873194,-2.5864053419948783,tremor
464,9227478,3.685,0.19280961137934025,-0.06990586189054578,0.9056556497400323,-1.4058019143612661,2.224490781828547,-2.489443802797681,tremor
465,9227483,3.69,0.19342251949054334,-0.0700622326115797,0.9053950359471743,-1.33498450166559,2.131882697736958,-2.3836924513923767,tremor
466,9227493,3.7,0.1939515321008499,-0.07023356899541697,0.905183542116062,-1.26393809751566,2.040567393891457,-2.270383177113254,tremor
467,9227498,3.705,0.1943937733750715,-0.07041848452508763,0.9050206077053218,-1.1929739260143097,1.9512539754903946,-2.1507576873311636,tremor
468,9227507,3.714,0.19474713055520257,-0.07061542314727047,0.9049053214388829,-1.1223801368753912,1.8645982215109125,-2.0260567398637104,tremor
469,9227512,3.719,0.19501026104071403,-0.07082267990963392,0.9048364420499035,-1.052421476993529,1.78119881768434,-1.8975096816173171,tremor
470,9227537,3.744,0.1951825914772425,-0.07103842338783713,0.9048124218009467,-0.9833393452886884,1.701594359349836,-1.7663243945090323,tremor
471,9227542,3.749,0.19526430901043415,-0.07126071961575448,0.9048314324022754,-0.9153522010086262,1.6262611171777277,-1.6336777455718379,tremor
472,9227546,3.753,0.19525634497367278,-0.07148755720776462,0.9048913929243032,-0.848656288682804,1.5556115508482422,-1.5007066321580402,tremor
473,9227556,3.763,0.19516035137664528,-0.07171687334031206,0.9049899992784541,-0.7834266377230238,1.4899935501327348,-1.3684997046363274,tremor
474,9227565,3.772,0.1949786706397465,-0.07194658024311419,0.9051247548249832,-0.7198182905602012,1.4296903784374708,-1.238089838263993,tremor
475,9227570,3.777,0.19471429907568605,-0.07217459183963736,0.9052930016585521,-0.6579677105677229,1.3749212900220524,-1.1104474140607117,tremor
476,9227575,3.782,0.19437084465783716,-0.07239885017253016,0.9054919521240347,-0.5979943204339241,1.3258427878621426,-0.9864744563489086,tremor
477,9227580,3.787,0.19395247964083367,-0.07261735125299078,0.9057187201272695,-0.5400021225547947,1.2825504833569201,-0.8669996623846745,tremor
478,9227585,3.792,0.193463888618499,-0.07282816998356362,0.9059703518286867,-0.4840813542736214,1.2450815113793698,-0.7527743471263797,tremor
479,9227590,3.797,0.19291021262177682,-0.07302948382093531,0.9062438553411936,-0.4303101320771607,1.213417445385656,-0.6444693135849727,tremor
480,9227595,3.802,0.1922969898776258,-0.07321959486760399,0.9065362290957395,-0.37875604079290714,1.1874876490948918,-0.5426726463195332,tremor
481,9227599,3.806,0.19163009386999033,-0.07339695010722103,0.9068444885864143,-0.32947762712189393,1.1671729952437262,-0.4478884127590162,tremor
482,9227604,3.811,0.1909156693658682,-0.07356015952643644,0.9071656912593975,-0.2825257618776869,1.152309878906562,-0.360536244908563,tremor
483,9227609,3.816,0.19016006709207384,-0.07370801189506336,0.907496959364064,-0.23794484218451664,1.1426944525089362,-0.28095176341116124,tremor
484,9227614,3.821,0.1893697777696909,-0.07383948800568864,0.9078355006376069,-0.1957738131834631,1.1380870111688541,-0.20938779705280947,tremor
485,9227619,3.826,0.1885513662310526,-0.07395377120346583,0.9081786267442283,-0.1560469974105402,1.1382164601671976,-0.14601634330915744,tremor
486,9227623,3.83,0.1877114063557541,-0.0740502550672689,0.9085237694340574,-0.1187947277549561,1.1427848014685573,-0.09093120926320918,tremor
487,9227657,3.864,0.18685641756501745,-0.07412854813561574,0.9088684944234955,-0.08404378630971575,1.1514715832385194,-0.04415126735408361,tremor
488,9227662,3.869,0.18599280360472825,-0.07418847560601208,0.9092105130262946,-0.05181765686566821,1.1639382645737926,-0.0056242571960172585,tremor
489,9227667,3.874,0.18512679432290838,-0.074230077975899,0.9095476915832517,-0.02213660381684737,1.179832456264021,0.024768936806278292,tremor
490,9227672,3.879,0.1842643911033467,-0.07425360663811119,0.909878058749769,0.004982405188584102,1.1987920064391056,0.047209602386358525,tremor
491,9227677,3.884,0.183411316552023,-0.0742595164934945,0.9101998107081957,0.029525912110321174,1.2204489068774487,0.06193618035814338,tremor
492,9227682,3.889,0.18257296894999817,-0.07424845569648415,0.9105113143796759,0.05148429454875501,1.2444330015821603,0.06923897770571527,tremor
493,9227687,3.894,0.18175438189261792,-0.07422125270344967,0.9108111087210705,0.07085218237702147,1.2703754839923156,0.06945467943646293,tremor
494,9227692,3.899,0.18096018943781111,-0.0741789008459202,0.9110979042077464,0.08762894214656787,1.297912172366926,0.06296072425193616,tremor
495,9227697,3.904,0.18019459699171497,-0.07412254069950124,0.9113705806227005,0.10181920535060983,1.3266865539951471,0.05016960750357302,tremor
496,9227706,3.913,0.17946135807126282,-0.0740534405631736,0.9116281832956972,0.11343341539405578,1.3563525883769345,0.03152317311565413,tremor
497,9227716,3.923,0.1787637570022231,-0.07397297540186298,0.911869917961248,0.12248836794784658,1.3865772586603824,0.007486953816656232,tremor
498,9227725,3.932,0.17810459753737917,-0.07388260463665895,0.9120951444290493,0.1290077207878159,1.4170428608375063,-0.021455384298494376,tremor
499,9227730,3.937,0.17748619731150547,-0.07378384919028284,0.9123033692818318,0.1330224521457246,1.4474490223323146,-0.0548074414303794,tremor
500,9227740,3.947,0.17691038798490039,-0.07367826820845721,0.9124942378300277,0.13457125080260615,1.4775144455399094,-0.0920652823370392,tremor
501,9227745,3.952,0.17637852086285952,-0.0735674358792426,0.9126675255573269,0.13370082623510296,1.506978376636914,-0.13272239425969418,tremor
502,9227750,3.957,0.17589147771328978,-0.07345291876180735,0.9128231292846791,0.13046613240498015,1.5356018043340711,-0.17627437242606508,tremor
503,9227755,3.962,0.1754496864392578,-0.0733362540142439,0.9129610582629297,0.12493050345547303,1.563168396268881,-0.2222233072789745,tremor
504,9227779,3.986,0.17505314119986884,-0.0732189288783818,0.9130814253777472,0.11716570307159631,1.5894851820980587,-0.27008185285922404,tremor
505,9227789,3.996,0.17470142651507628,-0.07310236173974868,0.9131844386175844,0.10725189157292421,1.614382991886765,-0.31937696045531155,tremor
506,9227794,4.001,0.17439374484284415,-0.07298788503463895,0.9132703929196749,0.09527751629959742,1.6377166559795735,-0.3696532661538809,tremor
507,9227799,4.006,0.17412894708629661,-0.07287673022558926,0.9133396624743373,0.08133913153212896,1.6593649689555778,-0.4204761249331613,tremor
508,9227808,4.015,0.17390556547798494,-0.07277001501366592,0.9133926935370312,0.0655411535955935,1.679230417702569,-0.4714342865630665,tremor
509,9227813,4.02,0.17372184829747545,-0.07266873290320194,0.9134299977715715,0.04799555484385648,1.697238674318862,-0.5221422097031969,tremor
510,9227818,4.025,0.17357579590167743,-0.07257374518403492,0.9134521461257735,0.028821497589026347,1.7133378590165818,-0.5722420114414285,tremor
511,9227823,4.03,0.17346519757715856,-0.07248577534933444,0.91345976322106,0.008144906538363698,1.7274975854385264,-0.6214050516745596,tremor
512,9227827,4.034,0.1733876687534322,-0.07240540592454084,0.9134535222190038,-0.01390202381526666,1.7397078093943843,-0.6693331558335832,tremor
513,9227832,4.039,0.17334068814163153,-0.07233307764495106,0.9134341401098925,-0.03718139212825747,1.7499775106038398,-0.7157594847284016,tremor
514,9227837,4.044,0.17332163438263404,-0.07226909088585634,0.9134023733512174,-0.061550229735185265,1.7583332441048074,-0.7604490650638428,tremor
515,9227842,4.049,0.17332782180332773,-0.07221360921947675,0.9133590137680366,-0.08686122270351228,1.7648176020227702,-0.803198997008924,tremor
516,9227847,4.054,0.17335653489163239,-0.07216666494687791,0.9133048846133986,-0.11296352043321174,1.7694876263767447,-0.843838355875295,tremor
517,9227851,4.058,0.1734050611134233,-0.07212816643029363,0.9132408366767687,-0.13970363167556993,1.772413209506299,-0.8822278044629609,tremor
518,9227856,4.063,0.17347072171148145,-0.07209790703155423,0.9131677443231886,-0.1669264051646881,1.7736755116760488,-0.9182589319960044,tremor
519,9227861,4.068,0.17355090015170546,-0.07207557544537044,0.9130865013470659,-0.1944760885528592,1.7733654173000075,-0.9518533351112226,tremor
520,9227866,4.073,0.17364306791781386,-0.07206076720180131,0.9129980165329827,-0.22219745639811772,1.7715820438213068,-0.9829614561697446,tremor
521,9227871,4.078,0.173744807403706,-0.07205299710018108,0.912903208832254,-0.2499369953722484,1.768431311699019,-1.011561194777947,tremor
522,9227876,4.083,0.17385383171177407,-0.07205171232709438,0.9128030020882273,-0.2775441322001478,1.7640245804447081,-1.0376563104153749,tremor
523,9227900,4.107,0.1739680012334704,-0.07205630600391526,0.9126983192751745,-0.30487248716272486,1.7584773537382992,-1.0612746372454973,tremor
524,9227910,4.117,0.17408533696167292,-0.07206613090563999,0.9125900762543507,-0.33178113394954567,1.7519080554475943,-1.08246613553783,tremor
525,9227915,4.122,0.1742040305577342,-0.07208051309362963,0.9124791750949419,-0.3581358457168031,1.7444368770512377,-1.101300806798999,tremor
526,9227920,4.127,0.17432245126345,-0.07209876521231942,0.9123664970545311,-0.3838103072010025,1.7361846951493474,-1.1178665015747822,tremor
527,9227925,4.132,0.17443914980450137,-0.07212019921526584,0.912252895359215,-0.4086872731045439,1.7272720555378556,-1.1322666502983274,tremor
528,9227929,4.136,0.17455285947534718,-0.07214413830869683,0.9121391879624147,-0.4326596531835278,1.7178182180679957,-1.1446179485729835,tremor
529,9227939,4.146,0.1746624946274334,-0.07216992792891495,0.9120261504887156,-0.4556315042630195,1.7079402547467666,-1.155048028252491,tremor
530,9227943,4.15,0.17476714680557037,-0.07219694560074637,0.9119145095809622,-0.4775189089924376,1.6977521929642612,-1.163693143983273,tremor
531,9227948,4.155,0.17486607879345756,-0.07222460955537265,0.9118049368633473,-0.4982507209854229,1.6873641968643747,-1.1706959018579857,tremor
532,9227953,4.16,0.17495871683947664,-0.07225238601577993,0.9116980437104761,-0.5177691561778911,1.6768817825831277,-1.1762030536607981,tremor
533,9227958,4.165,0.17504464133806796,-0.07227979508601022,0.9115943769745583,-0.5360302107017265,1.6664050666905446,-1.1803633778378897,tremor
534,9227963,4.17,0.17512357624009964,-0.07230641520641677,0.9114944157742656,-0.5530038867380962,1.65602805090422,-1.183325667057987,tremor
535,9227968,4.175,0.17519537745779318,-0.07233188616169585,0.9113985693950727,-0.5686742105928935,1.645837949526576,-1.1852368415450447,tremor
536,9227973,4.18,0.1752600205166593,-0.07235591065229072,0.9113071762982106,-0.5830390321168569,1.63591456911271,-1.186240206261413,tremor
537,9227978,4.185,0.17531758768973163,-0.07237825446353818,0.9112205041895483,-0.596109601093326,1.6263297526704203,-1.1864738677737177,tremor
538,9227982,4.189,0.175368254829821,-0.07239874529120793,0.9111387510655196,-0.6079099233852019,1.617146902682743,-1.186069323547385,tremor
539,9227987,4.194,0.17541227809552667,-0.07241727030715565,0.9110620471336182,-0.6184759068598977,1.6084205975305372,-1.1851502334576212,tremor
540,9227997,4.204,0.17544998074839444,-0.07243377257460906,0.9109904575005302,-0.6278543142119937,1.6001963142091873,-1.1838313811008196,tremor
541,9228022,4.229,0.17548174018362234,-0.07244824644862098,0.910923985529691,-0.6361015465127057,1.5925102671735683,-1.1822178308518905,tremor
542,9228027,4.234,0.17550797534590792,-0.07246073212231759,0.9108625767875783,-0.6432822870649508,1.585389369630903,-1.180404284875789,tremor
543,9228032,4.239,0.17552913467476983,-0.07247130950172885,0.9108061235179857,-0.649468039282185,1.5788513205561172,-1.1784746420078662,tremor
544,9228037,4.244,0.17554568471777388,-0.07248009160855548,0.9107544695987155,-0.6547355943257872,1.5729048187445502,-1.176501757740996,tremor
545,9228041,4.248,0.17555809954266918,-0.07248721771893524,0.9107074159404114,-0.6591654639248606,1.567549904027127,-1.1745474019907882,tremor
546,9228046,4.253,0.17556685106828832,-0.07249284644631186,0.9106647262815735,-0.662840311590247,1.5627784241599565,-1.172662408954252,tremor
547,9228051,4.258,0.17557240041843084,-0.07249714896853837,0.9106261333197422,-0.6658434124898898,1.5585746229909863,-1.170887010834141,tremor
548,9228056,4.263,0.1755751903833013,-0.07250030258465613,0.9105913451003977,-0.6682571699246745,1.5549158417234086,-1.1692513441612802,tremor
549,9228061,4.268,0.1755756390505409,-0.07250248476664235,0.9105600515659421,-0.6701617154094821,1.5517733216511918,-1.1677761140273284,tremor
550,9228071,4.278,0.1755741346438292,-0.07250386784692421,0.9105319311499215,-0.6716336197880179,1.5491130943896074,-1.1664733981099624,tremor
551,9228075,4.282,0.17557103158269685,-0.0725046144547102,0.9105066572882748,-0.6727447439025432,1.5468969442500962,-1.1653475693347737,tremor
