sample,t_ms,t_s,ax,ay,az,gx,gy,gz,tremor
0,9244296,0.0,-0.42389742477557746,-0.09045653951244455,-0.9519696470923481,-0.7477459324393508,11.589206302521134,-1.8355241189515372,tremor
1,9244301,0.005,-0.4237024267378062,-0.09039883257631656,-0.9522981197612987,-0.7501459978842017,11.863739093472011,-2.0623196374284145,tremor
2,9244306,0.01,-0.42341267228017765,-0.0903184950518667,-0.9527799966696475,-0.736193259254041,12.143097421491625,-2.292092436691177,tremor
3,9244311,0.015,-0.42300724121184663,-0.09021378915030079,-0.9534457825743942,-0.7045316018930632,12.42277590983411,-2.5239854535340855,tremor
4,9244315,0.019,-0.42247837623692097,-0.09008743754810751,-0.9543034720561606,-0.6538282222671147,12.697791296463777,-2.75709287775195,tremor
5,9244320,0.024,-0.4218277048021228,-0.08994476655466556,-0.9553457248853755,-0.5827837055886305,12.962685938768743,-2.990463343509751,tremor
6,9244325,0.029,-0.42106103959573565,-0.08979186998453799,-0.9565588885840998,-0.4901422765571939,13.211535398761582,-3.223103563710509,tremor
7,9244330,0.034,-0.42018486687189044,-0.08963457332691675,-0.9579288427014578,-0.37470213776808425,13.437960273395717,-3.4539824088451763,tremor
8,9244335,0.039,-0.41920471806319337,-0.08947806637027403,-0.9594435684565742,-0.2353258064102222,13.63514240932177,-3.6820354277309355,tremor
9,9244340,0.044,-0.41812476244788516,-0.0893268980339051,-0.9610936820136381,-0.0709503571348067,13.795845613843326,-3.906169802759251,tremor
10,9244345,0.049,-0.4169479868748441,-0.08918510756625646,-0.9628720353181937,0.11940252328464301,13.91244094285417,-4.125269726923697,tremor
11,9244350,0.054,-0.41567657583753714,-0.08905637559871674,-0.9647730322204645,0.3366167659358127,13.976936610997996,-4.338202184429972,tremor
12,9244355,0.059,-0.4143123077652198,-0.08894415004043013,-0.9667919556872991,0.581472532183992,13.981012528683776,-4.543823111342352,tremor
13,9244359,0.063,-0.4128568993812405,-0.08885173684610423,-0.9689244074630884,0.8546373063111607,13.9160594250271,-4.740983907395606,tremor
14,9244364,0.068,-0.41131228415962706,-0.08878235927727324,-0.9711658740068522,1.1566575647343553,13.773222465717504,-4.928538264656838,tremor
15,9244369,0.073,-0.4096808316439244,-0.0887391928175657,-0.9735114009929398,1.487951115635236,13.543449221184941,-5.105349273300896,tremor
16,9244384,0.088,-0.4079655197656188,-0.08872538256080502,-0.9759553519685332,1.8488001991921224,13.217541784865,-5.27029675974463,tremor
17,9244414,0.118,-0.4061700716530711,-0.08874404844928993,-0.9784912293093488,2.239345433116837,12.786212785673175,-5.422284807958164,tremor
18,9244419,0.123,-0.4042990659794061,-0.08879828226918815,-0.9811115405693197,2.659580679992058,12.24014498452705,-5.560249410775566,tremor
19,9244424,0.128,-0.40235802733942255,-0.08889113913120888,-0.9838076980812853,3.1093489018435743,11.5700540928628,-5.683166194402919,tremor
20,9244429,0.133,-0.40035350101494477,-0.08902562530958923,-0.9865699434715641,3.5883390544142353,10.76675440181659,-5.790058156523036,tremor
21,9244434,0.138,-0.3982931148725274,-0.08920468372287362,-0.9893872915490716,4.096084060274717,9.821226764151326,-5.880003357034948,tremor
22,9244439,0.143,-0.3961856299700881,-0.08943117794466776,-0.9922474899912802,4.631959887309052,8.724688428035863,-5.952142500450645,tremor
23,9244453,0.157,-0.39404098063063875,-0.08970787537153563,-0.9951369925815398,5.195185747276739,7.4686641841164505,-6.005686349238474,tremor
24,9244458,0.162,-0.39187030418265295,-0.09003743000398383,-0.9980409446336362,5.7848254176159895,6.045058256213251,-6.039922906825435,tremor
25,9244463,0.167,-0.38968596019909557,-0.09042236518377768,-1.0009431798071897,6.399789678574578,4.4462263415622845,-6.054224307520643,tremor
26,9244468,0.172,-0.3875015388412784,-0.09086505655542197,-1.0038262278714738,7.038839847906279,2.665047187927682,-6.048053349355664,tremor
27,9244478,0.182,-0.3853318577940006,-0.0913677154675685,-1.0066713331856452,7.700592386869631,0.6949930805301566,-6.020969605694612,tremor
28,9244483,0.187,-0.38319294723807446,-0.09193237299257132,-1.0094584837778044,8.383524543062386,-1.4698014002336037,-5.9726350523069565,tremor
29,9244487,0.191,-0.3811020223238836,-0.09256086471408505,-1.0121664509553832,9.085980986738127,-3.834473000100176,-5.902819147436898,tremor
30,9244492,0.196,-0.37907744266764426,-0.09325481641044248,-1.0147728393859134,9.806181387846989,-6.40336645064067,-5.811403302423933,tremor
31,9244497,0.201,-0.37713865847687966,-0.09401563074374786,-1.0172541475639278,10.542228871753814,-9.179974833371665,-5.698384679747212,tremor
32,9244502,0.206,-0.3753061430134666,-0.09484447504988275,-1.0195858385349599,11.292119282550045,-12.16688431542919,-5.5638792550364595,tremor
33,9244506,0.21,-0.37360131121538664,-0.09574227031180159,-1.0217424206862105,12.05375117408923,-15.365723916967353,-5.408124080938438,tremor
34,9244532,0.236,-0.37204642441905167,-0.09670968138659171,-1.0236975383384546,12.824936440790625,-18.777120953023175,-5.23147869454063,tremor
35,9244537,0.241,-0.3706644812525198,-0.09774710854501156,-1.0254240717876828,13.603411493370318,-22.400662762435537,-5.034425616231281,tremor
36,9244542,0.246,-0.3694790949088616,-0.09885468037017531,-1.0268942463506532,14.386848879082713,-26.234865291657425,-4.81756989588941,tremor
37,9244557,0.261,-0.3685143571639924,-0.10003224804968083,-1.0280797498693142,15.172869241872972,-30.27714904169134,-4.581637672016188,tremor
38,9244562,0.266,-0.3677946896804972,-0.10127938108299521,-1.0289518580280532,15.959053515771553,-34.523822814083275,-4.327473720871096,tremor
39,9244567,0.271,-0.3673446833410463,-0.10259536441375441,-1.029481566737005,16.742955246486787,-38.97007561204551,-4.056037984749814,tremor
40,9244571,0.275,-0.36718892657895974,-0.10397919698566196,-1.0296397307353236,17.522112942820716,-43.60997697248528,-3.768401078945771,tremor
41,9244576,0.28,-0.36735182391125454,-0.10542959171205579,-1.029397207471424,18.294062370342942,-48.43648592944636,-3.4657387843818253,tremor
42,9244581,0.285,-0.36785740611996015,-0.10694497684388814,-1.0287250052243924,19.05634871164371,-53.44146873972628,-3.1493255386010928,tremor
43,9244586,0.29,-0.3687291337585633,-0.10852349871912198,-1.0275944343447772,19.80653852812186,-58.61572543420634,-2.8205269440846874,tremor
44,9244591,0.295,-0.3699896958705304,-0.11016302587814358,-1.0259772604176118,20.542231467869417,-63.94902519074285,-2.4807913208745616,tremor
45,9244596,0.3,-0.37166080598548784,-0.11186115453412424,-1.023845858090187,21.261071674342976,-69.43015045412058,-2.131640340010526,tremor
46,9244601,0.305,-0.37376299759720877,-0.1136152153932984,-1.021173364265894,21.960758862011815,-75.04694965299647,-1.7746587852444229,tremor
47,9244606,0.31,-0.376315421420566,-0.11542228182625104,-1.0179338293466433,22.639059037394155,-80.78639828002235,-1.4114835037701372,tremor
48,9244610,0.314,-0.37933564677082643,-0.1172791793954438,-1.0141023652118493,23.293814855270508,-86.63466800718076,-1.0437916234981446,tremor
49,9244615,0.319,-0.3828394694111092,-0.11918249674415046,-1.0096552886522816,23.92295560904207,-92.57720340249402,-0.6732881349121824,tremor
50,9244620,0.324,-0.38684072817869986,-0.12112859784575632,-1.0045702590311276,24.524506860608625,-98.59880569545798,-0.3016929586050745,tremor
51,9244625,0.329,-0.39135113263624943,-0.12311363559859308,-0.998826409019663,25.09659971865731,-104.68372290517932,0.06927235654449888,tremor
52,9244630,0.334,-0.39638010390848266,-0.12513356672949708,-0.9924044673467066,25.6374797744867,-110.81574549595521,0.43789813626923507,tremor
53,9244657,0.361,-0.4019346307674363,-0.1271841679395599,-0.985286872603992,26.14551570041498,-116.97830656107803,0.8025000947159311,tremor
54,9244662,0.366,-0.4080191429261221,-0.12926105319061137,-0.9774578772574397,26.619207506386385,-123.15458536609236,1.1614326502221919,tremor
55,9244666,0.37,-0.4146354033935459,-0.1313596919969126,-0.9689036411203364,27.057194435645336,-129.32761293167323,1.5131018224297001,tremor
56,9244681,0.385,-0.4217824216255716,-0.13347542856277259,-0.9596123136429335,27.458262461931035,-135.48037823829878,1.855977490727038,tremor
57,9244686,0.39,-0.42945638905745803,-0.13560350160206958,-0.9495741044627655,27.821351331598766,-141.59593361506847,2.1886048094832486,tremor
58,9244691,0.395,-0.4376506383991087,-0.13773906469278555,-0.938781341746459,28.145561078649667,-147.6574979363454,2.509614602606445,tremor
59,9244696,0.4,-0.4463556277890929,-0.13987720705424775,-0.9272285179458083,28.430157933258005,-153.6485563808535,2.8177325920475873,tremor
60,9244701,0.405,-0.45555895052579276,-0.14201297467800442,-0.9149123226949482,28.674579547037727,-159.55295569104055,3.111787346901151,tremor
61,9244705,0.409,-0.4652453706284713,-0.14414139178518837,-0.9018316626931199,28.878439469251244,-165.35499408262052,3.390716870249346,tremor
62,9244710,0.414,-0.47539688394912855,-0.1462574826147053,-0.8879876685466814,29.04153082391524,-171.0395051701427,3.6535737705097957,tremor
63,9244715,0.419,-0.4859928039901732,-0.14835629356059993,-0.8733836886812749,29.163829155571054,-176.59193547554062,3.8995289933650805,tremor
64,9244725,0.429,-0.49700987101948435,-0.1504329156695483,-0.8580252705770068,29.245494429604065,-181.99841526225134,4.127874118964445,tremor
65,9244729,0.433,-0.5084223825487995,-0.1524825074801486,-0.8419201297224962,29.286872189489145,-187.24582258184313,4.3380222559069725,tremor
66,9244734,0.438,-0.5202023427874082,-0.154500318137676,-0.8250781068227947,29.28849388573353,-192.32184053063236,4.52950758720944,tremor
67,9244739,0.443,-0.5323196283323282,-0.1564817106576277,-0.807511113925579,29.25107639730069,-197.21500779135155,4.701983642723963,tremor
68,9244744,0.448,-0.5447421671310779,-0.15842218514713213,-0.7892330702458178,29.175520764907358,-201.91476258324747,4.855220386756372,tremor
69,9244749,0.453,-0.5574361276593868,-0.16031740173377154,-0.7702598285718767,29.06291014745785,-206.41148016838673,4.989100219776206,tremor
70,9244754,0.458,-0.5703661152814405,-0.16216320290411046,-0.7506090932289416,28.914506999781555,-210.69650406845204,5.10361300062803,tremor
71,9244786,0.49,-0.5834953728815215,-0.16395563492530157,-0.7303003306620597,28.731749453726696,-214.76217114135403,5.198850201486522,tremor
72,9244791,0.495,-0.5967859830470634,-0.16569096801669722,-0.7093546737825964,28.51624686736584,-218.6018306579082,5.274998311951932,tremor
73,9244795,0.499,-0.6101990693202548,-0.1673657149552837,-0.6877948212909535,28.269774490687336,-222.20985751422228,5.332331610832944,tremor
74,9244800,0.504,-0.6236949942997319,-0.16897664783523167,-0.6656449332208935,27.994267183285377,-225.5816597221326,5.3712044241051675,tremor
75,9244805,0.509,-0.6372335526531958,-0.1705208127502812,-0.6429305239170409,27.69181211257788,-228.71368033698153,5.392042985139947,tremor
76,9244810,0.514,-0.6507741573888309,-0.17199554221940977,-0.6196783535445952,27.36464036089858,-231.6033939990856,5.39533700874422,tremor
77,9244815,0.519,-0.6642760180251448,-0.17339846522456884,-0.5959163190515429,27.015117375576423,-234.24929827083457,5.381631085064801,tremor
78,9244820,0.524,-0.6776983095953696,-0.17472751477065615,-0.5716733452831904,26.645732206408088,-236.6508999406839,5.351515994851723,tremor
79,9244824,0.528,-0.6910003317255583,-0.1759809329114355,-0.546979276709375,26.259085489807223,-238.8086964407207,5.305620044227616,tremor
80,9244829,0.533,-0.7041416573362781,-0.17715727321154498,-0.5218647699830168,25.85787616044789,-240.72415249091492,5.244600513141435,tremor
81,9244834,0.538,-0.7170822708355261,-0.17825540063542655,-0.4963611873173227,25.444886901172644,-242.3996720449392,5.169135306202127,tremor
82,9244839,0.543,-0.7297826959909581,-0.17927448887032316,-0.4705004904594862,25.022968379379655,-243.8385655732634,5.0799148899292375,tremor
83,9244844,0.548,-0.7422041139842469,-0.18021401510343546,-0.44431513486422586,24.59502236018261,-245.04501268345084,4.977634600088768,tremor
84,9244849,0.553,-0.7543084724459098,-0.18107375228352604,-0.4178379635454817,24.163983830899124,-246.0240200505918,4.862987407762971,tremor
85,9244854,0.558,-0.7660585865272005,-0.18185375890515085,-0.3911021000229582,23.732802316252826,-246.78137461794088,4.736657241063593,tremor
86,9244858,0.562,-0.7774182332658777,-0.18255436635984365,-0.36414083979322354,23.30442260673508,-247.32359203348489,4.599312967441913,tremor
87,9244863,0.567,-0.7883522406242024,-0.18317616390386868,-0.33698753985035607,22.881765159795496,-247.65786031659908,4.451603145824251,tremor
88,9244868,0.572,-0.7988265726023881,-0.18371998129792813,-0.30967550596180904,22.467706460229294,-247.79197880458966,4.294151655209625,tremor
89,9244873,0.577,-0.8088084117455371,-0.18418686918238505,-0.28223787766892244,22.06505963915228,-247.7342925136626,4.1275542949079655,tremor
90,9244878,0.582,-0.8182662401593666,-0.18457807726476752,-0.2547075113205347,21.67655564956318,-247.49362215910492,3.952376431054878,tremor
91,9244905,0.609,-0.8271699198300987,-0.18489503041777444,-0.2271168618496788,21.304825281648604,-247.07919020701195,3.7691517361196687,tremor
92,9244910,0.614,-0.8354907726207993,-0.18513930281863397,-0.19949786444427337,20.95238227480625,-246.50054346488614,3.5783820360844696,tremor
93,9244915,0.619,-0.8432016598284054,-0.18531259030551903,-0.17188181769489677,20.621607749337425,-245.76747285011103,3.3805382476651347,tremor
94,9244920,0.624,-0.8502770606977642,-0.1854166811814276,-0.1442992701492689,20.314736143482513,-244.8899310922572,3.1760623583793595,tremor
95,9244925,0.629,-0.8566931488736852,-0.18545342575449228,-0.1167799123884605,20.03384280522793,-243.87794921830775,2.965370376560779,tremor
96,9244930,0.634,-0.8624278654799232,-0.18542470495811453,-0.08935247673201195,19.78083335517848,-242.74155273500506,2.748856156127411,tremor
97,9244934,0.638,-0.867460987362736,-0.1853323984371166,-0.06204464649769842,19.557434905768602,-241.49067845871113,2.5268959817689716,tremor
98,9244939,0.643,-0.8717741890217844,-0.18517835251209996,-0.03488297643116559,19.36518919057607,-240.13509295022786,2.2998537855099404,tremor
99,9244944,0.648,-0.8753510968597193,-0.18496434844125895,-0.00789282552465851,19.205447623885444,-238.68431349054384,2.0680868571326187,tremor
100,9244949,0.653,-0.8781773345972983,-0.18469207138782529,0.018901697002518338,19.07936827515632,-237.14753248583338,1.831951908364342,tremor
101,9244959,0.663,-0.8802405590029719,-0.1843630804753826,0.04547777225781367,18.987914706743826,-235.53354612003395,1.5918113508845773,tremor
102,9244964,0.668,-0.881530485449424,-0.18397878027761735,0.07181389892415124,18.93185658734789,-233.85068798553925,1.3480396476880316,tremor
103,9244969,0.673,-0.8820389032038045,-0.1835403940497974,0.09788990779883697,18.911771959750773,-232.1067683223465,1.1010295951599463,tremor
104,9244973,0.677,-0.8817596807484935,-0.18304893897239988,0.12368696459708076,18.928051011043618,-230.30901938991389,0.8511983907365974,tremor
105,9244983,0.687,-0.8806887617812058,-0.18250520364725592,0.14918756229539745,18.980901168542594,-228.4640473911468,0.5989933404517114,tremor
106,9244988,0.692,-0.8788241528293903,-0.18190972806490613,0.17437550449499997,19.070353327226346,-226.5777912700932,0.3448970641994632,tremor
107,9244993,0.697,-0.8761659036141926,-0.18126278624675926,0.19923588138438167,19.196269006481156,-224.6554886172463,0.08943206571764332,tremor
108,9244998,0.702,-0.8727160814008307,-0.18056437175253023,0.22375503987332804,19.358348234848272,-222.70164884084278,-0.16683545077578063,tremor
109,9245002,0.706,-0.8684787405718245,-0.1798141862266107,0.24792054936498673,19.556137969137982,-220.72003370187542,-0.42329261613157493,tremor
110,9245029,0.733,-0.8634598885671392,-0.17901163113184088,0.2717211644401369,19.789040865781345,-218.71364526781676,-0.679277861759081,tremor
111,9245034,0.738,-0.8576674491726042,-0.1781558027838098,0.29514678546724926,20.056324234348498,-216.68472131697226,-0.9340798721949188,tremor
112,9245039,0.743,-0.8511112239315831,-0.17724549075565393,0.31818841785920304,20.357129012714225,-214.63473821897898,-1.186937562344785,tremor
113,9245044,0.748,-0.8438028522294477,-0.1762791796788002,0.3408381304274371,20.690478609041293,-212.56442131739556,-1.4370410968835374,tremor
114,9245049,0.753,-0.8357557703741675,-0.17525505442715492,0.3630890130892756,21.0552874588427,-210.47376283447142,-1.6835339467310089,tremor
115,9245054,0.758,-0.8269851697794544,-0.17417100864633195,0.3849351340859103,21.45036914876616,-208.36204729641236,-1.9255159528860717,tremor
116,9245058,0.762,-0.8175079541534035,-0.17302465657648974,0.40637149685348006,21.874443965093043,-206.22788443645925,-2.1620473438863472,tremor
117,9245063,0.767,-0.8073426954070078,-0.17181334811424528,0.42739399672797423,22.32614573627544,-204.0692494744548,-2.392153632522185,tremor
118,9245068,0.772,-0.796509587825573,-0.17053418706099516,0.4479993777279211,22.804027857190555,-201.88353059938004,-2.6148313013169435,tremor
119,9245073,0.777,-0.785030399896313,-0.16918405250613736,0.46818518972542683,23.30656840978933,-199.66758339937562,-2.829054174505269,tremor
120,9245078,0.782,-0.7729284230639069,-0.16775962328857522,0.48794974636992516,23.83217433032281,-197.41779189424201,-3.0337803663796135,tremor
121,9245082,0.786,-0.7602284166007234,-0.1662574054638623,0.5072920841568019,24.379184615083116,-195.1301357306795,-3.2279596916982034,tremor
122,9245087,0.791,-0.7469565477383275,-0.1646737626748364,0.5262119230232433,24.94587260057897,-192.80026300441725,-3.4105414231303377,tremor
123,9245092,0.796,-0.733140326219429,-0.16300494928096618,0.544709628796515,25.530447395129876,-190.4235680797978,-3.580482283228148,tremor
124,9245097,0.801,-0.7188085325001262,-0.16124714604922383,0.562786177709354,26.131054572139856,-187.995273688716,-3.7367545638951705,tremor
125,9245111,0.815,-0.7039911389635706,-0.15939649815258713,0.5804431230327807,26.745776257677832,-185.51051650820122,-3.8783542741248307,tremor
126,9245121,0.825,-0.688719223695903,-0.15744915516814062,0.5976825636672758,27.372630755201058,-182.96443533963566,-4.004309225950302,tremor
127,9245126,0.83,-0.6730248766142927,-0.15540131272296587,0.6145071143035086,28.009571848448104,-180.3522609406245,-4.113686978705324,tremor
128,9245152,0.856,-0.6569410980074912,-0.15324925541005946,0.630919876556159,28.654487912030095,-177.66940648801872,-4.205602573217179,tremor
129,9245157,0.861,-0.640501689827945,-0.15098940059241203,0.6469244103370209,29.305200944432645,-174.9115575731861,-4.279225999993474,tremor
130,9245162,0.866,-0.6237411403365569,-0.1486183427278665,0.6625247046993208,29.95946562983924,-172.07476054986537,-4.33378935647474,tremor
131,9245167,0.871,-0.6066945029250294,-0.14613289786961342,0.6777251474592072,30.614968541265505,-169.1555079793736,-4.368593655297735,tremor
132,9245172,0.876,-0.5893972701126359,-0.14353014801400807,0.6925304930623206,31.269327617514893,-166.15081985867738,-4.383015247561054,tremor
133,9245176,0.88,-0.5718852438328195,-0.14080748496994122,0.7069458283771017,31.920092071839026,-163.05831928307234,-4.376511823994165,tremor
134,9245181,0.885,-0.554194403198862,-0.13796265341009825,0.7209765363220034,32.56474291115161,-159.87630119376047,-4.348627955240297,tremor
135,9245186,0.89,-0.5363607709787052,-0.1349937927367777,0.734628257437965,33.200694256147145,-156.6037928973945,-4.299000132208895,tremor
136,9245191,0.895,-0.5184202800270523,-0.13189947735865873,0.7479068496791297,33.82529565426328,-153.2406051248219,-4.227361270102714,tremor
137,9245200,0.904,-0.5004086409264242,-0.12867875493640285,0.7608183468032245,34.43583557030298,-149.78737252305427,-4.1335446464530134,tremor
138,9245205,0.909,-0.4823612120835958,-0.1253311821213086,0.7733689157948868,35.029546224739526,-146.24558264756726,-4.017487254422661,tremor
139,9245225,0.929,-0.4643128735148995,-0.12185685728977078,0.7855648137517567,35.603609927895555,-142.61759273623898,-3.879232565724533,tremor
140,9245229,0.933,-0.4462979055262337,-0.11825644977407179,0.7974123446096073,36.15516702988139,-138.9066337933226,-3.7189327089804234,tremor
141,9245234,0.938,-0.42834987343363146,-0.11453122511239139,0.8089178159901315,36.68132557226004,-135.11680178503426,-3.5368500752815373,tremor
142,9245239,0.943,-0.4105015193535391,-0.11068306588959623,0.8200874963414237,37.179172689135875,-131.25303604360099,-3.3333583599651937,tremor
143,9245244,0.948,-0.39278466190103073,-0.10671448781247654,0.8309275724290718,37.64578776418395,-127.32108528817125,-3.108943036484508,tremor
144,9245249,0.953,-0.37523010437242066,-0.10262865075187626,0.8414441071455235,38.0782573074855,-123.32746198707049,-2.8642012359568656,tremor
145,9245276,0.98,-0.35786755168065926,-0.09842936458061635,0.8516429975520995,38.47369147344253,-119.27938609035002,-2.5998409798466056,tremor
146,9245291,0.995,-0.34072553599256755,-0.0941210897296295,0.8615299330636913,38.829242100024764,-115.18471943579172,-2.3166796913745045,tremor
147,9245301,1.005,-0.32383135072426306,-0.08970893246255537,0.8711103537433755,39.14212211096963,-111.0518923501514,-2.0156419015631677,tremor
148,9245305,1.009,-0.30721099232320526,-0.08519863491856733,0.8803894088035089,39.40962608592094,-106.88982409874416,-1.6977560732934256,tremor
149,9245310,1.014,-0.2908891091347166,-0.08059655998918647,0.8893719156101999,39.62915176775464,-102.70783886018407,-1.3641504915480338,tremor
150,9245320,1.024,-0.27488895663472396,-0.07590967108501304,0.8980623197394152,39.798222240769,-98.51557882855388,-1.0160482053901638,tremor
151,9245325,1.029,-0.2592323584053311,-0.07114550682938633,0.9064646569026595,39.9145084784297,-94.32291590436837,-0.6547610497808196,tremor
152,9245330,1.034,-0.24393967241457787,-0.06631215070403916,0.9145825178152699,39.97585192679213,-90.13986325995968,-0.28168281644146276,tremor
153,9245334,1.038,-0.22902976240447892,-0.061418195676433,0.9224190172946005,39.98028676245233,-85.97648787552251,0.10171832125313479,tremor
154,9245339,1.043,-0.21451997445619875,-0.05647270386297426,0.9299767690287735,39.926061444550044,-81.84282495527685,0.49390799520989104,tremor
155,9245349,1.053,-0.2004261190525441,-0.05148516132630302,0.9372578675340713,39.8116591701781,-77.74879496477106,0.8932942854272911,tremor
156,9245354,1.058,-0.1867624591615864,-0.04646542816625646,0.9442638788098018,39.635816841646836,-73.70412389273615,1.29823665051821,tremor
157,9245359,1.063,-0.17354170498696658,-0.04142368414033938,0.9509958410971168,39.39754216278483,-69.71826724066193,1.7070549787896447,tremor
158,9245364,1.068,-0.16077501603862962,-0.03637037013787371,0.9574542769501608,39.09612850110083,-65.80033818267347,2.1180386091877486,tremor
159,9245369,1.073,-0.1484720110510074,-0.03131612593002672,0.9636392175356705,38.73116718455579,-61.95904031739593,2.529455202283067,tremor
160,9245374,1.078,-0.13664078600993543,-0.026271724723748068,0.9695502396975683,38.302556946541834,-58.2026054485816,2.9395593837354324,tremor
161,9245401,1.105,-0.1252879401591651,-0.021248005158976374,0.9751865158692182,37.81051029065483,-54.53873687146514,3.3466011327407457,tremor
162,9245406,1.11,-0.11441860937635427,-0.016255801499543684,0.9805468764102865,37.255556617420105,-50.97455868619433,3.748833939307754,tremor
163,9245411,1.115,-0.10403650580041647,-0.011305872866040127,0.9856298834265612,36.6385420346048,-47.516571675981645,4.144522795532085,tremor
164,9245416,1.12,-0.09414396215286955,-0.006408832424368683,0.9904339146555313,35.96062585360386,-44.17061624094322,4.531952105907348,tremor
165,9245421,1.125,-0.08474197892675886,-0.0015750774612171793,0.9949572556229577,35.22327384893623,-40.94184275370186,4.909433596475686,tremor
166,9245431,1.135,-0.07583027258272523,0.0031852787538495368,0.9991981980258673,34.42824842195754,-37.83468951753628,5.275314278124609,tremor
167,9245435,1.139,-0.06740732310219305,0.00786247248606685,1.0031551421741918,33.577595861832016,-34.852868298478406,5.627984485238758,tremor
168,9245440,1.144,-0.05947041966742237,0.012447151678366668,1.0068267013084913,32.67363093462857,-31.999357200990488,5.965885975058001,tremor
169,9245445,1.149,-0.05201570380478333,0.016930434036445095,1.0102118056834415,31.71891905293363,-29.276400482368107,6.2875200403262985,tremor
170,9245455,1.159,-0.04503820996264084,0.021303960421717685,1.0133098044445286,30.71625628388567,-26.685514765134464,6.591455560929585,tremor
171,9245469,1.173,-0.03853190411480341,0.025559942936345864,1.0161205635056585,29.66864744731744,-24.227501015892027,6.876336901199667,tremor
172,9245474,1.178,-0.03248972150237048,0.029691207074727787,1.0186445578336902,28.579282545126656,-21.902461617770502,7.140891550902276,tremor
173,9245479,1.183,-0.02690360497364571,0.033691227291200825,1.0208829567388804,27.45151175632752,-19.70982187441405,7.383937412005391,tremor
174,9245484,1.188,-0.02176454549288643,0.037554155318004934,1.022837700939767,26.288819235676723,-17.648355342585273,7.6043896493987475,tremor
175,9245489,1.193,-0.017062626243469554,0.04127484058803525,1.024511570308775,25.094795968928832,-15.71621248373228,7.801267046606676,tremor
176,9245494,1.198,-0.012787071382341758,0.04484884219413439,1.025908241314125,23.87311196162222,-13.910952231712299,7.973697829960786,tremor
177,9245499,1.203,-0.008926299982762984,0.04827243195917502,1.02703233326655,22.627488065837014,-12.22957617578413,8.120924940428523,tremor
178,9245524,1.228,-0.005467985117097842,0.051542588396919456,1.0278894425718699,21.361667776012574,-10.668565142377734,8.242310737549124,tremor
179,9245529,1.233,-0.0023991174662951866,0.054656981602179855,1.0284861642987027,20.079389345869828,-9.223918016705461,8.337341114140377,tremor
180,9245539,1.243,0.00029392761445095326,0.05761394939970375,1.0288301005092158,18.78435858670189,-7.891192667073843,8.405628986004066,tremor
181,9245548,1.252,0.0026253209082954497,0.06041246537285555,1.0289298549796058,17.48022269510021,-6.665548816014426,8.446917101884193,tremor
182,9245553,1.257,0.004609709381073369,0.06305209964888374,1.0287950141545026,16.170545423838572,-5.541792650475404,8.461080100756304,tremor
183,9245558,1.262,0.006262146601254051,0.06553297350737605,1.0284361144193352,14.858783861072475,-4.514422898377278,8.44812573232854,tremor
184,9245567,1.271,0.0075980243216411366,0.06785570898799181,1.0278645960116486,13.54826703249,-3.577678042526726,8.40819515691817,tremor
185,9245572,1.276,0.008633005606605067,0.07002137470559938,1.0270927441044346,12.242176496849746,-2.7255843075124138,8.341562252700786,tremor
186,9245577,1.281,0.009382959529690163,0.07203142905205755,1.026133617770613,10.943529069319721,-1.9520040427155703,8.248631878127648,tremor
187,9245582,1.286,0.009863897209396524,0.07388766189756601,1.0250009676771596,9.655161777631537,-1.2506841316707724,8.129937061162936,tremor
188,9245587,1.291,0.010091908825397887,0.07559213582378863,1.0237091434658823,8.37971913136262,-0.6153040797497326,7.986135112493738,tremor
189,9245591,1.295,0.010083101266772901,0.0771471278429811,1.0222729918650348,7.119642763316171,-0.039523462641922386,7.818002685553123,tremor
190,9245596,1.3,0.009853536190359759,0.07855507249177007,1.0207077466531083,5.877163482935501,0.48297154880142257,7.626429830921666,tremor
191,9245601,1.305,0.009419168480572466,0.07981850713816235,1.0190289116746853,4.654295763633218,0.9584228414115226,7.412413115585809,tremor
192,9245611,1.315,0.0087957853646872,0.08094002030392063,1.0172521381984465,3.4528346670784233,1.3929564204954785,7.17704789779957,tremor
193,9245621,1.325,0.007998946707882384,0.0819222037755769,1.0153930980172217,2.2743551862237057,1.7925400946615766,6.921519864682482,tremor
194,9245646,1.35,0.007043927244309937,0.08276760924625454,1.013467353823266,1.1202139641691748,2.162942999171178,6.647095950842407,tremor
195,9245655,1.359,0.005945661647240075,0.08347871018434534,1.0114902285444798,-0.008446682485291217,2.5096971850647907,6.355114761660521,tremor
196,9245661,1.365,0.004718693365371272,0.08405786955084073,1.0094766754797406,-1.1106925388287716,2.838061524733142,6.04697662519614,tremor
197,9245665,1.369,0.0033771280431779157,0.08450731387645448,1.0074411511869854,-2.185789201383874,3.152988207387805,5.7241333937962136,tremor
198,9245670,1.374,0.0019345921280951297,0.08482911406391208,1.0053974931155127,-3.2331918897925513,3.4590921067687477,5.388078112424918,tremor
199,9245675,1.379,0.0004041970020778971,0.08502517311089892,1.003358803913375,-4.252533555193897,3.760623292131454,5.040334666869971,tremor
200,9245680,1.384,-0.0012014912815566541,0.08509722077058801,1.0013373441903473,-5.243611502395467,4.061442924720354,4.682447521853858,tremor
201,9245685,1.389,-0.0028704767812423376,0.0850468149934684,0.9993444353018628,-6.206372760032443,4.365002741880999,4.315971656295227,tremor
202,9245690,1.394,-0.004591353230708773,0.0848753498365435,0.9973903734642554,-7.140898444469795,4.674328285355836,3.9424627993869414,tremor
203,9245694,1.398,-0.006353318703736427,0.08458406939045254,0.9954843562357006,-8.047387369050188,4.992005983656118,3.5634680653352127,tremor
204,9245699,1.403,-0.008146185693177857,0.08417408716553933,0.9936344221157282,-8.926139150995127,5.320174154496398,3.1805170756533694,tremor
205,9245709,1.413,-0.009960386856071228,0.08364641029595657,0.9918474037424588,-9.777537065347264,5.66051795492187,2.79511364619272,tremor
206,9245714,1.418,-0.011786976582283896,0.08300196786619686,0.9901288949125809,-10.602030890541949,6.014268275542149,2.4087281027549508,tremor
207,9245719,1.423,-0.013617628442007548,0.0822416426348765,0.9884832314249159,-11.400119984480025,6.382204551784095,2.0227902747281767,tremor
208,9245723,1.427,-0.01544462848642027,0.0813663054225162,0.9869134855628102,-12.172336823276444,6.764661448896567,1.638683200278517,tremor
209,9245728,1.432,-0.017260864342829463,0.08037685143865042,0.9854214738883511,-12.919231226646355,7.161539366795565,1.257737558740674,tremor
210,9245733,1.437,-0.019059810078025093,0.07927423784358723,0.9840077779218317,-13.641355483622778,7.5723187021544875,0.881226826428432,tremor
211,9245738,1.442,-0.0208355069052728,0.07805952186671082,0.9826717772171802,-14.339250579412022,7.996077793603079,0.5103631325340973,tremor
212,9245768,1.472,-0.022582539973080216,0.0767338988327338,0.9814116943094067,-15.013433708118809,8.431514457610445,0.14629377413230593,tremor
213,9245773,1.477,-0.024296011678805948,0.07529873947767822,0.9802246509928576,-15.66438723653932,8.87697099691112,-0.2099016644376984,tremor
214,9245778,1.482,-0.025971512166390494,0.07375562596709324,0.9791067353758391,-16.292549261382526,9.330462532029852,-0.557213651271768,tremor
215,9245783,1.487,-0.027605087853875648,0.07210638606088918,0.9780530791323636,-16.898305876639252,9.789708471130034,-0.8947045728709594,tremor
216,9245788,1.492,-0.029193208955516928,0.07035312490359474,0.9770579443225427,-17.481985240196167,10.252166894649292,-1.221510192689816,tremor
217,9245793,1.497,-0.030732736998146933,0.06849825395703217,0.9761148190751621,-18.043853500197507,10.715071590259784,-1.5368407636400858,tremor
218,9245798,1.502,-0.032220893288191985,0.06654451663485646,0.9752165213238587,-18.584112612869124,11.175471433109474,-1.8399818480702888,tremor
219,9245802,1.506,-0.03365522918273465,0.06449501024490446,0.9743553096709324,-19.10290005487147,11.630271768447509,-2.130294889437521,tremor
220,9245812,1.516,-0.03503359887488799,0.06235320389518274,0.9735230003289709,-19.600290404970313,12.07627741922347,-2.407217570203788,tremor
221,9245817,1.521,-0.03635413523759733,0.060122952071659186,0.9727110889677358,-20.07629874230683,12.510236908893091,-2.670263981008183,tremor
222,9245826,1.53,-0.03761522909564351,0.057808503649641435,0.9719108761790954,-20.530885781990655,12.928887458521478,-2.919024617477155,tremor
223,9245831,1.535,-0.03881551212629329,0.05541450615421373,0.971113595172728,-20.963964642659743,13.329000288289356,-3.1531662136871743,tremor
224,9245836,1.54,-0.03995384343578872,0.052946005138353014,0.9703105402353074,-21.37540911435427,13.70742572853609,-3.3724314153733808,tremor
225,9245841,1.545,-0.04102929972907814,0.050408438600581223,0.969493194428935,-21.765063268431497,14.061137625635263,-3.5766382911800965,tremor
226,9245846,1.55,-0.04204116888645851,0.04780762641913924,0.9686533549708645,-22.1327522249317,14.387276513779955,-3.765679676307088,tremor
227,9245851,1.555,-0.04298894668134383,0.04514975483895449,0.9677832547239333,-22.478293867597504,14.683191015396533,-3.9395223396296877,tremor
228,9245891,1.595,-0.043872336313704186,0.04244135611283711,0.9668756782322339,-22.801511273086682,14.94647692959388,-4.09820596241592,tremor
229,9245896,1.6,-0.04469125038784831,0.03968928346894486,0.9659240707559716,-23.10224559918156,15.175013468271661,-4.241841913764448,tremor
230,9245901,1.605,-0.04544581492373369,0.03690068164780893,0.9649226387907248,-23.38036915862201,15.366996103373731,-4.370611804726959,tremor
231,9245906,1.61,-0.046136374949498335,0.0340829533149797,0.9638664405991475,-23.635798393631518,15.520965498624511,-4.48476579972281,tremor
232,9245911,1.615,-0.04676350117279323,0.031243721701078028,0.9627514653402378,-23.868506463160923,15.635832017097997,-4.584620660170527,tremor
233,9245926,1.63,-0.0473279971683288,0.028390789847855615,0.9615746994579903,-24.07853515903044,15.710895322786396,-4.6705574912740255,tremor
234,9245930,1.634,-0.04783090645385176,0.02553209685225308,0.9603341790944394,-24.266005875990114,15.74585863116181,-4.743019159029854,tremor
235,9245935,1.639,-0.048273518766888734,0.0226756715084888,0.9590290274286912,-24.43112937377387,15.74083721500135,-4.802507341568633,tremor
236,9245940,1.644,-0.04865737481322772,0.01982958375715856,0.957659476018983,-24.57421408823721,15.696360844155343,-4.849579177993133,tremor
237,9245945,1.649,-0.048984268747460244,0.017001894363258566,0.9562268694413741,-24.695672775299794,15.613369935416657,-4.8848434799954905,tremor
238,9245950,1.654,-0.04925624767359063,0.01420060326242578,0.9547336527744177,-24.796027305618612,15.493205308516231,-4.908956477463337,tremor
239,9245955,1.659,-0.0494756075222417,0.011433597035099795,0.9531833417686644,-24.875911468090706,15.337591578731868,-4.92261707943858,tremor
240,9245965,1.669,-0.049644884769890964,0.008708595989092557,0.9515804758559517,-24.936071684325675,15.14861435726141,-4.926561646264416,tremor
241,9245970,1.674,-0.04976684361301434,0.006033101349100104,0.9499305544882379,-24.977365582427893,14.928691571191594,-4.921558286842581,tremor
242,9245974,1.678,-0.049844458392198754,0.0034143430642164245,0.9482399576401475,-25.0007584254128,14.680539351440807,-4.908400714712218,tremor
243,9245979,1.683,-0.04988089127101148,0.0008592287495768325,0.9465158516525485,-25.007317435683827,14.407133065702737,-4.887901715595455,tremor
244,9245984,1.688,-0.04987946540062312,-0.001625705724694908,0.9447660819240327,-24.99820410021033,14.111664189736405,-4.860886295385875,tremor
245,9245989,1.693,-0.049843634029921285,-0.004034343493805493,0.9429990542603007,-24.974664579699674,13.797493809956581,-4.82818459112818,tremor
246,9246015,1.719,-0.049776946236409395,-0.006361031318344451,0.9412236069556017,-24.9380183785644,13.468103630122595,-4.790624638767388,tremor
247,9246025,1.729,-0.049683010137573085,-0.008600621089861774,0.9394488758934337,-24.88964546172878,13.127045412607721,-4.749025099888694,tremor
248,9246030,1.734,-0.04956545457414454,-0.010748507763256943,0.9376841551037756,-24.830972030887658,12.77788981604952,-4.70418805418353,tremor
249,9246035,1.739,-0.049427890314386026,-0.012800663273871714,0.9359387552909831,-24.763455197253304,12.424175590482728,-4.656891964469713,tremor
250,9246040,1.744,-0.049273871801383866,-0.014753666017104044,0.9342218628470286,-24.688566808926055,12.069360056980925,-4.607884917435195,tremor
251,9246044,1.748,-0.049106860361973516,-0.016604725493142788,0.9325424017978741,-24.60777670748133,11.716771738663793,-4.557878236933785,tremor
252,9246049,1.753,-0.04893018964104882,-0.018351701748886853,0.9309089010148658,-24.522535700167317,11.369565935622107,-4.507540558560679,tremor
253,9246059,1.763,-0.04874703384813958,-0.019993119281926125,0.9293293688777023,-24.43425854201674,11.030683957180427,-4.457492445581451,tremor
254,9246064,1.768,-0.04856037922962615,-0.021528175106286424,0.9278111774152263,-24.344307226589585,10.70281664524442,-4.408301618638991,tremor
255,9246069,1.773,-0.048372999028398755,-0.022956740715962532,0.9263609577828061,-24.253974884871734,10.388372743503814,-4.3604788657945495,tremor
256,9246074,1.778,-0.048187432075392056,-0.024279357720688913,0.9249845087626976,-24.164470588954156,10.089452588735961,-4.314474694570224,tremor
257,9246078,1.782,-0.04800596508020542,-0.025497226970379802,0.9236867197950258,-24.076905350839226,9.807827520776934,-4.270676782312255,tremor
258,9246083,1.787,-0.047830618650460656,-0.02661219103195033,0.9224715098582154,-23.992279597745423,9.544925324130451,-4.2294082747256665,tremor
259,9246088,1.792,-0.04766313706553871,-0.027626709936523282,0.9213417833141119,-23.91147239390992,9.301821923944365,-4.190926975013405,tremor
260,9246098,1.802,-0.047504981849927026,-0.028543830177906796,0.9202994036098853,-23.83523266444765,9.079239461236542,-4.155425457664679,tremor
261,9246102,1.806,-0.04735732922211661,-0.029367147015818336,0.919345185481871,-23.764172657838063,8.8775507681981,-4.123032130639217,tremor
262,9246107,1.811,-0.047221071522389295,-0.030100760219885912,0.9184789060321316,-23.69876385815187,8.696790156632343,-4.0938132559573095,tremor
263,9246112,1.816,-0.04709682273176141,-0.030749223482240885,0.9176993347433985,-23.639335524153037,8.536670322916276,-4.067775920722124,tremor
264,9246138,1.842,-0.04698492817162686,-0.031317487826046396,0.9170042821602293,-23.586075988587325,8.39660506177089,-4.044871929528179,tremor
265,9246143,1.847,-0.04688547841149682,-0.031810839443122525,0.9163906665948893,-23.539036797470185,8.275737368348544,-4.025002567670056,tremor
266,9246148,1.852,-0.04679832731067685,-0.03223483250582277,0.9158545978215518,-23.498139707391964,8.172972394041185,-4.0080241645012356,tremor
267,9246153,1.857,-0.04672311398694071,-0.03259521761852202,0.915391476312468,-23.463186490459922,8.08701460777401,-3.99375436766921,tremor
